"Time (s)","Linear Acceleration x (m/s^2)","Linear Acceleration y (m/s^2)","Linear Acceleration z (m/s^2)","Absolute acceleration (m/s^2)"
6.905611400E-2,-3.311060667E-1,3.551898003E-1,1.505339622E0,1.581720077E0
7.405918700E-2,-2.096177787E-1,3.247876167E-1,1.109744072E0,1.175141912E0
7.906226000E-2,-6.337739527E-2,2.942614555E-1,7.260007858E-1,7.859285206E-1
8.406533200E-2,8.911386132E-2,2.207813263E-1,4.048891068E-1,4.697029520E-1
8.890210300E-2,1.840531528E-1,1.451601982E-1,9.906768799E-2,2.544827165E-1
9.390517600E-2,1.995899677E-1,7.626771927E-2,-1.694793701E-1,2.727199610E-1
9.890819700E-2,1.862067878E-1,3.426837921E-2,-4.042167664E-1,4.463613826E-1
1.039112700E-1,1.476086080E-1,9.811401367E-3,-4.891834259E-1,5.110626076E-1
1.089143430E-1,1.227009892E-1,1.933383942E-2,-5.758991241E-1,5.891427088E-1
1.139174680E-1,1.813177764E-1,6.279468536E-2,-5.282678604E-1,5.620375796E-1
1.187529370E-1,2.259064317E-1,2.852916718E-2,-5.201845169E-1,5.678376184E-1
1.237560100E-1,-6.258875132E-3,-5.659532547E-2,-4.024429321E-1,4.064511262E-1
1.287590820E-1,-2.158140093E-1,-1.908121109E-1,-1.821556091E-1,3.408307706E-1
1.337621030E-1,-2.965631187E-1,-2.275662422E-1,-5.929946899E-3,3.738599233E-1
1.387651760E-1,-2.735339105E-1,-2.088894844E-1,2.139854431E-1,4.052719911E-1
1.437682490E-1,-1.923609823E-1,-1.947021484E-1,4.403085709E-1,5.184431615E-1
1.486015300E-1,-8.678001165E-2,-1.506404877E-1,6.052303314E-1,6.297039630E-1
1.536046030E-1,-1.912617683E-2,-1.694726944E-1,6.936922073E-1,7.143498326E-1
1.586076240E-1,1.935118437E-2,-1.888432503E-1,5.483579636E-1,5.802867375E-1
1.636106970E-1,-4.459619522E-4,-1.486387253E-1,3.410911560E-1,3.720710231E-1
1.686137700E-1,-8.137226105E-3,-1.128334999E-1,8.261585236E-2,1.400820910E-1
1.736168430E-1,1.374018192E-2,-5.523252487E-2,-1.893091202E-1,1.976799620E-1
1.784494990E-1,2.706456184E-2,-1.291751862E-2,-3.851013184E-1,3.862672368E-1
1.834525720E-1,5.541744828E-2,1.278495789E-2,-4.872274399E-1,4.905355511E-1
1.884556450E-1,1.265732944E-1,6.439065933E-2,-4.759902954E-1,4.967229783E-1
1.934586660E-1,2.190236449E-1,9.252023697E-2,-3.550262451E-1,4.272879427E-1
1.984617390E-1,2.796720266E-1,7.466268539E-2,-2.156572342E-1,3.609695302E-1
2.034648120E-1,3.075313568E-1,8.628797531E-2,-9.270668030E-3,3.195420088E-1
2.083243950E-1,4.086713493E-1,7.954406738E-2,2.999792099E-1,5.131540283E-1
2.133274680E-1,4.279195070E-1,6.190156937E-2,5.258426666E-1,6.807770698E-1
2.183305410E-1,3.160145283E-1,1.102604866E-1,5.337104797E-1,6.299757401E-1
2.233335620E-1,3.019242585E-1,1.132316589E-1,3.854923248E-1,5.025773562E-1
2.283366870E-1,3.264505267E-1,1.677203178E-1,2.110042572E-1,4.233471955E-1
2.333397070E-1,3.599324822E-1,2.210273743E-1,-1.959609985E-2,4.228338906E-1
2.381078850E-1,3.521552682E-1,2.920169830E-1,-2.211275101E-1,5.081187135E-1
2.431109570E-1,2.649987936E-1,3.458800316E-1,-2.943849564E-1,5.258515564E-1
2.481140300E-1,1.141178906E-1,3.345546722E-1,-1.011934280E-1,3.676816987E-1
2.531171030E-1,-2.769096494E-1,7.131767273E-2,1.339452744E0,1.369634556E0
2.581201760E-1,-4.785126746E-1,-1.280326843E-1,1.277273178E0,1.369961138E0
2.631232490E-1,-3.639032543E-1,-1.689786911E-1,7.301797867E-1,8.331517853E-1
2.680272600E-1,-1.335798800E-1,-1.707859039E-1,5.064039230E-1,5.508687163E-1
2.730303320E-1,4.249525070E-2,-1.567049026E-1,2.911500931E-1,3.333626397E-1
2.780334050E-1,1.228321493E-1,-1.390066147E-1,1.193666458E-1,2.205877874E-1
2.830364780E-1,1.316302419E-1,-1.040048599E-1,2.545356750E-2,1.696803335E-1
2.880394990E-1,2.307780683E-1,3.831863403E-3,-1.772308350E-2,2.314893252E-1
2.930425720E-1,2.775191665E-1,1.092314720E-1,3.176307678E-2,2.999288170E-1
2.978391870E-1,9.853705764E-2,1.897096634E-1,4.432106018E-1,4.920720940E-1
3.028422070E-1,-3.599975407E-1,-3.136968613E-2,7.258052826E-1,8.107870218E-1
3.078452800E-1,-7.488998175E-1,-3.339374065E-1,6.113538742E-1,1.022799437E0
3.128483530E-1,-8.572578430E-1,-4.269623756E-1,3.724832535E-1,1.027585351E0
3.178514260E-1,-7.627554536E-1,-3.537428379E-1,1.921491623E-1,8.624680736E-1
3.228544990E-1,-6.352849007E-1,-2.109713554E-1,1.043252945E-1,6.774803207E-1
3.276879370E-1,-4.113270044E-1,-1.010980606E-1,2.970314026E-2,4.246092309E-1
3.326910100E-1,-9.972518682E-2,-2.561235428E-2,-2.972793579E-2,1.071674192E-1
3.376940300E-1,9.854277968E-2,8.904600143E-2,-2.712917328E-2,1.355575960E-1
3.426971030E-1,1.578423083E-1,1.078009605E-1,9.073638916E-2,2.115852870E-1
3.477001760E-1,1.960688233E-1,6.958675385E-2,1.124620438E-1,2.365016090E-1
3.527032490E-1,1.500656307E-1,-3.894758224E-2,1.174154282E-1,1.944813370E-1
3.575754890E-1,6.819626689E-2,-1.014056206E-1,1.342515945E-1,1.815415141E-1
3.625785620E-1,1.211342216E-2,-1.443424225E-1,1.132078171E-1,1.838409089E-1
3.675815820E-1,-8.012029529E-2,-1.633558273E-1,1.044015884E-1,2.097714940E-1
3.725846550E-1,-1.849878132E-1,-1.611576080E-1,8.561134338E-3,2.454904452E-1
3.775877280E-1,-2.912191749E-1,-1.544737816E-1,-1.801729202E-1,3.756767736E-1
3.825908530E-1,-3.594232798E-1,-1.052069664E-1,-3.804159164E-1,5.338256919E-1
3.874026760E-1,-3.974587321E-1,-7.738542557E-2,-4.954099655E-1,6.398382466E-1
3.924057490E-1,-4.150759876E-1,3.574991226E-2,-5.784463882E-1,7.128578791E-1
3.974087700E-1,-3.339571655E-1,1.246962547E-1,-5.475006104E-1,6.533249288E-1
4.024118430E-1,-1.832165122E-1,1.589112282E-1,-4.229545593E-1,4.875567947E-1
4.074149160E-1,-7.873904705E-2,1.696810722E-1,-1.776199341E-1,2.579541525E-1
4.124179890E-1,-4.556822777E-2,1.359090805E-1,4.758834839E-2,1.510377186E-1
4.172506450E-1,-9.687995911E-2,7.407474518E-2,2.107639313E-1,2.435040638E-1
4.222537180E-1,-1.209560931E-1,-6.086349487E-3,2.655391693E-1,2.918535087E-1
4.272567390E-1,-1.045566201E-1,-5.274772644E-2,2.797574997E-1,3.032798511E-1
4.322598120E-1,-5.814227462E-2,-9.487819672E-2,2.658605576E-1,2.882086612E-1
4.372628850E-1,-9.608459473E-2,-1.324038506E-1,2.927484512E-1,3.353575475E-1
4.422659570E-1,-1.606358588E-1,-1.510438919E-1,2.533922195E-1,3.358954500E-1
4.470987700E-1,-1.423374712E-1,-8.222484589E-2,1.958055496E-1,2.556573767E-1
4.521018430E-1,-2.586883307E-2,1.651239395E-2,1.461019516E-1,1.492904416E-1
4.571048640E-1,6.504377723E-2,1.308279037E-1,7.565212250E-2,1.645292588E-1
4.621079370E-1,1.307678223E-1,2.062997818E-1,5.561733246E-2,2.505057105E-1
4.671110100E-1,2.168529630E-1,2.481751442E-1,5.222702026E-2,3.336821413E-1
4.721140820E-1,2.333145142E-1,2.451477051E-1,6.047725677E-2,3.437885373E-1
4.769597600E-1,2.905008793E-1,1.762423515E-1,1.442241669E-1,3.691242848E-1
4.819628320E-1,3.048567772E-1,9.658670425E-2,2.221546173E-1,3.893832560E-1
4.869658530E-1,2.724300027E-1,4.149961472E-2,2.968511581E-1,4.050443611E-1
4.919689260E-1,2.365364432E-1,-3.217887878E-2,3.731994629E-1,4.430155847E-1
4.969719990E-1,1.684895754E-1,-5.100059509E-2,4.062862396E-1,4.427847177E-1
5.019750720E-1,7.558697462E-2,-7.736206055E-2,4.606618881E-1,4.731888147E-1
5.068028320E-1,-1.353687048E-2,-9.935712814E-2,4.626493454E-1,4.733914898E-1
5.118059050E-1,-1.469800174E-1,-8.130693436E-2,3.487596512E-1,3.871010687E-1
5.168089780E-1,-3.535140157E-1,-7.068204880E-2,1.508750916E-1,3.908086547E-1
5.218119990E-1,-4.907371700E-1,1.556873322E-3,-6.623554230E-2,4.951893990E-1
5.268150720E-1,-5.079555511E-1,4.259872437E-2,-1.768321991E-1,5.395397297E-1
5.318181450E-1,-4.682745337E-1,1.429185867E-1,-3.053226471E-1,5.769997229E-1
5.366501760E-1,-2.861972749E-1,1.693248749E-1,-3.639345169E-1,4.929788292E-1
5.416476760E-1,-1.458969712E-1,1.748518944E-1,-3.439178467E-1,4.124786012E-1
5.466452280E-1,-7.373017073E-2,1.834640503E-1,-2.224407196E-1,2.976156407E-1
5.516427280E-1,4.589784145E-2,1.666541100E-1,-7.649421692E-3,1.730280840E-1
5.566402280E-1,2.180247903E-1,1.382441521E-1,2.500324249E-1,3.593918033E-1
5.616377280E-1,2.574616075E-1,9.781885147E-2,4.721565247E-1,5.466139321E-1
5.664990820E-1,1.922039986E-1,-3.536224365E-2,5.214948654E-1,5.569109085E-1
5.714965820E-1,1.170740128E-1,-1.370229721E-1,5.160112381E-1,5.465795616E-1
5.764941350E-1,8.153438568E-2,-1.861615181E-1,4.443969727E-1,4.886641343E-1
5.814916350E-1,4.587316513E-2,-2.426083088E-1,2.313957214E-1,3.383890050E-1
5.864890820E-1,-2.839368582E-2,-2.421789169E-1,1.014099121E-1,2.640848339E-1
5.914866350E-1,-6.016647816E-2,-1.921236515E-1,7.010459900E-2,2.131810436E-1
5.963384050E-1,-3.292477131E-2,-1.330699921E-1,-5.343151093E-2,1.471278006E-1
6.013359050E-1,-1.201188564E-2,-9.792184830E-2,-2.590341568E-1,2.771852596E-1
6.063334050E-1,2.894777060E-2,-1.099891663E-1,-4.060325623E-1,4.216610389E-1
6.113309050E-1,1.063535213E-1,-1.069574356E-1,-5.116491318E-1,5.334189710E-1
6.163284050E-1,1.898582578E-1,-1.077179909E-1,-4.814348221E-1,5.286102643E-1
6.213259050E-1,2.565947771E-1,-9.560298920E-2,-4.448804855E-1,5.223977963E-1
6.261888220E-1,3.602204919E-1,-9.233760834E-2,-2.832717896E-1,4.674697246E-1
6.311863220E-1,4.081275463E-1,-1.357333660E-1,-7.849121094E-2,4.372099163E-1
6.361838220E-1,4.126858711E-1,-2.357227802E-1,1.956319809E-1,5.139520691E-1
6.411813220E-1,3.057295680E-1,-3.215568066E-1,3.372421265E-1,5.573164276E-1
6.461788220E-1,1.813815832E-1,-3.773643970E-1,4.785585403E-1,6.358627552E-1
6.511763220E-1,1.304322481E-1,-4.172656536E-1,6.573801041E-1,7.894756477E-1
6.560777280E-1,7.752680779E-2,-4.526987076E-1,7.091026306E-1,8.448509138E-1
6.610752280E-1,7.531660795E-2,-3.955612183E-1,6.797695160E-1,7.900809222E-1
6.660727280E-1,1.491569877E-1,-3.155210018E-1,5.107049942E-1,6.185635785E-1
6.710702800E-1,2.618263960E-1,-2.272384167E-1,3.600492477E-1,4.998257901E-1
6.760677280E-1,4.103022218E-1,-2.117376328E-1,3.156661987E-1,5.593084009E-1
6.810652800E-1,5.212730169E-1,-2.443976402E-1,3.859987259E-1,6.931455699E-1
6.859116870E-1,5.751313567E-1,-2.535667419E-1,5.533208847E-1,8.373984545E-1
6.909092390E-1,6.064186096E-1,-2.350223064E-1,7.527465820E-1,9.947896418E-1
6.959067390E-1,6.401474476E-1,-2.340734005E-1,9.387283325E-1,1.160081891E0
7.009042390E-1,6.216016412E-1,-2.194316387E-1,9.164638519E-1,1.128913122E0
7.059017390E-1,5.457934737E-1,-1.865742207E-1,7.970800400E-1,9.838887365E-1
7.108992390E-1,4.361445308E-1,-1.926760674E-1,6.527433395E-1,8.083439775E-1
7.157775200E-1,2.947363853E-1,-1.633601189E-1,5.690574646E-1,6.613489724E-1
7.207750200E-1,1.622408628E-1,-1.275122166E-1,4.576578140E-1,5.020280248E-1
7.257725720E-1,3.596282005E-2,-6.120967865E-2,4.042215347E-1,4.104083312E-1
7.307700720E-1,-8.912974596E-2,-1.754760742E-4,2.728099823E-1,2.870007471E-1
7.357675720E-1,-1.844237447E-1,6.057167053E-2,1.756267548E-1,2.617743338E-1
7.407650720E-1,-2.976571321E-1,9.955596924E-2,1.076793671E-1,3.318222497E-1
7.456280410E-1,-4.123558998E-1,1.409597397E-1,4.504203796E-3,4.358065215E-1
7.506255410E-1,-4.256812930E-1,1.443200111E-1,-6.238365173E-2,4.537891017E-1
7.556230930E-1,-3.471580148E-1,8.170843124E-2,-1.980199814E-1,4.079299793E-1
7.606205930E-1,-2.253091335E-1,7.476043701E-2,-2.592391968E-1,3.515085913E-1
7.656180410E-1,-1.059021950E-1,8.003759384E-2,-2.013978958E-1,2.412102895E-1
7.706155930E-1,-9.432268143E-2,6.178951263E-2,-3.175811768E-1,3.370052165E-1
7.754784050E-1,-1.434726715E-1,3.213548660E-2,-5.230789185E-1,5.433494749E-1
7.804759050E-1,-2.173124552E-1,1.483869553E-2,-6.626892090E-1,6.975685470E-1
7.854734050E-1,-2.990852594E-1,-1.120662689E-2,-7.490072250E-1,8.065912249E-1
7.904709570E-1,-3.431186676E-1,-4.346895218E-2,-9.488539696E-1,1.009922683E0
7.954684570E-1,-3.373222947E-1,-3.132963181E-2,-1.031227589E0,1.085448394E0
8.004659570E-1,-2.433698773E-1,1.087188721E-2,-9.331755638E-1,9.644499614E-1
8.052893430E-1,-8.502376080E-2,4.690170288E-2,-6.798696518E-1,6.867689226E-1
8.102868430E-1,2.283275127E-3,7.787704468E-3,-3.676118851E-1,3.677014546E-1
8.152843430E-1,7.003664970E-3,-1.373386383E-2,-1.415224075E-1,1.423596227E-1
8.202818430E-1,-1.421002746E-1,-6.117916107E-2,8.498859406E-2,1.765175314E-1
8.252793430E-1,-4.220764041E-1,-1.350526810E-1,2.578229904E-1,5.126991437E-1
8.302768430E-1,-7.629851103E-1,-1.314735413E-1,6.274967194E-1,9.965860241E-1
8.351814260E-1,-1.176184773E0,-5.163002014E-2,9.835624695E-1,1.534102803E0
8.401789260E-1,-1.391421795E0,-1.920032501E-2,1.052598953E0,1.744817417E0
8.451764780E-1,-1.357246637E0,6.186342239E-2,7.796068192E-1,1.566439373E0
8.501739780E-1,-1.189289808E0,1.557917595E-1,5.568580627E-1,1.322411518E0
8.551714780E-1,-9.043217301E-1,3.458032608E-1,4.407701492E-1,1.063793218E0
8.601689780E-1,-4.211759567E-1,4.986686707E-1,1.164770126E-1,6.630433802E-1
8.650276240E-1,1.442307234E-2,5.491747856E-1,-3.174057007E-1,6.344661922E-1
8.700251240E-1,2.764505744E-1,4.770736694E-1,-5.345983505E-1,7.679971371E-1
8.750226240E-1,3.715294600E-1,3.688364029E-1,-5.440444946E-1,7.550224128E-1
8.800201760E-1,3.389095068E-1,2.389006615E-1,-4.756908417E-1,6.310427535E-1
8.850176240E-1,3.169839978E-1,1.083483696E-1,-2.752828598E-1,4.335883727E-1
8.900151760E-1,3.438370824E-1,7.741928101E-3,-3.643226624E-2,3.458485025E-1
8.948781970E-1,3.690723777E-1,-9.415864944E-2,6.718540192E-2,3.867740289E-1
8.998756970E-1,3.948040009E-1,-1.593012810E-1,8.184623718E-2,4.335272814E-1
9.048731970E-1,4.377582073E-1,-2.095026970E-1,8.198261261E-2,4.921836821E-1
9.098707490E-1,4.715000391E-1,-2.592675686E-1,5.353927612E-2,5.407387660E-1
9.148682490E-1,4.487182498E-1,-2.991306782E-1,1.506805420E-3,5.392861029E-1
9.198657490E-1,3.105065227E-1,-3.124687672E-1,-6.207752228E-2,4.448647545E-1
9.247298120E-1,1.143516898E-1,-3.399851322E-1,-1.251411438E-1,3.799032837E-1
9.297273120E-1,-2.835643291E-2,-3.410427570E-1,-2.423133850E-1,4.193209105E-1
9.347248120E-1,-1.231707931E-1,-3.016431332E-1,-3.156938553E-1,4.536763541E-1
9.397223640E-1,-1.633921862E-1,-2.481741905E-1,-3.052978516E-1,4.260213768E-1
9.447198640E-1,-7.315236330E-2,-1.786673069E-1,-1.428308487E-1,2.401539634E-1
9.497173640E-1,4.237407446E-2,-9.362125397E-2,1.491804123E-1,1.811499290E-1
9.545794470E-1,8.109629154E-2,-3.390932083E-2,3.607492447E-1,3.713037410E-1
9.595769470E-1,2.483427525E-2,-5.416822433E-2,5.733900070E-1,5.764781331E-1
9.645744990E-1,-6.622725725E-2,-3.978347778E-2,5.828294754E-1,5.879276929E-1
9.695719990E-1,-1.966484785E-1,-3.347730637E-2,5.260305405E-1,5.625828682E-1
9.745694990E-1,-3.400266767E-1,-4.935503006E-2,4.890327454E-1,5.976680399E-1
9.795669990E-1,-3.726743460E-1,3.174114227E-2,4.525718689E-1,5.871243180E-1
9.844245510E-1,-3.811947107E-1,9.288406372E-2,3.096332550E-1,4.998095731E-1
9.894220510E-1,-2.920045853E-1,1.390986443E-1,1.774415970E-1,3.689181901E-1
9.944195510E-1,-1.131412387E-1,1.874537468E-1,9.378337860E-2,2.381914549E-1
9.994171030E-1,6.004118919E-2,1.620302200E-1,1.389265060E-1,2.217189904E-1
1.004414603E0,1.637274623E-1,1.464266777E-1,1.716899872E-1,2.787918678E-1
1.009412103E0,2.477198839E-1,1.335282326E-1,4.728794098E-2,2.853613133E-1
1.014279812E0,2.402383685E-1,6.648969650E-2,2.356719971E-2,2.503812420E-1
1.019277312E0,2.064896226E-1,3.801107407E-2,3.807544708E-2,2.133835646E-1
1.024274864E0,1.609398723E-1,3.614950180E-2,-1.414489746E-2,1.655551482E-1
1.029272364E0,9.877586365E-2,-1.294469833E-2,-1.875877380E-3,9.963812207E-2
1.034269812E0,2.519363165E-2,-1.395654678E-2,3.096580505E-3,2.896710349E-2
1.039267364E0,-5.623042583E-2,6.429672241E-3,4.118251801E-2,6.999429451E-2
1.044128197E0,-1.912689805E-1,3.632879257E-2,-2.093505859E-2,1.958108290E-1
1.049121270E0,-2.991611958E-1,4.710149765E-2,-8.020305634E-2,3.132866138E-1
1.054114343E0,-3.641996384E-1,7.679986954E-2,-1.127729416E-1,3.889181571E-1
1.059107416E0,-3.490285277E-1,5.620479584E-2,-1.235160828E-1,3.744811276E-1
1.064100437E0,-2.735171914E-1,7.335186005E-3,-1.863374710E-1,3.310394418E-1
1.069093510E0,-9.278899431E-2,-6.239032745E-2,-1.226892471E-1,1.659969933E-1
1.073942728E0,9.125399590E-2,-1.102209091E-1,9.723758698E-2,1.730060372E-1
1.078935801E0,3.172399402E-1,-1.221656799E-1,1.846799850E-1,3.868750830E-1
1.083928874E0,4.611864686E-1,-7.949447632E-2,1.478652954E-1,4.907916831E-1
1.088921947E0,4.930081964E-1,-7.527446747E-2,1.018295288E-1,5.090113752E-1
1.093914968E0,4.464090466E-1,-1.041302681E-1,-8.885478973E-2,4.669253937E-1
1.098908041E0,2.626247406E-1,-1.012701988E-1,-2.307300568E-1,3.639557207E-1
1.103830437E0,1.038600802E-1,-8.784532547E-2,-4.312906265E-1,4.522337029E-1
1.108823510E0,1.186966896E-2,-6.847047806E-2,-6.069307327E-1,6.108960711E-1
1.113816582E0,-3.113651276E-2,-2.919197083E-2,-5.628938675E-1,5.645096630E-1
1.118809655E0,1.267153025E-2,2.234888077E-2,-3.911409378E-1,3.919837667E-1
1.123802676E0,2.201002836E-2,8.115959167E-2,-2.756395340E-1,2.881813203E-1
1.128795749E0,-6.353968382E-2,4.018163681E-2,-8.531951904E-2,1.137157671E-1
1.133677676E0,-8.793300390E-2,8.052110672E-2,1.626129150E-1,2.016403282E-1
1.138670749E0,-1.917753220E-1,2.309131622E-2,3.608856201E-1,4.093280027E-1
1.143663822E0,-1.985609531E-1,-8.655023575E-2,4.578256607E-1,5.064797439E-1
1.148656895E0,-1.615096331E-1,-1.175198555E-1,5.731649399E-1,6.069714378E-1
1.153649916E0,-1.238928437E-1,-1.324462891E-1,5.524463654E-1,5.814537323E-1
1.158642989E0,-1.361892223E-1,-1.626276970E-1,5.704011917E-1,6.085661769E-1
1.163530801E0,-2.030439377E-1,-1.844427586E-1,5.745887756E-1,6.367089075E-1
1.168523874E0,-2.603205442E-1,-1.502504349E-1,5.460700989E-1,6.233253820E-1
1.173516947E0,-2.063583732E-1,-1.008782387E-1,4.637603760E-1,5.175266984E-1
1.178510020E0,-1.537483335E-1,-5.752515793E-2,3.232183456E-1,3.625159207E-1
1.183503041E0,-1.141328812E-1,-1.023769379E-2,1.508579254E-1,1.894445528E-1
1.188496114E0,-8.495509624E-2,-6.316661835E-3,-4.842185974E-2,9.798951523E-2
1.193382051E0,-8.700686693E-2,3.352069855E-2,-1.630296707E-1,1.878097592E-1
1.198375124E0,-1.270973682E-2,7.118606567E-2,-1.534252167E-1,1.696121767E-1
1.203368197E0,4.757779837E-2,8.047580719E-2,-1.115036011E-2,9.415058667E-2
1.208361270E0,7.717514038E-2,8.761024475E-2,9.886264801E-2,1.529881709E-1
1.213354291E0,4.951673746E-2,9.493064880E-2,9.144496918E-2,1.408045374E-1
1.218347364E0,-3.516608477E-2,6.873464584E-2,1.198339462E-1,1.425527261E-1
1.223229760E0,-1.005173326E-1,-2.671718597E-3,1.315259933E-1,1.655595336E-1
1.228222832E0,-1.371781826E-1,-4.278802872E-2,1.076059341E-1,1.795207683E-1
1.233215905E0,-1.471734643E-1,-3.992128372E-2,2.215290070E-2,1.540924674E-1
1.238208926E0,-9.540700912E-2,-4.651546478E-2,-8.874225616E-2,1.383523541E-1
1.243201999E0,-3.941416740E-3,-1.954555511E-2,-2.201852798E-1,2.210862297E-1
1.248195072E0,6.763494015E-2,3.864192963E-2,-4.149188995E-1,4.221674751E-1
1.253080801E0,1.218856573E-1,8.528041840E-2,-5.133714676E-1,5.344895948E-1
1.258073874E0,1.448779702E-1,9.421920776E-2,-4.878034592E-1,5.175124154E-1
1.263066947E0,1.823396683E-1,8.018636703E-2,-3.346004486E-1,3.894034775E-1
1.268060020E0,2.178425193E-1,4.288291931E-2,-8.075714111E-2,2.362541509E-1
1.273053041E0,1.824212074E-1,-5.117416382E-2,7.354164124E-2,2.032354914E-1
1.278046114E0,7.589817047E-2,-1.543047428E-1,1.697158813E-1,2.416070494E-1
1.282929395E0,-2.278000116E-2,-2.430610657E-1,2.963256836E-1,3.839355686E-1
1.287922468E0,-8.975064754E-2,-3.344666958E-1,4.698562622E-1,5.836848948E-1
1.292915541E0,-1.274290085E-1,-3.763339520E-1,6.067972183E-1,7.253056320E-1
1.297908562E0,-1.193783879E-1,-2.881586552E-1,5.339651108E-1,6.183893188E-1
1.302901635E0,-1.470072269E-1,-2.131736279E-1,3.907375336E-1,4.687536032E-1
1.307894707E0,-2.126613259E-1,-5.108070374E-2,1.846599579E-1,2.862400704E-1
1.312779864E0,-2.854343057E-1,7.669830322E-2,-9.105300903E-2,3.092669123E-1
1.317772937E0,-3.299534619E-1,1.635975838E-1,-3.599033356E-1,5.149406445E-1
1.322766010E0,-3.108213842E-1,1.960778236E-1,-5.247240067E-1,6.406182396E-1
1.327759030E0,-1.954209805E-2,1.983509064E-1,-5.816316605E-1,6.148336068E-1
1.332752103E0,8.402872086E-2,1.446552277E-1,-3.487396240E-1,3.867884256E-1
1.337745176E0,1.087481380E-1,1.061811447E-1,-1.750755310E-1,2.318448502E-1
1.342632103E0,1.052660942E-1,2.307701111E-2,6.515502930E-3,1.079627288E-1
1.347625176E0,8.121967316E-2,-1.197814941E-2,1.818466187E-1,1.995201847E-1
1.352618249E0,7.247644663E-2,-1.159710884E-1,3.439235687E-1,3.701155898E-1
1.357611270E0,-2.128303051E-3,-1.719892025E-1,3.503770828E-1,3.903189921E-1
1.362604343E0,-6.861501932E-2,-2.041845322E-1,3.355484009E-1,3.987381012E-1
1.367597416E0,-7.253038883E-2,-2.199249268E-1,3.519096375E-1,4.212695380E-1
1.372481114E0,-8.833658695E-2,-2.074515820E-1,2.828140259E-1,3.616950161E-1
1.377474187E0,-1.067474484E-1,-2.074000835E-1,1.860208511E-1,2.983514194E-1
1.382467260E0,-1.613717675E-1,-1.718070507E-1,5.688095093E-2,2.424746432E-1
1.387460280E0,-1.420493722E-1,-7.709074020E-2,-9.421348572E-3,1.618943117E-1
1.392453353E0,-7.054293156E-2,-4.960775375E-2,-6.095695496E-2,1.056076928E-1
1.397446426E0,-4.254239798E-2,-1.262903214E-2,-6.701755524E-2,8.037848461E-2
1.402301374E0,-2.890706062E-3,5.984544754E-2,3.141689301E-2,6.765245701E-2
1.407294447E0,-1.294451952E-2,2.948331833E-2,1.337814331E-1,1.376019567E-1
1.412287520E0,-4.621708393E-2,-2.941274643E-2,2.068777084E-1,2.140082119E-1
1.417280593E0,-5.310297012E-2,-8.577060699E-2,1.916246414E-1,2.165560566E-1
1.422273614E0,-5.320656300E-2,-1.041688919E-1,1.197586060E-1,1.674043610E-1
1.427266687E0,-3.477597237E-2,-4.434585571E-2,9.619045258E-2,1.114833007E-1
1.432154291E0,-3.820800781E-2,-1.773357391E-3,6.102466583E-2,7.202087543E-2
1.437147364E0,-7.025659084E-2,3.568935394E-2,-6.885528564E-2,1.046459216E-1
1.442140437E0,-9.270071983E-2,8.994722366E-2,-1.812295914E-1,2.225490761E-1
1.447133510E0,-6.029909849E-2,1.183309555E-1,-2.811183929E-1,3.109111564E-1
1.452126530E0,-6.857043505E-2,6.182384491E-2,-3.401889801E-1,3.524948717E-1
1.457119603E0,-9.807682037E-2,4.955482483E-2,-3.493537903E-1,3.662278173E-1
1.461958926E0,-7.481807470E-2,3.840923309E-2,-3.304281235E-1,3.409629867E-1
1.466951999E0,3.300428391E-3,6.626224518E-2,-1.814546585E-1,1.932029271E-1
1.471945072E0,7.771492004E-3,1.611709595E-2,-1.505756378E-2,2.338561731E-2
1.476938145E0,-3.728687763E-2,-2.170276642E-2,1.522836685E-1,1.582770893E-1
1.481931166E0,-9.853518009E-2,-9.742259979E-2,2.708129883E-1,3.042039107E-1
1.486924239E0,-1.214411855E-1,-1.518206596E-1,3.411788940E-1,3.926837302E-1
1.491854603E0,-1.113339067E-1,-1.305384636E-1,4.042301178E-1,4.391326877E-1
1.496847676E0,-1.205693483E-1,-1.554992199E-1,3.674325943E-1,4.168017352E-1
1.501840749E0,-1.300551295E-1,-1.359171867E-1,2.576951981E-1,3.190527127E-1
1.506833822E0,-1.778755188E-1,-1.051945686E-1,1.800508499E-1,2.740874058E-1
1.511826843E0,-2.043962181E-1,-8.699464798E-2,5.100727081E-2,2.279202150E-1
1.516819916E0,-1.837593317E-1,-6.429767609E-2,-7.687091827E-2,2.093103466E-1
1.521705541E0,-1.518124938E-1,-2.480125427E-2,-2.180709839E-1,2.668653022E-1
1.526698614E0,-1.110789180E-1,1.702165604E-2,-3.486871719E-1,3.663482041E-1
1.531691687E0,-3.057128191E-2,5.429697037E-2,-3.834266663E-1,3.884569122E-1
1.536684760E0,1.604789495E-2,2.278327942E-2,-3.468036652E-1,3.479215356E-1
1.541677780E0,5.572259426E-3,-1.013517380E-2,-3.037090302E-1,3.039291806E-1
1.546670853E0,7.710933685E-3,-2.774858475E-2,-2.447528839E-1,2.464415075E-1
1.551555228E0,3.426951170E-2,-3.289222717E-2,-7.014465332E-2,8.471464118E-2
1.556544655E0,1.831012964E-2,-7.809829712E-2,7.671356201E-2,1.109935830E-1
1.561534030E0,-1.865804195E-2,-7.555913925E-2,1.748867035E-1,1.914227393E-1
1.566523457E0,-1.234972477E-2,-1.160964966E-1,2.747373581E-1,2.985155409E-1
1.571512832E0,-1.333588362E-2,-1.689758301E-1,3.385009766E-1,3.785678117E-1
1.576502260E0,-3.129500151E-2,-2.125730515E-1,3.783092499E-1,4.350684634E-1
1.581404343E0,-9.215903282E-2,-2.158441544E-1,3.728666306E-1,4.405808785E-1
1.586393718E0,-1.079854965E-1,-1.744809151E-1,3.653812408E-1,4.190559728E-1
1.591383145E0,-9.604942799E-2,-8.647060394E-2,3.416347504E-1,3.652628651E-1
1.596372572E0,-5.863398314E-2,-6.372451782E-2,3.183059692E-1,3.298748978E-1
1.601361947E0,1.857852936E-2,-2.005052567E-2,2.573070526E-1,2.587549123E-1
1.606351374E0,8.582323790E-2,-2.930831909E-2,1.731882095E-1,1.954961934E-1
1.611243353E0,1.741804481E-1,-1.965427399E-2,1.824712753E-1,2.530234876E-1
1.616232728E0,2.313150167E-1,-6.022119522E-2,2.202720642E-1,3.250430919E-1
1.621222155E0,2.271990776E-1,-2.706003189E-2,2.696762085E-1,3.536621603E-1
1.626211530E0,1.907367706E-1,-3.823757172E-3,2.165212631E-1,2.885768428E-1
1.631200905E0,1.480434537E-1,1.669692993E-2,1.091947556E-1,1.847136873E-1
1.636190385E0,1.273998618E-1,3.710508347E-2,1.221561432E-2,1.332543930E-1
1.641131999E0,7.393348217E-2,1.009941101E-2,-1.031026840E-1,1.272726260E-1
1.646121374E0,-4.094749689E-2,1.218080521E-2,-2.793769836E-1,2.826244301E-1
1.651110801E0,-1.437067389E-1,3.605270386E-2,-3.735570908E-1,4.018660527E-1
1.656100228E0,-1.060708761E-1,2.000522614E-2,-4.102001190E-1,4.241643284E-1
1.661089603E0,-4.292845726E-2,-1.182794571E-2,-3.874521255E-1,3.900024389E-1
1.666079030E0,-8.728462458E-2,-3.309106827E-2,-3.652591705E-1,3.769985227E-1
1.670986166E0,-6.287550926E-2,3.352165222E-3,-3.767108917E-1,3.819367259E-1
1.675975541E0,2.042961121E-2,1.858711243E-2,-3.241262436E-1,3.253008939E-1
1.680964968E0,4.580932856E-2,1.268243790E-2,-1.937398911E-1,1.994855488E-1
1.685954343E0,1.089827418E-1,-4.725456238E-3,-5.984020233E-2,1.244203270E-1
1.690943770E0,1.192951798E-1,-4.346656799E-2,3.261280060E-2,1.310888143E-1
1.695933197E0,6.053292751E-2,-6.336069107E-2,1.007690430E-1,1.335410518E-1
1.700831270E0,7.071673870E-3,-1.097989082E-1,2.161321640E-1,2.425261246E-1
1.705820645E0,-1.946538687E-2,-1.681804657E-1,2.808303833E-1,3.279165664E-1
1.710810072E0,-3.577238321E-2,-2.029185295E-1,3.404750824E-1,3.979684344E-1
1.715799499E0,-5.849361420E-2,-1.855649948E-1,3.950405121E-1,4.403553978E-1
1.720788874E0,-4.021412134E-2,-1.237430573E-1,3.590898514E-1,3.819359123E-1
1.725778301E0,1.767337322E-3,-2.499008179E-2,2.880582809E-1,2.891456396E-1
1.730683249E0,1.712822914E-2,-1.090526581E-3,1.940536499E-1,1.948111509E-1
1.735672676E0,-1.805347204E-2,-1.796293259E-2,2.731800079E-2,3.734793123E-2
1.740662051E0,-4.642903805E-2,-2.950954437E-2,-2.023200989E-1,2.096661422E-1
1.745651478E0,3.684467077E-2,-2.352428436E-2,-2.641134262E-1,2.677065999E-1
1.750640853E0,1.531963348E-1,4.511022568E-2,-1.904563904E-1,2.485511740E-1
1.755630280E0,2.406082749E-1,4.972600937E-2,-1.462812424E-1,2.859426863E-1
1.760534030E0,2.373018861E-1,4.286956787E-2,-1.145792007E-1,2.669801083E-1
1.765523405E0,1.581307650E-1,1.234912872E-2,7.102966309E-3,1.587711937E-1
1.770512832E0,6.541371346E-2,-3.012609482E-2,1.279220581E-1,1.468011868E-1
1.775502260E0,-4.529428482E-2,-1.036434174E-1,2.004442215E-1,2.301552001E-1
1.780491635E0,-1.195051074E-1,-1.342382431E-1,2.226877213E-1,2.861663813E-1
1.785481010E0,-1.479039192E-1,-1.245512962E-1,1.641387939E-1,2.536338668E-1
1.790382572E0,-1.430389881E-1,-7.709646225E-2,7.528781891E-2,1.790873315E-1
1.795371999E0,-1.314123869E-1,-2.524089813E-2,-7.933425903E-2,1.555642730E-1
1.800361374E0,-1.226527095E-1,3.612899780E-2,-2.399702072E-1,2.719093451E-1
1.805350801E0,-9.044814110E-2,7.147264481E-2,-3.448982239E-1,3.636536677E-1
1.810340176E0,-6.815660000E-2,1.001539230E-1,-4.041566849E-1,4.219226900E-1
1.815329603E0,-2.481693029E-2,9.594774246E-2,-4.679450989E-1,4.783246438E-1
1.820231426E0,4.442161322E-2,8.530282974E-2,-4.246129990E-1,4.353688682E-1
1.825220801E0,1.392569542E-1,5.386209488E-2,-2.892274857E-1,3.254937219E-1
1.830210228E0,1.073766947E-1,-4.121637344E-2,-1.360759735E-1,1.781718681E-1
1.835199655E0,7.597380877E-2,-1.000618935E-1,8.238792419E-2,1.502403814E-1
1.840189030E0,2.374452353E-2,-1.186819077E-1,3.539485931E-1,3.740705872E-1
1.845178405E0,-2.318847179E-2,-1.666195393E-1,4.455184937E-1,4.762210666E-1
1.850082103E0,-4.625606537E-2,-1.652915478E-1,4.679288864E-1,4.984158526E-1
1.855071530E0,-6.951969862E-2,-1.365966797E-1,4.384384155E-1,4.644565487E-1
1.860060905E0,-8.579105139E-2,-1.042852402E-1,3.122339249E-1,3.401845670E-1
1.865050332E0,-7.810592651E-2,-5.362892151E-2,1.896324158E-1,2.119836081E-1
1.870039707E0,-8.702653646E-2,-8.159637451E-3,3.242015839E-2,9.322695105E-2
1.875029082E0,-8.132064342E-2,5.406332016E-2,-1.261119843E-1,1.594995994E-1
1.879933510E0,-5.658698082E-2,9.993076324E-2,-2.860679626E-1,3.082582085E-1
1.884922885E0,2.241897583E-2,1.584172249E-1,-3.834352493E-1,4.154770969E-1
1.889912312E0,9.846067429E-2,1.463813782E-1,-3.594131470E-1,4.003746027E-1
1.894901687E0,1.239829063E-1,1.092166901E-1,-2.077302933E-1,2.654278079E-1
1.899891114E0,1.112802029E-1,8.727169037E-2,-9.799671173E-2,1.720551859E-1
1.904880541E0,4.180514812E-2,3.014707565E-2,4.869651794E-2,7.090745687E-2
1.909783197E0,2.521461248E-2,-1.257228851E-2,2.441997528E-1,2.458197681E-1
1.914772624E0,-1.241022348E-2,-6.284713745E-2,4.336709976E-1,4.383769046E-1
1.919761999E0,-1.065042615E-1,-7.589578629E-2,4.748182297E-1,4.924994206E-1
1.924751426E0,-2.141652703E-1,-1.373991966E-1,4.210929871E-1,4.920006159E-1
1.929740801E0,-2.595477402E-1,-2.017240524E-1,3.350267410E-1,4.693618433E-1
1.934730228E0,-2.409263551E-1,-2.091538906E-1,2.167596817E-1,3.857144257E-1
1.939633510E0,-1.658495665E-1,-1.524610519E-1,9.954357147E-2,2.462912375E-1
1.944622937E0,-8.691692352E-2,-3.664779663E-2,-3.102493286E-2,9.929833358E-2
1.949612312E0,3.897780180E-2,2.164554596E-2,-1.369676590E-1,1.440414465E-1
1.954601739E0,1.544448733E-1,6.568717957E-2,-8.784961700E-2,1.894348956E-1
1.959591114E0,1.454212070E-1,7.900524139E-2,-5.838871002E-2,1.754947209E-1
1.964580541E0,1.151400208E-1,3.771924973E-2,-3.874492645E-2,1.272050924E-1
1.969458874E0,5.424875021E-2,1.831769943E-2,2.104568481E-2,6.100316271E-2
1.974448301E0,5.805033445E-2,-4.385042191E-2,9.228897095E-2,1.175157649E-1
1.979437676E0,6.912928820E-2,-2.526903152E-2,1.726751328E-1,1.877074423E-1
1.984427103E0,8.234906197E-2,1.643800735E-2,2.597475052E-1,2.729841434E-1
1.989416478E0,8.110684156E-2,2.149248123E-2,2.727689743E-1,2.853824799E-1
1.994405853E0,7.757264376E-2,-1.696395874E-2,3.501453400E-1,3.590362796E-1
1.999334707E0,3.618806601E-2,-2.255153656E-2,3.226709366E-1,3.254760840E-1
2.004324135E0,2.610623837E-3,-7.140159607E-2,2.410192490E-1,2.513867173E-1
2.009313510E0,-6.115943193E-2,-8.657693863E-2,8.637142181E-2,1.367335545E-1
2.014302937E0,-9.074985981E-2,-8.483314514E-2,-4.095935822E-2,1.308046964E-1
2.019292312E0,-6.523376703E-2,-5.168056488E-2,-1.912498474E-1,2.085733187E-1
2.024281687E0,5.043745041E-4,-2.288246155E-2,-3.168468475E-1,3.176724512E-1
2.029146270E0,1.573538780E-2,-6.241178513E-2,-3.871269226E-1,3.924411899E-1
2.034135645E0,2.846670151E-2,-3.442430496E-2,-3.739891052E-1,3.766473638E-1
2.039125072E0,8.634698391E-2,-3.450870514E-2,-3.137693405E-1,3.272580807E-1
2.044114447E0,8.217686415E-2,-3.172874451E-2,-2.020301819E-1,2.203995114E-1
2.049103874E0,4.555225372E-3,-3.364801407E-2,-1.411542892E-1,1.451808262E-1
2.054093249E0,-1.059703231E-1,-8.075046539E-2,-1.163692474E-1,1.768958699E-1
2.059035280E0,-1.304975152E-1,-8.476400375E-2,-4.183959961E-2,1.611368670E-1
2.064021895E0,-1.458699703E-1,-7.727241516E-2,-9.613037109E-4,1.650757356E-1
2.069008457E0,-1.359017491E-1,-6.536579132E-2,1.364040375E-2,1.514200538E-1
2.073995020E0,-1.197491884E-1,-1.827096939E-2,4.734802246E-2,1.300597235E-1
2.078981635E0,-8.544731140E-2,-1.444244385E-2,6.187629700E-2,1.064824086E-1
2.083968197E0,-1.842069626E-2,-2.487325668E-2,5.253505707E-2,6.097485687E-2
2.088848093E0,2.459377050E-2,1.243829727E-2,1.096963882E-1,1.131055365E-1
2.093834707E0,-1.106977463E-3,-1.203012466E-2,2.129936218E-2,2.448697874E-2
2.098821270E0,5.508989096E-2,-1.455402374E-2,6.643295288E-2,8.752172828E-2
2.103807885E0,1.376783252E-1,-1.063346863E-4,1.181144714E-1,1.814011050E-1
2.108794447E0,1.275736690E-1,2.535820007E-3,1.335954666E-1,1.847409540E-1
2.113781010E0,6.083464622E-2,-4.461479187E-2,1.845035553E-1,1.993311209E-1
2.118734968E0,6.675422192E-3,-6.550502777E-2,1.662092209E-1,1.787763268E-1
2.123721582E0,-8.257597685E-2,-1.128005981E-1,1.957798004E-1,2.405670325E-1
2.128708145E0,-1.092618704E-1,-1.341195107E-1,2.704906464E-1,3.210784783E-1
2.133694760E0,-7.892704010E-2,-1.393933296E-1,2.142944336E-1,2.675482803E-1
2.138681322E0,-2.103108168E-2,-1.333260536E-1,8.524513245E-2,1.596398308E-1
2.143667885E0,3.095734119E-2,-9.212350845E-2,-3.296852112E-2,1.026256360E-1
2.148587155E0,2.732855082E-2,-7.967138290E-2,-2.333459854E-1,2.480820990E-1
2.153573770E0,-2.882075310E-2,-1.707649231E-2,-3.609342575E-1,3.624855592E-1
2.158560332E0,-6.116342545E-2,2.439165115E-2,-4.949140549E-1,4.992753138E-1
2.163546947E0,-2.704256773E-2,8.315372467E-2,-5.498313904E-1,5.567408735E-1
2.168533510E0,4.075706005E-3,1.066164970E-1,-5.310068130E-1,5.416197230E-1
2.173520072E0,-2.943360806E-2,1.212406158E-1,-4.533348083E-1,4.701894009E-1
2.178433718E0,-2.448564768E-2,6.979322433E-2,-3.195714951E-1,3.280191786E-1
2.183420332E0,3.087985516E-2,4.040336609E-2,-4.692649841E-2,6.919605263E-2
2.188406895E0,1.127399206E-1,1.106500626E-2,2.020959854E-1,2.316797604E-1
2.193393510E0,1.234073043E-1,-1.864242554E-2,3.827581406E-1,4.025924701E-1
2.198380072E0,7.067793608E-2,-7.269906998E-2,3.840789795E-1,3.972369418E-1
2.203366635E0,3.568851948E-2,-1.104116440E-1,3.167905807E-1,3.373731963E-1
2.208289864E0,-4.367995262E-2,-1.509008408E-1,2.361078262E-1,2.835946184E-1
2.213276478E0,-1.675245166E-1,-1.701564789E-1,1.135616302E-1,2.644124332E-1
2.218263041E0,-1.555205584E-1,-1.748943329E-1,-2.934455872E-2,2.358723699E-1
2.223249603E0,-1.466163993E-1,-1.294379234E-1,-1.426334381E-1,2.420637152E-1
2.228236218E0,-1.120498180E-1,-5.773878098E-2,-1.530284882E-1,1.982590395E-1
2.233222780E0,-8.493870497E-2,4.584789276E-3,-5.677223206E-2,1.022677380E-1
2.238067364E0,-2.926933765E-2,5.269145966E-2,4.790496826E-2,7.699331160E-2
2.243053978E0,-6.630659103E-3,2.011060715E-2,1.918191910E-1,1.929844662E-1
2.248040541E0,9.491264820E-3,-2.399587631E-2,3.962020874E-1,3.970415347E-1
2.253027155E0,5.187290907E-2,-9.438276291E-2,5.563449860E-1,5.666733169E-1
2.258013718E0,2.484810352E-2,-1.319169998E-1,6.396083832E-1,6.535429649E-1
2.263000280E0,-9.022086859E-2,-1.585340500E-1,6.729106903E-1,6.971955588E-1
2.267987051E0,-1.812064052E-1,-1.626272202E-1,6.377639771E-1,6.826611637E-1
2.272973666E0,-2.388553917E-1,-1.415843964E-1,5.250473022E-1,5.939467224E-1
2.277960228E0,-2.371545136E-1,-9.068298340E-2,3.685655594E-1,4.475558494E-1
2.282946843E0,-8.632838726E-2,2.417087555E-3,1.137180328E-1,1.427943408E-1
2.287933405E0,8.428430557E-2,4.845619202E-3,-1.510295868E-1,1.730238720E-1
2.292919968E0,2.009153962E-1,8.424091339E-2,-4.092473984E-1,4.636237278E-1
2.297835853E0,2.666153908E-1,1.331253052E-1,-5.517597198E-1,6.270924190E-1
2.302822468E0,2.130811810E-1,1.564550400E-1,-6.365365982E-1,6.892464074E-1
2.307809030E0,1.721702218E-1,1.592235565E-1,-6.427087784E-1,6.841559033E-1
2.312795645E0,4.262419939E-1,9.164714813E-2,-4.711122513E-1,6.418942206E-1
2.317782207E0,3.966510296E-1,-5.574893951E-2,-1.919364929E-1,4.441616832E-1
2.322768770E0,1.998196244E-1,-9.256267548E-2,-7.324218750E-4,2.202186814E-1
2.327677312E0,9.998142719E-3,-1.247701645E-1,1.154041290E-1,1.702517835E-1
2.332663926E0,-1.112086773E-1,-1.763358116E-1,1.951913834E-1,2.855895035E-1
2.337650489E0,-2.171090245E-1,-1.995339394E-1,2.484474182E-1,3.855855821E-1
2.342637051E0,-2.202129662E-1,-1.874608994E-1,2.207698822E-1,3.638333137E-1
2.347623666E0,-1.879738867E-1,-1.380600929E-1,1.556100845E-1,2.803734470E-1
2.352610228E0,-1.635246277E-1,-9.651136398E-2,3.274917603E-3,1.899091160E-1
2.357538041E0,-1.232702732E-1,-5.983161926E-2,-1.763582230E-1,2.233329481E-1
2.362524655E0,-1.197946072E-1,-2.788543701E-2,-3.450841904E-1,3.663488009E-1
2.367511218E0,-9.803098440E-2,-1.692628860E-2,-5.150394440E-1,5.245590548E-1
2.372497780E0,-3.351747990E-3,-2.645015717E-3,-5.509948730E-1,5.510114159E-1
2.377484395E0,1.188534498E-1,2.423858643E-2,-4.017400742E-1,4.196531172E-1
2.382470957E0,2.025516033E-1,5.374574661E-2,-7.582378387E-2,2.228564639E-1
2.387384812E0,1.604245305E-1,4.501724243E-2,2.378101349E-1,2.903725923E-1
2.392371426E0,7.894706726E-2,-2.362632751E-2,3.899011612E-1,3.985144392E-1
2.397357989E0,-7.057189941E-2,-9.971189499E-2,4.152240753E-1,4.328208494E-1
2.402344603E0,-1.453581452E-1,-1.617841721E-1,3.932466507E-1,4.493840640E-1
2.407331166E0,-1.696729958E-1,-1.506700516E-1,4.265480042E-1,4.831496557E-1
2.412317728E0,-1.222957969E-1,-1.118755341E-1,3.458747864E-1,3.835384790E-1
2.417210957E0,-5.641746521E-2,-2.150774002E-2,1.401491165E-1,1.526017304E-1
2.422197572E0,2.742844820E-2,8.708667755E-2,-8.994483948E-2,1.281658431E-1
2.427184135E0,7.445764542E-2,1.476650238E-1,-3.087692261E-1,3.502675195E-1
2.432170749E0,7.802891731E-2,1.752777100E-1,-4.406023026E-1,4.805633949E-1
2.437157312E0,4.601299763E-2,1.750521660E-1,-4.957475662E-1,5.277557259E-1
2.442143874E0,1.203948259E-2,1.474180222E-1,-5.319547653E-1,5.521348520E-1
2.447059551E0,8.533328772E-2,1.164860725E-1,-5.351867676E-1,5.543245000E-1
2.452046166E0,7.994538546E-2,5.597066879E-2,-4.201288223E-1,4.313145114E-1
2.457032728E0,-1.042068005E-2,2.270603180E-2,-2.208375931E-1,2.222462530E-1
2.462019343E0,-9.216421843E-2,-4.797554016E-2,5.023384094E-2,1.154094207E-1
2.467005905E0,-1.153761744E-1,-9.698677063E-2,3.167514801E-1,3.507842577E-1
2.471992468E0,-1.283755898E-1,-1.461496353E-1,5.171384811E-1,5.525144493E-1
2.476920593E0,-1.694317758E-1,-1.816992760E-1,6.664400101E-1,7.112411972E-1
2.481907207E0,-1.981180906E-1,-2.087178230E-1,6.891794205E-1,7.468481647E-1
2.486893770E0,-1.957608461E-1,-1.630659103E-1,6.790409088E-1,7.252650246E-1
2.491880385E0,-1.959237158E-1,-1.545319557E-1,6.220035553E-1,6.701900108E-1
2.496866947E0,-1.583533287E-1,-1.017742157E-1,5.444765091E-1,5.760975930E-1
2.501853510E0,-1.480313241E-1,-9.041166306E-2,3.800239563E-1,4.177388528E-1
2.506759499E0,-5.578446388E-2,-1.103549004E-1,1.815433502E-1,2.196544979E-1
2.511746114E0,7.496023178E-2,-7.326889038E-2,9.651660919E-2,1.424879732E-1
2.516732676E0,1.706490517E-1,-3.425121307E-3,6.697559357E-2,1.833536485E-1
2.521719291E0,2.774206400E-1,6.588411331E-2,7.804489136E-2,2.956246487E-1
2.526705853E0,2.717223763E-1,7.298183441E-2,8.895969391E-2,2.950817261E-1
2.531692416E0,1.783086658E-1,4.207992554E-2,-2.404212952E-3,1.832224895E-1
2.536621478E0,7.880866528E-2,1.412439346E-2,-1.359281540E-1,1.577554033E-1
2.541608093E0,3.016513586E-2,-3.700733185E-3,-2.020196915E-1,2.042928941E-1
2.546594655E0,3.930431604E-2,2.425527573E-2,-2.393131256E-1,2.437291935E-1
2.551581270E0,3.219699860E-2,9.479522705E-3,-2.360658646E-1,2.384399306E-1
2.556567832E0,3.774768114E-2,-3.336191177E-2,-2.045392990E-1,2.106519153E-1
2.561554395E0,1.534682512E-2,-5.410528183E-2,-1.901178360E-1,1.982616910E-1
2.566461947E0,1.013547182E-2,-8.138179779E-2,-2.568092346E-1,2.695861788E-1
2.571446166E0,3.115677834E-2,-1.033639908E-1,-3.658580780E-1,3.814537884E-1
2.576430385E0,2.070009708E-2,-5.839872360E-2,-4.075717926E-1,4.122543766E-1
2.581414603E0,-1.646137238E-2,-4.450130463E-2,-4.228506088E-1,4.255043834E-1
2.586398822E0,-4.677528143E-2,-2.115249634E-3,-4.332551956E-1,4.357780006E-1
2.591383041E0,-7.746732235E-2,-2.857923508E-2,-3.890810013E-1,3.977461304E-1
2.596337989E0,-1.534814537E-1,-1.629352570E-2,-3.217344284E-1,3.568404097E-1
2.601322207E0,-1.889526248E-1,-1.404285431E-3,-2.313194275E-1,2.986866987E-1
2.606306426E0,1.311874390E-2,-2.941608429E-3,-9.428119659E-2,9.523496486E-2
2.611290645E0,9.283810854E-2,-1.874876022E-2,1.104860306E-1,1.455252327E-1
2.616274864E0,1.225627661E-1,-3.710842133E-2,2.685203552E-1,2.974926011E-1
2.621259082E0,9.527784586E-2,-5.091667175E-2,4.230127335E-1,4.365892212E-1
2.626187728E0,-5.580782890E-4,-6.998443604E-2,4.719829559E-1,4.771436298E-1
2.631171895E0,-3.408747911E-2,-1.205248833E-1,5.161685944E-1,5.311480222E-1
2.636156166E0,-4.621362686E-2,-8.824586868E-2,5.413541794E-1,5.504428946E-1
2.641140385E0,-4.913419485E-2,-3.066110611E-2,4.169626236E-1,4.209656779E-1
2.646124603E0,-7.390004396E-2,-2.846002579E-2,2.130002975E-1,2.272450579E-1
2.651108822E0,-5.364781618E-2,-4.831314087E-3,8.437347412E-2,1.001015130E-1
2.656035697E0,-1.688891649E-2,2.828454971E-2,-7.652950287E-2,8.331876177E-2
2.661019916E0,6.959199905E-2,2.806329727E-2,-2.219400406E-1,2.342818316E-1
2.666004135E0,1.368849874E-1,7.357645035E-2,-2.833166122E-1,3.231397478E-1
2.670988353E0,1.807961464E-1,8.380508423E-2,-2.733287811E-1,3.382590151E-1
2.675972572E0,2.229307294E-1,4.685878754E-2,-1.425418854E-1,2.687229896E-1
2.680956791E0,1.588000655E-1,-3.857612610E-3,-2.250099182E-2,1.604326545E-1
2.685858093E0,8.615595102E-2,-2.797031403E-2,6.214141846E-3,9.079538492E-2
2.690842260E0,-5.002808571E-2,-8.998441696E-2,1.335525513E-2,1.038189168E-1
2.695826530E0,-1.378962696E-1,-9.475135803E-2,9.898853302E-2,1.944014678E-1
2.700810749E0,-1.326441467E-1,-9.742975235E-2,1.674547195E-1,2.347937593E-1
2.705794968E0,-1.516826749E-1,-1.051101685E-1,1.594982147E-1,2.439169159E-1
2.710779187E0,-1.047316194E-1,-9.875965118E-2,1.280384064E-1,1.926551694E-1
2.715738301E0,-6.337416172E-2,-1.916885376E-4,6.379318237E-2,8.992158381E-2
2.720722520E0,-3.226655722E-2,-1.411581039E-2,-7.826900482E-2,8.582787387E-2
2.725706739E0,-1.845020056E-2,-6.223678589E-3,-2.952909470E-1,2.959322345E-1
2.730690957E0,3.031545877E-2,3.289556503E-2,-4.536485672E-1,4.558488431E-1
2.735675176E0,2.123516798E-2,7.238245010E-2,-5.278425217E-1,5.332052880E-1
2.740659395E0,7.871466875E-2,9.330606461E-2,-4.925107956E-1,5.074139381E-1
2.745590124E0,2.072055936E-1,6.959915161E-2,-3.794221878E-1,4.378805733E-1
2.750574343E0,1.333022714E-1,-1.029729843E-2,-1.916017532E-1,2.336381000E-1
2.755558562E0,7.238698006E-2,-8.910131454E-2,-2.221298218E-2,1.169287634E-1
2.760542780E0,5.735290051E-2,-8.907747269E-2,1.553544998E-1,1.880403466E-1
2.765526999E0,1.662135124E-2,-9.687566757E-2,3.436326981E-1,3.574137595E-1
2.770511218E0,-8.778601885E-2,-1.363139153E-1,4.024486542E-1,4.338810757E-1
2.775439395E0,-1.296920180E-1,-1.476292610E-1,3.375959396E-1,3.906218590E-1
2.780423614E0,-1.880072057E-1,-1.284589767E-1,2.188911438E-1,3.158508365E-1
2.785407832E0,-1.865831316E-1,-1.241531372E-1,8.477210999E-2,2.396113042E-1
2.790392051E0,-1.120675206E-1,-4.380846024E-2,-7.197380066E-2,1.402089097E-1
2.795376270E0,-9.125941992E-2,5.169391632E-3,-2.559509277E-1,2.717827841E-1
2.800360489E0,-6.230431795E-2,3.285789490E-2,-5.145654678E-1,5.193641208E-1
2.805261374E0,-1.065307856E-2,6.611347198E-2,-6.621923447E-1,6.655698165E-1
2.810245645E0,-1.667195559E-2,9.308147430E-2,-6.475706100E-1,6.544385456E-1
2.815229864E0,3.837883472E-3,9.498405457E-2,-5.339393616E-1,5.423356358E-1
2.820214082E0,1.392760277E-1,1.049547195E-1,-1.937389374E-1,2.606685269E-1
2.825198301E0,2.748264670E-1,9.145212173E-2,2.027502060E-1,3.535544139E-1
2.830182520E0,2.702149749E-1,1.601076126E-2,4.914703369E-1,5.610842799E-1
2.835111895E0,1.239470243E-1,-7.187366486E-2,6.975288391E-1,7.120921078E-1
2.840096114E0,-3.980565071E-2,-1.653661728E-1,8.622226715E-1,8.788392323E-1
2.845080332E0,-1.593262553E-1,-1.791048050E-1,9.171190262E-1,9.479296888E-1
2.850064551E0,-2.378249168E-1,-2.300977707E-1,7.894935608E-1,8.560407453E-1
2.855048770E0,-2.735266089E-1,-2.249169350E-1,5.923128128E-1,6.901006460E-1
2.860032989E0,-2.311602235E-1,-1.823415756E-1,3.590831757E-1,4.643535573E-1
2.864961374E0,-4.246056080E-2,-3.790330887E-2,7.792186737E-2,9.649547897E-2
2.869945593E0,4.683190584E-2,1.813459396E-2,-2.225761414E-1,2.281714917E-1
2.874929812E0,1.563493609E-1,1.034569740E-1,-4.831228256E-1,5.182240179E-1
2.879914030E0,2.100896239E-1,1.393575668E-1,-5.686283112E-1,6.220099177E-1
2.884898249E0,2.469488382E-1,1.713271141E-1,-5.304422379E-1,6.096766983E-1
2.889882468E0,2.487019897E-1,1.731352806E-1,-2.816848755E-1,4.137328536E-1
2.894814916E0,2.179263830E-1,1.181454659E-1,-1.064310074E-1,2.697736437E-1
2.899799135E0,9.249842167E-2,3.035593033E-2,4.122257233E-2,1.057201068E-1
2.904783353E0,-7.000392675E-2,-7.610511780E-2,1.403350830E-1,1.743171656E-1
2.909767572E0,-1.432248354E-1,-1.444387436E-1,2.413625717E-1,3.156450461E-1
2.914751791E0,-1.540577412E-1,-2.510576248E-1,3.134460449E-1,4.301303775E-1
2.919736010E0,-1.624824107E-1,-2.198085785E-1,2.332811356E-1,3.593555804E-1
2.924664916E0,-1.519842744E-1,-1.869535446E-1,1.184082031E-1,2.684610774E-1
2.929649135E0,-6.355768442E-2,-1.167044640E-1,2.843761444E-2,1.358977891E-1
2.934633353E0,2.159249783E-2,-6.119680405E-2,-6.556797028E-2,9.225206509E-2
2.939617572E0,6.783002615E-2,1.473426819E-3,-1.780176163E-1,1.905081498E-1
2.944601791E0,1.156284213E-1,4.758310318E-2,-3.087863922E-1,3.331412907E-1
2.949586010E0,1.485967636E-1,2.735471725E-2,-3.650770187E-1,3.951082236E-1
2.954514135E0,1.695812345E-1,7.185602188E-2,-2.215690613E-1,2.881213839E-1
2.959498353E0,1.770986319E-1,1.090555191E-1,5.835914612E-2,2.160157901E-1
2.964482572E0,1.380226612E-1,5.792760849E-2,2.432937622E-1,2.856531420E-1
2.969466791E0,7.351404428E-2,1.866579056E-2,2.178230286E-1,2.306503809E-1
2.974451010E0,-6.404966116E-2,-5.156660080E-2,1.476249695E-1,1.689810789E-1
2.979435228E0,-1.605682969E-1,-1.262159348E-1,3.540897369E-2,2.072834667E-1
2.984382989E0,-1.924616694E-1,-1.098723412E-1,2.387809753E-2,2.228981586E-1
2.989367207E0,-1.648759842E-1,-1.386203766E-1,-4.464435577E-2,2.199836755E-1
2.994351426E0,-1.303356886E-1,-1.502232552E-1,-6.284713745E-2,2.085765586E-1
2.999335645E0,-7.665032148E-2,-4.264879227E-2,-3.118896484E-2,9.309641665E-2
3.004319864E0,-2.331656218E-2,2.272129059E-3,-8.532428741E-2,8.848196802E-2
3.009304082E0,5.771994591E-3,2.018928528E-3,-2.033071518E-1,2.033990904E-1
3.014240489E0,-3.206294775E-2,-7.402896881E-3,-2.610654831E-1,2.631311877E-1
3.019224707E0,-6.036204100E-2,-1.646995544E-2,-2.828197479E-1,2.896581524E-1
3.024208926E0,2.272707224E-2,2.464246750E-2,-2.973346710E-1,2.992184446E-1
3.029193145E0,4.059809446E-2,6.802749634E-2,-2.025413513E-1,2.174832052E-1
3.034177364E0,5.071175098E-2,6.591415405E-2,-1.465091705E-1,1.684674878E-1
3.039161582E0,9.358662367E-2,7.792472839E-2,-6.708621979E-2,1.390369746E-1
3.044089343E0,1.146814227E-1,7.075309753E-2,4.497241974E-2,1.420575519E-1
3.049073562E0,1.219445467E-1,3.494071960E-2,1.894054413E-1,2.279599692E-1
3.054057780E0,5.864572525E-2,-1.747608185E-2,2.756958008E-1,2.824055755E-1
3.059041999E0,-4.376238585E-2,-6.006240845E-2,2.828693390E-1,2.924682927E-1
3.064026218E0,-5.900299549E-2,-3.341722488E-2,2.851791382E-1,2.931300142E-1
3.069010437E0,-7.342731953E-2,-2.340221405E-2,2.706842422E-1,2.814412796E-1
3.073904707E0,-1.347065568E-1,-6.021976471E-3,1.729707718E-1,2.193194213E-1
3.078887103E0,-1.145142317E-1,2.827167511E-2,8.060359955E-2,1.428626513E-1
3.083869447E0,-8.521002531E-2,4.812288284E-2,-6.271362305E-3,9.806064578E-2
3.088851791E0,-1.043792367E-1,-1.068639755E-2,-4.955959320E-2,1.160404129E-1
3.093834187E0,-8.148473501E-2,-4.562139511E-2,1.465320587E-2,9.452930855E-2
3.098816478E0,-1.117142439E-1,-6.649160385E-2,5.960559845E-2,1.430175969E-1
3.103790957E0,-1.351640821E-1,-7.122230530E-2,1.401796341E-1,2.073457877E-1
3.108773249E0,-1.019144058E-1,-9.344959259E-2,2.110509872E-1,2.523130827E-1
3.113755645E0,-8.347177505E-2,-1.020636559E-1,2.746229172E-1,3.046346561E-1
3.118738041E0,-5.334508419E-2,-5.194282532E-2,3.166370392E-1,3.252733769E-1
3.123720385E0,-3.056848049E-2,-1.438236237E-2,2.230205536E-1,2.255647394E-1
3.128702728E0,-3.408902884E-2,-5.552387238E-2,8.029556274E-2,1.034037702E-1
3.133629447E0,-8.664369583E-3,-2.017831802E-2,2.656555176E-2,3.446685885E-2
3.138611791E0,4.101812840E-2,1.990699768E-2,1.110363007E-2,4.692617622E-2
3.143594135E0,4.789376259E-2,4.109001160E-2,-2.109336853E-2,6.653669472E-2
3.148576478E0,4.531580210E-2,8.623075485E-2,-8.884429932E-2,1.318429919E-1
3.153558822E0,7.826036215E-2,7.914400101E-2,-1.989803314E-1,2.279948014E-1
3.158541218E0,5.847078562E-2,7.035827637E-2,-2.253351212E-1,2.431975260E-1
3.163491062E0,7.230907679E-2,5.045080185E-2,-2.304353714E-1,2.467272713E-1
3.168473353E0,8.397948742E-2,5.998420715E-2,-1.741266251E-1,2.024123044E-1
3.173455749E0,1.053349972E-1,8.890485764E-2,-1.137781143E-1,1.787316274E-1
3.178438145E0,7.933372259E-2,4.162788391E-2,5.291175842E-2,1.040498652E-1
3.183420489E0,1.119434834E-2,-2.204656601E-2,2.657718658E-1,2.669195556E-1
3.188402832E0,-3.217107058E-2,-7.651710510E-2,4.914779663E-1,4.984379967E-1
3.193341895E0,-9.406954050E-2,-1.624951363E-1,5.899143219E-1,6.190740303E-1
3.198324239E0,-1.557742059E-1,-2.610039711E-1,6.050710678E-1,6.771260394E-1
3.203306582E0,-1.722195745E-1,-2.319765091E-1,5.995044708E-1,6.654910166E-1
3.208288978E0,-2.057600915E-1,-1.877999306E-1,5.257358551E-1,5.949825363E-1
3.213271270E0,-2.039455473E-1,-1.378207207E-1,3.509397507E-1,4.286572593E-1
3.218253666E0,-1.760637462E-1,-8.397865295E-2,1.493282318E-1,2.456619175E-1
3.223191218E0,-1.412418485E-1,-2.306413651E-2,-7.217216492E-2,1.602811141E-1
3.228173510E0,-6.847560406E-3,4.520082474E-2,-2.826805115E-1,2.863534096E-1
3.233155905E0,1.335662007E-1,9.265184402E-2,-4.420967102E-1,4.710348133E-1
3.238138249E0,1.755857468E-1,1.386699677E-1,-5.580844879E-1,6.012636776E-1
3.243120645E0,1.933705807E-1,1.333413124E-1,-6.761026382E-1,7.157421774E-1
3.248102989E0,1.514930129E-1,1.268520355E-1,-6.796731949E-1,7.078115736E-1
3.253041843E0,7.884395123E-2,9.062290192E-2,-6.219644547E-1,6.334577033E-1
3.258024187E0,-2.936780453E-3,6.746768951E-2,-4.915142059E-1,4.961317652E-1
3.263006530E0,-3.419315815E-2,4.749774933E-3,-3.078193665E-1,3.097490836E-1
3.267988926E0,-6.749087572E-2,-5.951547623E-2,-1.258068085E-1,1.546753480E-1
3.272971218E0,-4.556465149E-2,-8.311176300E-2,1.616868973E-1,1.874202640E-1
3.277953614E0,5.414307117E-3,-1.049156189E-1,3.544664383E-1,3.697067185E-1
3.282892416E0,-5.404949188E-3,-1.037578583E-1,4.296875000E-1,4.420704178E-1
3.287874760E0,-6.840628386E-2,-1.037158966E-1,3.717908859E-1,3.920011094E-1
3.292857103E0,-1.382842660E-1,-1.757979393E-1,2.673044205E-1,3.485385300E-1
3.297839499E0,-1.771381497E-1,-1.458039284E-1,1.046600342E-1,2.521714345E-1
3.302821843E0,-1.760301590E-1,-8.780860901E-2,-4.219627380E-2,2.011901941E-1
3.307804187E0,-1.398810148E-1,-5.845069885E-2,-2.616014481E-1,3.023549241E-1
3.312743093E0,-8.285158873E-2,1.904678345E-2,-3.845672607E-1,3.938516773E-1
3.317725437E0,4.970729351E-2,6.583452225E-2,-4.047584534E-1,4.130791751E-1
3.322707780E0,1.883285046E-1,9.179687500E-2,-3.539800644E-1,4.113346300E-1
3.327690124E0,2.641400099E-1,9.681558609E-2,-2.493133545E-1,3.758993898E-1
3.332672520E0,2.585433722E-1,3.326845169E-2,-8.155727386E-2,2.731355965E-1
3.337654864E0,1.770405173E-1,1.095294952E-3,9.906673431E-2,2.028762241E-1
3.342592364E0,1.105216742E-1,-6.465816498E-2,2.713441849E-1,3.000389732E-1
3.347574707E0,-1.747256517E-2,-1.258974075E-1,4.140834808E-1,4.331519097E-1
3.352557051E0,-1.138435602E-1,-1.590366364E-1,4.088220596E-1,4.531980630E-1
3.357539447E0,-1.857926548E-1,-1.499094963E-1,3.160953522E-1,3.961161942E-1
3.362521791E0,-1.832357049E-1,-1.506905556E-1,2.575416565E-1,3.501580670E-1
3.367504135E0,-1.038584709E-1,-8.264446259E-2,2.113246918E-1,2.495492227E-1
3.372445749E0,-1.510077715E-2,3.031539917E-2,4.650783539E-2,5.753290928E-2
3.377428145E0,6.844723225E-2,4.548501968E-2,-1.457300186E-1,1.673055556E-1
3.382410489E0,8.254462481E-2,4.695129395E-2,-3.129501343E-1,3.270410152E-1
3.387392832E0,7.043504715E-2,4.218196869E-2,-4.079542160E-1,4.161334602E-1
3.392375228E0,-5.099332333E-2,5.014467239E-2,-4.265384674E-1,4.324926258E-1
3.397357572E0,-1.007020473E-3,4.693555832E-2,-4.643030167E-1,4.666703890E-1
3.402291947E0,1.665965915E-1,-1.270389557E-2,-3.736896515E-1,4.093406514E-1
3.407274291E0,1.427011490E-1,-4.071998596E-2,-1.247835159E-1,1.938882694E-1
3.412256635E0,1.287189126E-1,-2.610731125E-2,1.507177353E-1,1.999149466E-1
3.417239030E0,1.079611778E-1,-8.604764938E-2,3.458986282E-1,3.724321078E-1
3.422221374E0,1.865190268E-2,-1.535801888E-1,4.567680359E-1,4.822569921E-1
3.427203718E0,-1.265443563E-1,-2.453880310E-1,4.959459305E-1,5.676188209E-1
3.432142885E0,-2.703088522E-1,-2.897801399E-1,4.781866074E-1,6.210489808E-1
3.437125176E0,-2.654161453E-1,-2.609572411E-1,4.538230896E-1,5.869410605E-1
3.442107572E0,-1.986972690E-1,-1.854262352E-1,3.301563263E-1,4.276291538E-1
3.447089968E0,-8.737128973E-2,-9.168434143E-2,2.337284088E-1,2.658359077E-1
3.452072312E0,1.084327698E-2,-1.027679443E-2,5.245018005E-2,5.453632319E-2
3.457054655E0,8.904057741E-2,3.287887573E-2,-1.227626801E-1,1.551770618E-1
3.461935489E0,1.021408439E-1,8.096790314E-2,-2.920064926E-1,3.197754604E-1
3.466917885E0,1.242179275E-1,7.706212997E-2,-4.102468491E-1,4.355125056E-1
3.471900228E0,1.674820781E-1,1.141743660E-1,-3.520040512E-1,4.061931614E-1
3.476882572E0,2.271237373E-1,1.111497879E-1,-2.493915558E-1,3.551557623E-1
3.481864968E0,1.867488623E-1,6.568670273E-2,-1.786804199E-1,2.666769074E-1
3.486847312E0,8.773940802E-2,-5.509376526E-3,-5.158424377E-2,1.019288534E-1
3.491808145E0,1.140040159E-2,-5.739784241E-2,7.218265533E-2,9.292371710E-2
3.496790541E0,-8.306986094E-2,-1.047973633E-1,2.071170807E-1,2.465371661E-1
3.501772885E0,-2.359266579E-1,-1.213631630E-1,1.962194443E-1,3.299885991E-1
3.506755228E0,-3.398014605E-1,-1.333518028E-1,2.045564651E-1,4.184388645E-1
3.511737624E0,-3.260940313E-1,-1.477842331E-1,1.772480011E-1,3.994926166E-1
3.516719968E0,-2.625105083E-1,-1.285896301E-1,6.452083588E-2,2.993492913E-1
3.521692416E0,-2.282845974E-1,-9.487104416E-2,-9.733963013E-2,2.656866124E-1
3.526674760E0,-1.499495804E-1,-6.809854507E-2,-2.390184402E-1,2.902621286E-1
3.531657103E0,-1.014528871E-1,-3.623294830E-2,-3.108520508E-1,3.289901401E-1
3.536639499E0,-5.401843786E-2,-9.022712708E-3,-3.940925598E-1,3.978798144E-1
3.541621843E0,1.818573475E-2,3.031587601E-2,-4.055366516E-1,4.070746235E-1
3.546604187E0,1.007224321E-1,3.867721558E-2,-3.812961578E-1,3.962672019E-1
3.551542624E0,1.867815852E-1,7.572555542E-2,-2.243089676E-1,3.015563517E-1
3.556524968E0,2.364988923E-1,1.076273918E-1,2.643585205E-2,2.611785516E-1
3.561507312E0,2.340499759E-1,7.714319229E-2,3.393678665E-1,4.194055462E-1
3.566489655E0,1.304278970E-1,3.929424286E-2,5.192070007E-1,5.367787099E-1
3.571471999E0,2.382844687E-2,-3.458499908E-2,6.170606613E-1,6.184882996E-1
3.576454395E0,-5.711996555E-2,-1.204729080E-1,6.478691101E-1,6.614459886E-1
3.581385593E0,-6.992608309E-2,-1.564846039E-1,6.692008972E-1,6.908016569E-1
3.586366478E0,-6.760805845E-2,-1.288461685E-1,6.550502777E-1,6.710164313E-1
3.591347416E0,-5.516982079E-2,-7.133817673E-2,5.748338699E-1,5.818649522E-1
3.596328457E0,-3.537517786E-2,-2.668380737E-2,3.648500443E-1,3.675309287E-1
3.601309395E0,-5.857205391E-2,-1.829910278E-2,1.258697510E-1,1.400311996E-1
3.606290280E0,-9.151983261E-2,-9.865283966E-3,-1.752805710E-1,1.979810146E-1
3.611243405E0,-9.893578291E-2,-4.594516754E-2,-4.456872940E-1,4.588424693E-1
3.616224343E0,-9.308511019E-2,-2.636909485E-4,-6.499595642E-1,6.565914577E-1
3.621205228E0,-9.061962366E-2,3.871154785E-2,-7.554521561E-1,7.618519937E-1
3.626186270E0,-3.924882412E-2,8.314180374E-2,-7.108392715E-1,7.167604200E-1
3.631167155E0,4.466962814E-2,8.522415161E-2,-5.410575867E-1,5.495469441E-1
3.636148145E0,8.773761988E-2,2.849483490E-2,-3.421163559E-1,3.543352177E-1
3.641093197E0,6.173086166E-2,-1.799154282E-2,-2.043657303E-1,2.142422615E-1
3.646074135E0,-4.926198721E-2,-3.077793121E-2,-2.742862701E-2,6.423670301E-2
3.651055020E0,-1.423013210E-1,-4.125070572E-2,2.217292786E-1,2.666742576E-1
3.656036062E0,-1.509280801E-1,-6.396484375E-2,3.715972900E-1,4.061469347E-1
3.661016999E0,-1.188876629E-1,-4.195928574E-2,4.397287369E-1,4.574453192E-1
3.665997937E0,-8.473962545E-2,-4.208517075E-2,3.769159317E-1,3.886098111E-1
3.670946218E0,-3.445762396E-2,-1.869535446E-2,3.313884735E-1,3.336992126E-1
3.675927155E0,-8.517563343E-3,-3.352355957E-2,2.458753586E-1,2.482963348E-1
3.680908145E0,4.808616638E-2,-1.256275177E-2,1.753129959E-1,1.822217020E-1
3.685889135E0,6.131678820E-2,-1.064729691E-2,1.195373535E-1,1.347675493E-1
3.690870072E0,1.410438418E-1,-4.057407379E-3,1.854009628E-1,2.329878643E-1
3.695851010E0,1.300454140E-1,-6.423568726E-2,2.579240799E-1,2.959102300E-1
3.700792572E0,1.003692746E-1,-1.147294044E-1,2.705936432E-1,3.105764757E-1
3.705773510E0,6.120526791E-2,-1.224136353E-1,1.859579086E-1,2.308928901E-1
3.710754447E0,-4.433292150E-2,-1.494927406E-1,9.513759613E-2,1.826599289E-1
3.715735437E0,-1.038981676E-1,-1.457571983E-1,2.184963226E-2,1.803258066E-1
3.720716374E0,-1.127965450E-1,-6.843614578E-2,-2.707958221E-2,1.346843361E-1
3.725697312E0,-5.451846123E-2,-1.070594788E-2,-8.992671967E-2,1.057056992E-1
3.730642832E0,-3.697317839E-2,-1.031398773E-2,-2.544841766E-1,2.573627604E-1
3.735623770E0,-3.662353754E-2,-9.579181671E-3,-4.463138580E-1,4.479164030E-1
3.740604707E0,-3.486371040E-2,2.262353897E-2,-6.533927917E-1,6.547132526E-1
3.745585697E0,-1.274627447E-2,2.929925919E-2,-8.020849228E-1,8.027210832E-1
3.750566635E0,1.497268677E-3,3.468561172E-2,-8.194007874E-1,8.201359545E-1
3.755547572E0,6.567025185E-2,4.363155365E-2,-7.706737518E-1,7.746962800E-1
3.760492312E0,9.168684483E-2,4.901170731E-2,-6.279792786E-1,6.365269824E-1
3.765473197E0,1.087136269E-1,2.923011780E-2,-3.492460251E-1,3.669411921E-1
3.770454187E0,1.858927608E-1,1.484584808E-2,2.901077271E-2,1.887276944E-1
3.775435176E0,1.780011654E-1,-7.099580765E-2,3.804321289E-1,4.259735019E-1
3.780416114E0,4.976910353E-2,-1.357207298E-1,6.509580612E-1,6.668159249E-1
3.785396999E0,-1.174933910E-1,-2.012233734E-1,8.343353271E-1,8.662626513E-1
3.790342989E0,-1.598386765E-1,-2.369346619E-1,8.625755310E-1,9.086930082E-1
3.795323874E0,-1.831770539E-1,-2.123422623E-1,8.225736618E-1,8.690630003E-1
3.800304864E0,-1.928284168E-1,-1.774158478E-1,6.838417053E-1,7.323241491E-1
3.805285801E0,-1.770781875E-1,-1.413316727E-1,4.683856964E-1,5.203042252E-1
3.810266791E0,-1.266175508E-1,-6.080150604E-2,2.383451462E-1,2.766536391E-1
3.815247728E0,-3.195875883E-2,2.394962311E-2,1.494407654E-2,4.264120234E-2
3.820193197E0,7.817357779E-2,6.598567963E-2,-2.924518585E-1,3.098278679E-1
3.825174135E0,1.065295339E-1,1.159515381E-1,-5.051946640E-1,5.291643878E-1
3.830155020E0,1.373469830E-1,1.337952614E-1,-5.791654587E-1,6.100803178E-1
3.835136062E0,1.496230960E-1,1.956086159E-1,-4.513177872E-1,5.141376727E-1
3.840116999E0,1.152175665E-1,1.772732735E-1,-2.728986740E-1,3.452167252E-1
3.845097937E0,2.038419247E-2,1.692695618E-1,-1.798629761E-2,1.714386384E-1
3.850044812E0,-7.781451941E-2,9.222888947E-2,2.372379303E-1,2.661636772E-1
3.855025749E0,-1.558963656E-1,-2.536869049E-2,4.550809860E-1,4.817114812E-1
3.860006687E0,-2.074726224E-1,-1.004161835E-1,5.339288712E-1,5.815568230E-1
3.864987676E0,-2.852831781E-1,-1.310768127E-1,5.558185577E-1,6.383587484E-1
3.869968562E0,-2.802079916E-1,-1.367125511E-1,4.618558884E-1,5.572411523E-1
3.874949499E0,-2.236121297E-1,-1.100487709E-1,3.620910645E-1,4.395714452E-1
3.879896322E0,-1.633617580E-1,-8.166742325E-2,1.446409225E-1,2.329755963E-1
3.884877312E0,-9.694141150E-2,8.113384247E-3,-1.112842560E-1,1.478095054E-1
3.889858197E0,-1.715075970E-2,8.321571350E-2,-3.390760422E-1,3.495591022E-1
3.894839239E0,4.054474831E-2,8.025789261E-2,-5.060453415E-1,5.139718802E-1
3.899820124E0,9.314703941E-2,1.142969131E-1,-6.437797546E-1,6.604487321E-1
3.904801062E0,1.719074845E-1,1.350355148E-1,-6.289739609E-1,6.658791309E-1
3.909744082E0,2.317796946E-1,1.305041313E-1,-4.485683441E-1,5.215042804E-1
3.914725020E0,1.783859730E-1,6.280994415E-2,-1.538209915E-1,2.437776484E-1
3.919705957E0,3.160876036E-2,-1.600742340E-2,1.311616898E-1,1.358629464E-1
3.924686947E0,-8.224284649E-2,-1.018915176E-1,3.664903641E-1,3.891798480E-1
3.929667885E0,-1.380602121E-1,-1.121077538E-1,5.386133194E-1,5.672151959E-1
3.934648822E0,-1.655552089E-1,-1.425194740E-1,5.721950531E-1,6.124765354E-1
3.939591062E0,-2.174958587E-1,-1.453061104E-1,5.277271271E-1,5.889942571E-1
3.944572051E0,-1.676146388E-1,-1.538414955E-1,3.559064865E-1,4.224112925E-1
3.949552989E0,-1.191784143E-1,-1.436157227E-1,9.310150146E-2,2.085590080E-1
3.954533926E0,-1.730465889E-2,-7.160997391E-2,-1.199941635E-1,1.408049675E-1
3.959514916E0,6.913495064E-2,9.692668915E-3,-2.839698792E-1,2.924251725E-1
3.964495853E0,1.096937060E-1,8.145570755E-2,-4.183826447E-1,4.401270030E-1
3.969415593E0,9.545654058E-2,1.156272888E-1,-5.616893768E-1,5.813575295E-1
3.974396530E0,9.091484547E-2,1.388311386E-1,-6.093702316E-1,6.315628816E-1
3.979377468E0,1.007799506E-1,1.511616707E-1,-5.408496857E-1,5.705478346E-1
3.984358457E0,1.037854552E-1,1.476316452E-1,-3.902101517E-1,4.299191620E-1
3.989339395E0,7.376521826E-2,7.793855667E-2,-1.246023178E-1,1.644428887E-1
3.994320332E0,6.588822603E-2,1.114845276E-2,1.530342102E-1,1.669880709E-1
3.999293770E0,5.367624760E-2,-1.540136337E-2,4.120454788E-1,4.158122391E-1
4.004274707E0,-1.744800806E-2,-7.629346848E-2,5.744905472E-1,5.797969603E-1
4.009255645E0,-7.584291697E-2,-1.237244606E-1,5.722875595E-1,5.904006614E-1
4.014236635E0,-1.027264595E-1,-1.410355568E-1,4.613828659E-1,4.932726454E-1
4.019217572E0,-1.248640418E-1,-1.614794731E-1,2.948503494E-1,3.586131310E-1
4.024198510E0,-1.517506838E-1,-1.369581223E-1,9.662818909E-2,2.261035254E-1
4.029145385E0,-1.977873445E-1,-1.049809456E-1,-1.310577393E-1,2.594551283E-1
4.034126322E0,-1.704019904E-1,-4.632472992E-2,-3.144397736E-1,3.606316544E-1
4.039107260E0,-1.104522347E-1,-3.868103027E-3,-4.040641785E-1,4.189063364E-1
4.044088249E0,-3.933465481E-2,5.109882355E-2,-4.197683334E-1,4.246925460E-1
4.049069187E0,3.836202621E-2,5.193996429E-2,-3.788070679E-1,3.842709976E-1
4.054050124E0,1.013436317E-1,2.239227295E-2,-1.911640167E-1,2.175215550E-1
4.058992103E0,1.404896975E-1,-4.034471512E-2,1.161231995E-1,1.866806058E-1
4.063973041E0,2.783018351E-2,-1.054162979E-1,3.165206909E-1,3.347722551E-1
4.068953978E0,-1.359905005E-1,-1.280927658E-1,3.826503754E-1,4.258197772E-1
4.073934968E0,-1.845163703E-1,-9.708690643E-2,4.369201660E-1,4.841191896E-1
4.078915905E0,-1.331710219E-1,-6.495809555E-2,5.054998398E-1,5.267676559E-1
4.083896843E0,-4.692733288E-2,-3.139543533E-2,4.170761108E-1,4.208804226E-1
4.088844291E0,7.273674011E-3,1.655101776E-3,1.917543411E-1,1.918993826E-1
4.093824082E0,7.729268074E-2,3.947257996E-2,-1.992702484E-2,8.904678199E-2
4.098803874E0,1.515238285E-1,7.989168167E-2,-1.422176361E-1,2.226387375E-1
4.103783614E0,1.591573358E-1,7.314157486E-2,-1.854686737E-1,2.551065982E-1
4.108763405E0,2.149612308E-1,7.187652588E-2,-2.049894333E-1,3.056063374E-1
4.113743197E0,2.041112185E-1,4.750823975E-2,-2.128105164E-1,2.986749709E-1
4.118696010E0,1.387798190E-1,1.903867722E-2,-2.397947311E-1,2.777117615E-1
4.123675801E0,8.799272776E-2,3.025054932E-3,-1.978120804E-1,2.165213390E-1
4.128655593E0,3.008431196E-2,1.796054840E-2,-4.921627045E-2,6.041430627E-2
4.133635332E0,-2.519685030E-2,-1.969575882E-2,6.975269318E-2,7.673488376E-2
4.138615124E0,-8.229297400E-2,-7.654666901E-2,1.713428497E-1,2.049143681E-1
4.143594916E0,-1.268190145E-1,-1.476392746E-1,2.556676865E-1,3.213197531E-1
4.148544812E0,-1.563889384E-1,-1.830596924E-1,2.706470490E-1,3.622404949E-1
4.153524603E0,-1.543794274E-1,-2.210426331E-1,2.785768509E-1,3.876827506E-1
4.158504395E0,-1.281841397E-1,-1.927394867E-1,2.581691742E-1,3.467434295E-1
4.163484135E0,-1.308283806E-1,-1.295838356E-1,1.645660400E-1,2.469615702E-1
4.168463926E0,-6.973212957E-2,-9.340667725E-2,5.530548096E-2,1.290196631E-1
4.173443718E0,-1.914137602E-2,-6.933259964E-2,-7.205009460E-2,1.018067669E-1
4.178395228E0,-1.939797401E-2,-5.715847015E-2,-2.173957825E-1,2.256198093E-1
4.183375020E0,1.531827450E-2,1.257371902E-2,-3.309144974E-1,3.315073944E-1
4.188354812E0,1.669049263E-3,3.748369217E-2,-4.747676849E-1,4.762480106E-1
4.193334551E0,3.759574890E-2,5.632734299E-2,-5.087404251E-1,5.132280488E-1
4.198314343E0,1.349616647E-1,1.258964539E-1,-4.003858566E-1,4.408779902E-1
4.203294135E0,1.868462563E-1,1.149301529E-1,-1.627149582E-1,2.731238202E-1
4.208248874E0,1.871342063E-1,7.816171646E-2,1.345396042E-1,2.433708491E-1
4.213228666E0,1.125207543E-1,-8.548736572E-3,3.747739792E-1,3.913943491E-1
4.218208457E0,-3.175413609E-2,-1.404523849E-1,5.016670227E-1,5.219243233E-1
4.223188197E0,-1.508557796E-1,-1.961283684E-1,4.996442795E-1,5.575555660E-1
4.228167989E0,-1.958309114E-1,-2.098336220E-1,3.747663498E-1,4.720484209E-1
4.233147780E0,-2.768063247E-1,-2.124743462E-1,2.585668564E-1,4.343085406E-1
4.238027624E0,-2.766425014E-1,-1.775503159E-1,1.863479614E-1,3.778634025E-1
4.243007416E0,-2.219507098E-1,-9.537267685E-2,3.395462036E-2,2.439487268E-1
4.247987207E0,-1.439820528E-1,-3.487539291E-2,-1.648674011E-1,2.216492376E-1
4.252966947E0,-3.569126129E-2,4.474925995E-2,-3.409671783E-1,3.457383102E-1
4.257946739E0,4.777264595E-2,5.794620514E-2,-4.589433670E-1,4.650473121E-1
4.262926530E0,1.184466481E-1,6.012487411E-2,-5.241365433E-1,5.407066903E-1
4.267948197E0,1.478332877E-1,6.330585480E-2,-5.607595444E-1,5.833640191E-1
4.272927989E0,1.649571061E-1,4.572153091E-2,-4.168415070E-1,4.506197368E-1
4.277907780E0,1.698712111E-1,2.858161926E-2,-1.911115646E-1,2.572873247E-1
4.282887520E0,1.342883706E-1,-2.183055878E-2,4.315376282E-3,1.361196615E-1
4.287867312E0,6.320536137E-2,-8.421087265E-2,1.318626404E-1,1.687428360E-1
4.292847103E0,-4.783165455E-2,-7.800436020E-2,1.779966354E-1,2.001383262E-1
4.297796999E0,-1.437023878E-1,-8.923339844E-2,2.383718491E-1,2.922911461E-1
4.302776791E0,-1.410770416E-1,-1.531062126E-1,2.176876068E-1,3.012177587E-1
4.307756582E0,-7.141780853E-2,-9.530925751E-2,1.116218567E-1,1.632292769E-1
4.312736322E0,-6.317019463E-3,-2.334928513E-2,-9.365081787E-4,2.420683578E-2
4.317716114E0,6.588131189E-2,4.362678528E-2,-9.614849091E-2,1.244515004E-1
4.322695905E0,7.608538866E-2,1.059265137E-1,-1.077604294E-1,1.691795579E-1
4.327645332E0,-1.513063908E-3,1.065812111E-1,-1.314811707E-1,1.692605747E-1
4.332625124E0,-3.595221043E-2,9.355735779E-2,-1.220121384E-1,1.579002930E-1
4.337604916E0,-8.760929108E-3,4.044580460E-2,-5.091762543E-2,6.561418724E-2
4.342584655E0,-6.251931190E-3,-3.117370605E-2,4.811668396E-2,5.767236659E-2
4.347564447E0,-3.788381815E-2,-1.025533676E-1,1.465654373E-1,1.828491299E-1
4.352544239E0,-5.790233612E-3,-1.621570587E-1,2.635908127E-1,3.095295705E-1
4.357497260E0,4.476982355E-2,-1.367216110E-1,3.848915100E-1,4.108997572E-1
4.362477051E0,4.983413219E-2,-1.149439812E-1,4.439382553E-1,4.612772854E-1
4.367456843E0,2.422928810E-4,-1.155667305E-1,3.556184769E-1,3.739254324E-1
4.372436582E0,-5.361592770E-2,-1.475701332E-1,1.898841858E-1,2.463891555E-1
4.377416374E0,-2.609384060E-2,-1.222510338E-1,-1.251029968E-2,1.256292616E-1
4.382396166E0,2.055376768E-2,-4.451036453E-2,-2.086763382E-1,2.143582143E-1
4.387350541E0,7.440769672E-2,2.874994278E-2,-3.229246140E-1,3.326309830E-1
4.392330332E0,6.672090292E-2,2.647781372E-2,-3.726673126E-1,3.795176931E-1
4.397310124E0,4.283982515E-2,-3.141880035E-3,-4.297113419E-1,4.318529372E-1
4.402289864E0,7.155597210E-2,-1.958990097E-2,-4.582948685E-1,4.642609265E-1
4.407269655E0,8.351725340E-2,-8.739328384E-2,-3.516197205E-1,3.718186998E-1
4.412249447E0,6.933897734E-2,-1.068091393E-1,-1.723499298E-1,2.142908871E-1
4.417195645E0,3.883105516E-2,-1.544008255E-1,1.245784760E-2,1.596955345E-1
4.422175437E0,8.379161358E-3,-1.901197433E-1,1.816854477E-1,2.631070677E-1
4.427155228E0,-2.433025837E-2,-2.119126320E-1,3.474445343E-1,4.076967372E-1
4.432134968E0,-1.022474766E-1,-2.346138954E-1,4.363651276E-1,5.058781977E-1
4.437114760E0,-1.136261225E-1,-2.369780540E-1,4.040393829E-1,4.819930671E-1
4.442094551E0,-7.558280230E-2,-2.021884918E-1,3.581972122E-1,4.182083082E-1
4.447049916E0,-5.012524128E-2,-1.398296356E-1,2.679452896E-1,3.063650519E-1
4.452029707E0,-8.663034439E-2,-3.777027130E-2,1.571445465E-1,1.833734399E-1
4.457009499E0,-7.739233971E-2,2.333211899E-2,4.348754883E-3,8.094982206E-2
4.461989239E0,-2.288597822E-2,8.714008331E-2,-2.141113281E-1,2.322946899E-1
4.466969030E0,4.574334621E-2,1.514730453E-1,-3.457698822E-1,3.802543210E-1
4.471948822E0,1.162647009E-1,1.641497612E-1,-4.175033569E-1,4.634346532E-1
4.476860176E0,1.553137302E-1,1.515812874E-1,-3.679695129E-1,4.272011282E-1
4.481839968E0,1.372707486E-1,1.349844933E-1,-2.288951874E-1,2.990937623E-1
4.486819760E0,9.366410971E-2,8.576154709E-2,-2.948570251E-2,1.303741349E-1
4.491799499E0,5.060756207E-2,4.626464844E-2,1.612119675E-1,1.751880175E-1
4.496779291E0,3.413826227E-2,-2.679300308E-2,4.218883514E-1,4.241144504E-1
4.501759082E0,3.192770481E-2,-4.093313217E-2,6.025352478E-1,6.047674135E-1
4.506747207E0,-3.684371710E-2,-4.939556122E-2,7.087965012E-1,7.114702109E-1
4.511726999E0,-1.006344557E-1,-7.359743118E-2,6.914234161E-1,7.025739932E-1
4.516706791E0,-1.593464017E-1,-8.695650101E-2,5.726594925E-1,6.007425431E-1
4.521686530E0,-1.296694279E-1,-5.603456497E-2,3.864603043E-1,4.114676169E-1
4.526666322E0,-3.836107254E-2,-2.794504166E-2,2.114028931E-1,2.166649036E-1
4.531646114E0,3.811764717E-2,4.540681839E-2,4.949474335E-2,7.722994109E-2
4.536598093E0,9.038490057E-2,1.140923500E-1,-1.850538254E-1,2.354387667E-1
4.541577885E0,9.982812405E-2,1.569266319E-1,-3.563251495E-1,4.019443175E-1
4.546557676E0,5.014801025E-2,1.528401375E-1,-4.387588501E-1,4.673160163E-1
4.551537416E0,-2.729916573E-2,7.141351700E-2,-4.782648087E-1,4.843370335E-1
4.556517207E0,-6.341451406E-2,2.717876434E-2,-5.440216064E-1,5.483790606E-1
4.561496999E0,-8.306825161E-2,-4.467058182E-2,-4.930458069E-1,5.019860187E-1
4.566449135E0,-7.449823618E-2,-8.955192566E-2,-3.523073196E-1,3.710660077E-1
4.571428926E0,-8.296942711E-2,-1.341090202E-1,-1.200437546E-1,1.981909639E-1
4.576408718E0,-1.057578921E-1,-1.525111198E-1,7.245349884E-2,1.992332375E-1
4.581388457E0,-5.473428965E-2,-1.714448929E-1,2.161693573E-1,2.812799047E-1
4.586368249E0,-3.301405907E-2,-1.980834007E-1,2.426710129E-1,3.149860032E-1
4.591348041E0,-7.077574730E-3,-2.227449417E-1,2.360200882E-1,3.246088156E-1
4.596299968E0,-1.503652334E-2,-1.647295952E-1,1.513881683E-1,2.242327230E-1
4.601278822E0,2.188909054E-2,-1.027173996E-1,4.386138916E-2,1.138148405E-1
4.606257624E0,6.788468361E-2,-3.151702881E-2,-1.198711395E-1,1.413178809E-1
4.611236478E0,9.455609322E-2,-1.250028610E-2,-2.683153152E-1,2.847634462E-1
4.616215280E0,1.117073298E-1,-2.238750458E-3,-3.304548264E-1,3.488322402E-1
4.621194135E0,1.076819897E-1,1.621007919E-2,-3.213891983E-1,3.393364029E-1
4.626148978E0,8.286857605E-2,4.737854004E-2,-2.559099197E-1,2.731333264E-1
4.631127780E0,8.485668898E-2,7.428455353E-2,-1.533641815E-1,1.903665536E-1
4.636106635E0,1.062536240E-1,8.475923538E-2,-6.770133972E-3,1.360874546E-1
4.641085489E0,7.810401917E-2,5.449724197E-2,2.384643555E-1,2.567789634E-1
4.646064291E0,4.826450348E-2,-4.498624802E-2,4.819040298E-1,4.863997520E-1
4.651043145E0,-6.403696537E-2,-1.518950462E-1,6.763162613E-1,6.961153089E-1
4.655998666E0,-1.730174124E-1,-2.070364952E-1,7.604999542E-1,8.069444316E-1
4.660977520E0,-2.721430063E-1,-2.417654991E-1,6.855468750E-1,7.762002901E-1
4.665956322E0,-2.524479032E-1,-2.560858727E-1,5.572443008E-1,6.631976544E-1
4.670935176E0,-2.314901054E-1,-2.070846558E-1,3.925209045E-1,5.005440880E-1
4.675913978E0,-1.928239167E-1,-1.160817146E-1,1.439018250E-1,2.671399681E-1
4.680892832E0,-7.684051991E-2,-2.089738846E-2,-6.942176819E-2,1.056434960E-1
4.685806478E0,1.648628712E-2,1.498889923E-2,-2.837409973E-1,2.846145083E-1
4.690785280E0,1.018366218E-1,9.926033020E-2,-4.136886597E-1,4.374489888E-1
4.695764135E0,1.413733959E-1,1.771039963E-1,-4.078207016E-1,4.665511625E-1
4.700742989E0,1.431859732E-1,2.245569229E-1,-3.930921555E-1,4.748152032E-1
4.705721791E0,8.842277527E-2,1.657238007E-1,-4.098882675E-1,4.508784283E-1
4.710700645E0,5.327492952E-2,1.366920471E-1,-3.437995911E-1,3.737928473E-1
4.715699239E0,5.907648802E-2,1.085519791E-1,-1.099300385E-1,1.654030742E-1
4.720678093E0,5.104845762E-2,4.504585266E-2,1.742019653E-1,1.870331484E-1
4.725656895E0,-6.184220314E-3,-1.856565475E-2,4.443492889E-1,4.447799666E-1
4.730635749E0,-6.718397141E-2,-1.136012077E-1,6.842155457E-1,6.968284102E-1
4.735614551E0,-8.959978819E-2,-2.236704826E-1,7.945518494E-1,8.302826315E-1
4.740593405E0,-1.428799629E-1,-2.751579285E-1,8.026571274E-1,8.604562938E-1
4.745547832E0,-1.935786903E-1,-3.186490536E-1,7.855072021E-1,8.695007150E-1
4.750526687E0,-1.844247580E-1,-2.945005894E-1,7.146301270E-1,7.946315541E-1
4.755505489E0,-1.373280883E-1,-2.478489876E-1,4.690551758E-1,5.479971555E-1
4.760484343E0,-1.072269082E-1,-2.092685699E-1,1.711559296E-1,2.908355144E-1
4.765463145E0,-2.001494169E-2,-1.803808212E-1,-1.552286148E-1,2.388174228E-1
4.770441999E0,7.396179438E-2,-1.344785690E-1,-3.176794052E-1,3.528101998E-1
4.775400072E0,1.508552432E-1,-1.426906586E-1,-4.911098480E-1,5.332042866E-1
4.780378926E0,1.746947169E-1,-1.715345383E-1,-6.681575775E-1,7.116016374E-1
4.785357728E0,1.408125162E-1,-1.995830536E-1,-8.225774765E-1,8.580764913E-1
4.790336582E0,9.967499971E-2,-2.482099533E-1,-8.975582123E-1,9.365650169E-1
4.795315385E0,9.415405989E-2,-3.033056259E-1,-8.912401199E-1,9.461333104E-1
4.800294239E0,6.717860699E-2,-3.743984699E-1,-8.351612091E-1,9.177044321E-1
4.805251322E0,8.800870180E-2,-4.188990593E-1,-7.818660736E-1,8.913677751E-1
4.810230176E0,1.040354967E-1,-4.254329205E-1,-7.145709991E-1,8.381099374E-1
4.815208978E0,1.226785779E-1,-4.586951733E-1,-6.998100281E-1,8.456863312E-1
4.820187832E0,1.352075934E-1,-4.808740616E-1,-5.730895996E-1,7.602319683E-1
4.825166635E0,1.328455210E-1,-5.065038204E-1,-2.735357285E-1,5.907756319E-1
4.830145489E0,-2.280730009E-2,-5.277462006E-1,-4.442567825E-1,6.902175845E-1
4.835100749E0,-1.962982416E-1,-5.654459000E-1,-9.342350960E-1,1.109530207E0
4.840079603E0,-1.379631758E-1,-5.171108246E-1,-1.082889557E0,1.207926834E0
4.845058405E0,-4.476165771E-2,-4.424073696E-1,-1.156948566E0,1.239458701E0
4.850037260E0,-4.796683788E-2,-3.697133064E-1,-1.439869404E0,1.487350882E0
4.855016062E0,-9.728384018E-2,-3.435549736E-1,-1.773390293E0,1.808979629E0
4.859994916E0,-7.405775785E-2,-3.107800484E-1,-2.038525105E0,2.063408198E0
4.864949082E0,-1.196044683E-2,-2.858138084E-1,-2.086145401E0,2.105667405E0
4.869927937E0,6.783735752E-2,-2.900118828E-1,-1.918083668E0,1.941070260E0
4.874906739E0,8.250701427E-2,-3.093628883E-1,-1.659461498E0,1.690066646E0
4.879885593E0,7.791084051E-2,-3.653528690E-1,-1.413077354E0,1.461622533E0
4.884864395E0,8.532285690E-2,-3.965835571E-1,-1.009852886E0,1.088283676E0
4.889843249E0,3.362786770E-2,-4.491314888E-1,-6.645488739E-1,8.027920861E-1
4.894798041E0,-3.156512976E-2,-4.878861904E-1,-3.763399124E-1,6.169773269E-1
4.899776895E0,-9.859246016E-2,-5.273809433E-1,-1.731529236E-1,5.637668556E-1
4.904755697E0,-1.767970622E-1,-5.557880402E-1,-1.160287857E-1,5.946597564E-1
4.909734551E0,-2.161531150E-1,-5.398507118E-1,-1.705427170E-1,6.060080680E-1
4.914713353E0,-1.837943196E-1,-5.150184631E-1,-2.813930511E-1,6.149848929E-1
4.919692207E0,-9.928041697E-2,-4.429180622E-1,-3.984403610E-1,6.039765991E-1
4.924650801E0,-4.388636351E-2,-4.068362713E-1,-5.763874054E-1,7.068692988E-1
4.929629603E0,5.843859911E-2,-3.848614693E-1,-6.984205246E-1,7.995777946E-1
4.934608457E0,1.288636923E-1,-4.263632298E-1,-7.889509201E-1,9.059994532E-1
4.939587312E0,1.485366821E-1,-3.932597637E-1,-8.576235771E-1,9.551097255E-1
4.944566114E0,1.056827903E-1,-4.003357887E-1,-8.688974380E-1,9.625073266E-1
4.949544968E0,1.005960703E-1,-3.950872421E-1,-8.422079086E-1,9.356963501E-1
4.954500749E0,9.999197721E-2,-4.063127041E-1,-6.732759476E-1,7.927098527E-1
4.959479603E0,7.825714350E-2,-4.033908844E-1,-4.367809296E-1,5.996882245E-1
4.964458405E0,6.678062677E-2,-4.415001869E-1,-3.587827682E-1,5.728063739E-1
4.969437260E0,1.552134752E-2,-4.678573608E-1,-2.883844376E-1,5.498154292E-1
4.974416062E0,-2.304047346E-2,-4.542326927E-1,-2.753152847E-1,5.316546892E-1
4.979394916E0,-5.590885878E-2,-4.318871498E-1,-2.430782318E-1,4.987377442E-1
4.984340905E0,-9.266233444E-2,-3.887095451E-1,-2.181062698E-1,4.552491226E-1
4.989319760E0,-9.303677082E-2,-3.128035069E-1,-3.500804901E-1,4.786002760E-1
4.994298562E0,-1.431338787E-1,-3.276605606E-1,-4.762821198E-1,5.955614224E-1
4.999277416E0,-1.622228026E-1,-3.394091129E-1,-6.016988754E-1,7.096170237E-1
5.004256218E0,-9.584194422E-2,-2.980344296E-1,-6.551504135E-1,7.261076117E-1
5.009235072E0,-9.161651134E-3,-2.517185211E-1,-5.919704437E-1,6.433312957E-1
5.014199812E0,8.581036329E-2,-2.388610840E-1,-5.198631287E-1,5.785116321E-1
5.019178666E0,1.346015930E-1,-2.402739525E-1,-3.913650513E-1,4.785559157E-1
5.024157468E0,1.354730725E-1,-3.038101196E-1,-1.877422333E-1,3.819694861E-1
5.029136322E0,1.270577312E-1,-3.960199356E-1,-1.163291931E-2,4.160658376E-1
5.034115124E0,8.077305555E-2,-4.126241207E-1,1.136760712E-1,4.355516050E-1
5.039093978E0,1.600617170E-2,-4.425151348E-1,1.935281754E-1,4.832483800E-1
5.044049760E0,-9.548151493E-2,-4.499843121E-1,1.166553497E-1,4.745640857E-1
5.049028562E0,-1.083394289E-1,-4.636802673E-1,-6.102180481E-2,4.800629988E-1
5.054007416E0,-1.181608438E-1,-4.569990635E-1,-3.103742599E-1,5.649268185E-1
5.058986270E0,-1.011092663E-1,-4.104838371E-1,-5.835952759E-1,7.206271646E-1
5.063965072E0,-3.395390511E-2,-3.382737637E-1,-9.471864700E-1,1.006351934E0
5.068943926E0,3.734248877E-2,-3.089275360E-1,-1.322228432E0,1.358351468E0
5.073901791E0,5.788981915E-2,-2.336964607E-1,-1.630452633E0,1.648132596E0
5.078880645E0,9.022784233E-2,-2.246527672E-1,-1.784530640E0,1.800877434E0
5.083859447E0,1.609258652E-1,-2.265460491E-1,-1.614778519E0,1.638514544E0
5.088838301E0,1.220529079E-1,-2.484831810E-1,-1.501728535E0,1.527032873E0
5.093817103E0,-9.546756744E-2,-2.448334694E-1,-1.699166775E0,1.719367678E0
5.098795957E0,-1.818584502E-1,-2.299585342E-1,-1.691401005E0,1.716621910E0
5.103750385E0,-1.187371612E-1,-2.257809639E-1,-1.396817684E0,1.419920843E0
5.108728457E0,-9.980642796E-2,-2.680127621E-1,-9.573683739E-1,9.991728414E-1
5.113706530E0,-9.950339794E-2,-3.223989010E-1,-5.183887482E-1,6.185215209E-1
5.118684603E0,-5.570942163E-2,-3.990275860E-1,-1.681375504E-1,4.365739226E-1
5.123662624E0,-9.320020676E-3,-4.568061829E-1,9.307289124E-2,4.662845854E-1
5.128640697E0,-1.088219881E-2,-4.396378994E-1,2.008152008E-1,4.834528413E-1
5.133599082E0,-6.292563677E-2,-4.169251919E-1,1.064653397E-1,4.348805812E-1
5.138577155E0,-1.105685234E-1,-3.620841503E-1,-8.161735535E-2,3.872876489E-1
5.143555228E0,-1.015810966E-1,-2.699894905E-1,-3.249483109E-1,4.345163391E-1
5.148533249E0,-6.236678362E-2,-1.879324913E-1,-5.758185387E-1,6.089131518E-1
5.153511322E0,7.133811712E-2,-1.201045513E-1,-7.702808380E-1,7.828453229E-1
5.158489395E0,2.611367106E-1,-2.086305618E-2,-8.330001831E-1,8.732221675E-1
5.163452572E0,3.266932964E-1,5.035114288E-2,-7.747268677E-1,8.422977306E-1
5.168430645E0,3.145067692E-1,5.084657669E-2,-6.296749115E-1,7.056843320E-1
5.173408666E0,2.418628931E-1,3.070926666E-2,-3.461208344E-1,4.233678662E-1
5.178386791E0,1.160621643E-1,-1.735353470E-2,-7.944297791E-2,1.417136475E-1
5.183364812E0,-4.159903526E-2,-5.323410034E-2,8.288669586E-2,1.069324718E-1
5.188342885E0,-1.317080855E-1,-9.173393250E-2,2.156381607E-1,2.688158301E-1
5.193302780E0,-2.074503005E-1,-9.025573730E-2,3.144178391E-1,3.873503618E-1
5.198280853E0,-2.309434116E-1,-1.299142838E-1,4.008960724E-1,4.805520173E-1
5.203258874E0,-2.498756051E-1,-1.198978424E-1,4.821872711E-1,5.561635327E-1
5.208236999E0,-1.856103241E-1,-1.246495247E-1,4.893703461E-1,5.380260515E-1
5.213215020E0,-8.394247293E-2,-1.038234234E-1,4.445152283E-1,4.641329876E-1
5.218193093E0,1.404017210E-2,-7.666087151E-2,3.480958939E-1,3.567138447E-1
5.223151530E0,6.068289280E-2,-8.341145515E-2,2.384738922E-1,2.598262527E-1
5.228129603E0,5.456775427E-2,-5.755567551E-2,2.013711929E-1,2.164270153E-1
5.233107676E0,4.154491425E-2,-7.300019264E-2,1.435117722E-1,1.662848062E-1
5.238085697E0,7.421910763E-3,-8.416843414E-2,3.414344788E-2,9.113278827E-2
5.243063770E0,-2.852565050E-2,-1.173036098E-1,-3.600502014E-2,1.259770261E-1
5.248041843E0,9.848535061E-3,-1.555895805E-1,-1.500892639E-2,1.566217708E-1
5.253000332E0,6.264775991E-2,-1.539180279E-1,-6.038761139E-2,1.768110990E-1
5.257978405E0,-1.749765873E-2,-1.551284790E-1,-1.598310471E-1,2.234210748E-1
5.262956478E0,-7.740384340E-2,-1.637957096E-1,-3.010845184E-1,3.513862216E-1
5.267934551E0,-1.078041196E-1,-1.772534847E-1,-4.150085449E-1,4.639748036E-1
5.272912572E0,-7.138782740E-2,-1.451785564E-1,-5.898804665E-1,6.116633060E-1
5.277890645E0,-4.510641098E-3,-1.034262180E-1,-8.300061226E-1,8.364373808E-1
5.282852051E0,3.268784285E-2,-1.064789295E-1,-1.082656384E0,1.088370848E0
5.287830124E0,5.207639933E-2,-1.346271038E-1,-1.276600838E0,1.284735812E0
5.292808197E0,5.644172430E-2,-1.684758663E-1,-1.322165012E0,1.334050264E0
5.297786270E0,4.846024513E-2,-1.723604202E-1,-1.382129192E0,1.393677730E0
5.302764291E0,4.005044699E-2,-1.869084835E-1,-1.349473476E0,1.362944417E0
5.307742364E0,6.700688601E-2,-1.742889881E-1,-1.198724270E0,1.213180304E0
5.312702468E0,7.729065418E-2,-1.851899624E-1,-8.166036606E-1,8.408987489E-1
5.317680541E0,1.311067939E-1,-2.270643711E-1,-4.138898849E-1,4.899510760E-1
5.322658614E0,5.695289373E-2,-2.693755627E-1,-1.021080017E-1,2.936543374E-1
5.327636687E0,-9.437042475E-2,-3.838629723E-1,8.087158203E-3,3.953757209E-1
5.332614707E0,-1.564830542E-1,-4.345531464E-1,3.483390808E-2,4.631811572E-1
5.337592780E0,-1.729047596E-1,-4.197185040E-1,9.764671326E-3,4.540429795E-1
5.342551999E0,-1.799402833E-1,-3.749451637E-1,-1.904764175E-1,4.574315763E-1
5.347530072E0,-1.327532232E-1,-2.739117146E-1,-4.197149277E-1,5.184705065E-1
5.352508145E0,-7.918369770E-2,-1.994373798E-1,-6.638407707E-1,6.976603008E-1
5.357486218E0,4.767954350E-3,-1.032087803E-1,-9.182782173E-1,9.240723295E-1
5.362464239E0,1.138349771E-1,-2.050638199E-2,-1.088158131E0,1.094288367E0
5.367442312E0,1.621478200E-1,1.096153259E-2,-1.179014683E0,1.190162885E0
5.372402051E0,1.454482079E-1,3.912830353E-2,-1.124992371E0,1.135030413E0
5.377380124E0,1.807622313E-1,1.630973816E-2,-9.272079468E-1,9.448045133E-1
5.382358145E0,1.563429832E-1,-7.623672485E-3,-6.056756973E-1,6.255751746E-1
5.387336218E0,1.205536723E-1,-8.095097542E-2,-1.492013931E-1,2.082001538E-1
5.392314291E0,1.883924007E-2,-1.302406788E-1,2.727260590E-1,3.028152153E-1
5.397292364E0,-1.102590561E-1,-2.063086033E-1,6.369867325E-1,6.785811643E-1
5.402249343E0,-1.809011400E-1,-2.310266495E-1,8.967761993E-1,9.435603250E-1
5.407227416E0,-1.698658764E-1,-2.455949783E-1,9.937601089E-1,1.037656236E0
5.412205489E0,-1.706330478E-1,-2.451868057E-1,9.434814453E-1,9.896410684E-1
5.417183562E0,-2.161869109E-1,-2.653481960E-1,8.634557724E-1,9.288176982E-1
5.422161582E0,-1.848922372E-1,-2.554972172E-1,7.014102936E-1,7.690516025E-1
5.427139655E0,-9.668689966E-2,-1.797811985E-1,4.483280182E-1,4.926130812E-1
5.432076582E0,-3.782516718E-2,-9.771943092E-2,1.071653366E-1,1.498807520E-1
5.437054655E0,5.676865578E-3,-3.038287163E-2,-2.240810394E-1,2.262026921E-1
5.442032728E0,-1.898705959E-3,-1.290225983E-2,-5.337815285E-1,5.339408146E-1
5.447010801E0,-2.913320065E-2,7.839679718E-3,-7.249336243E-1,7.255611370E-1
5.451988822E0,5.723851919E-2,1.779127121E-2,-7.915163040E-1,7.937826131E-1
5.456966895E0,9.985971451E-2,3.340053558E-2,-6.893324852E-1,6.973283542E-1
5.461919135E0,1.305382252E-1,9.267330170E-3,-4.814901352E-1,4.989577757E-1
5.466897207E0,1.330152154E-1,-2.400469780E-2,-2.446165085E-1,2.794754180E-1
5.471875280E0,6.713062525E-2,-6.681323051E-2,-2.482414246E-3,9.474540094E-2
5.476853353E0,-9.663462639E-3,-1.384723186E-1,1.120347977E-1,1.783809447E-1
5.481831426E0,-9.973591566E-2,-2.103989124E-1,1.570959091E-1,2.808808998E-1
5.486809447E0,-1.269991100E-1,-2.637479305E-1,1.784954071E-1,3.428590894E-1
5.491780541E0,-1.395552456E-1,-2.532746792E-1,1.478023529E-1,3.247603197E-1
5.496758614E0,-9.265607595E-2,-2.503087521E-1,-4.640102386E-2,2.709108244E-1
5.501736687E0,-6.735199690E-2,-2.258107662E-1,-2.390832901E-1,3.356897574E-1
5.506714760E0,-1.382166147E-2,-1.655838490E-1,-4.184193611E-1,4.502041882E-1
5.511692780E0,3.296434879E-3,-1.195917130E-1,-5.679779053E-1,5.804411643E-1
5.516670853E0,1.980245113E-2,-8.518505096E-2,-6.809453964E-1,6.865386099E-1
5.521626947E0,2.870786190E-2,-6.473088264E-2,-7.148361206E-1,7.183348160E-1
5.526605020E0,3.960454464E-2,-1.224141121E-1,-6.298484802E-1,6.428552270E-1
5.531583093E0,-4.380464554E-3,-1.626396179E-1,-5.433492661E-1,5.671853830E-1
5.536561166E0,-5.956774950E-2,-2.309854031E-1,-4.718708992E-1,5.287388001E-1
5.541539187E0,-9.020268917E-2,-2.893545628E-1,-3.463301659E-1,4.602251318E-1
5.546517260E0,-4.414248466E-2,-3.214704990E-1,-1.765565872E-1,3.694104346E-1
5.551476635E0,4.263639450E-3,-3.135569096E-1,-5.781078339E-2,3.188701943E-1
5.556454707E0,2.211451530E-3,-3.018202782E-1,-1.059131622E-1,3.198718005E-1
5.561432780E0,-3.820049763E-2,-3.099122047E-1,-2.007455826E-1,3.712191288E-1
5.566410853E0,-6.192785501E-2,-2.732212543E-1,-3.301973343E-1,4.330302445E-1
5.571388874E0,-8.107620478E-2,-2.604918480E-1,-4.965963364E-1,5.666015135E-1
5.576366999E0,-4.573494196E-2,-2.020826340E-1,-6.785287857E-1,7.094578133E-1
5.581327051E0,4.612523317E-2,-1.052160263E-1,-8.023686409E-1,8.105512848E-1
5.586305072E0,1.110140085E-1,-1.980590820E-2,-8.901333809E-1,8.972479144E-1
5.591283145E0,9.950983524E-2,3.055763245E-2,-9.089174271E-1,9.148589320E-1
5.596261270E0,6.926482916E-2,1.520776749E-2,-8.046231270E-1,8.077420809E-1
5.601239291E0,5.849063396E-2,-4.425644875E-2,-6.208786964E-1,6.251960838E-1
5.606217364E0,1.962280273E-2,-5.978798866E-2,-4.413952827E-1,4.458581093E-1
5.611205437E0,2.805948257E-3,-1.032128334E-1,-2.565402985E-1,2.765387623E-1
5.616182885E0,-3.023672104E-2,-1.463139057E-1,-3.521823883E-2,1.535003018E-1
5.621160385E0,-1.080250740E-1,-1.846654415E-1,1.487960815E-1,2.605974209E-1
5.626137832E0,-1.564948857E-1,-2.304184437E-1,3.077983856E-1,4.151182417E-1
5.631115280E0,-2.044585645E-1,-2.578060627E-1,4.659624100E-1,5.704281182E-1
5.636092780E0,-2.758966088E-1,-2.670459747E-1,5.592021942E-1,6.783358942E-1
5.641017624E0,-2.708013356E-1,-2.439448833E-1,6.521511078E-1,7.470900460E-1
5.645995124E0,-2.087250352E-1,-2.055702209E-1,6.593647003E-1,7.215171960E-1
5.650972572E0,-1.377502084E-1,-1.733577251E-1,5.696516037E-1,6.111718010E-1
5.655950020E0,-9.886544943E-2,-1.136753559E-1,3.908319473E-1,4.188628352E-1
5.660927520E0,-5.386179686E-2,-5.970740318E-2,1.591405869E-1,1.783025337E-1
5.665904968E0,6.820201874E-3,-1.814246178E-2,-9.191799164E-2,9.393924238E-2
5.670868562E0,3.818219900E-2,-9.591817856E-3,-2.865056992E-1,2.891978543E-1
5.675846010E0,1.262609959E-1,8.035278320E-2,-3.752799034E-1,4.040215523E-1
5.680823510E0,2.351069450E-1,1.038150787E-1,-4.375691414E-1,5.074638900E-1
5.685800957E0,2.864779234E-1,9.238862991E-2,-4.641933441E-1,5.532456238E-1
5.690778457E0,3.022579551E-1,1.173839569E-1,-4.505820274E-1,5.551243358E-1
5.695755905E0,2.091503739E-1,5.728340149E-2,-4.374303818E-1,4.882321230E-1
5.700754343E0,9.631049633E-2,2.958774567E-3,-3.249363899E-1,3.389220022E-1
5.705731791E0,3.041499853E-2,-4.831075668E-2,-1.826734543E-1,1.913859771E-1
5.710709291E0,4.387938976E-2,-8.020615578E-2,-5.823040009E-2,1.083937626E-1
5.715686739E0,5.512285233E-2,-1.240267754E-1,5.818080902E-2,1.476691450E-1
5.720664187E0,-2.373051643E-2,-1.680574417E-1,1.596288681E-1,2.329974606E-1
5.725641687E0,-9.222006798E-2,-2.315075397E-1,2.249631882E-1,3.357211908E-1
5.730604707E0,-1.624910533E-1,-2.477409840E-1,2.521419525E-1,3.890430590E-1
5.735582155E0,-1.919749975E-1,-2.527689934E-1,2.201108932E-1,3.862581637E-1
5.740559655E0,-1.839379966E-1,-2.419269085E-1,9.614562988E-2,3.187566435E-1
5.745537103E0,-1.435549557E-1,-2.149219513E-1,-2.891540527E-2,2.600683970E-1
5.750514551E0,-1.067971587E-1,-1.883149147E-1,-1.575345993E-1,2.677410880E-1
5.755492051E0,-9.488362074E-2,-1.427943707E-1,-2.945871353E-1,3.408441199E-1
5.760455280E0,-4.549282789E-2,-8.525013924E-2,-3.713312149E-1,3.836978692E-1
5.765432728E0,4.841965437E-2,-2.038717270E-2,-4.168639183E-1,4.201614286E-1
5.770410228E0,1.512439847E-1,-3.900527954E-4,-3.911576271E-1,4.193795230E-1
5.775387676E0,2.111600637E-1,1.987552643E-2,-3.065414429E-1,3.727616736E-1
5.780365124E0,1.929140687E-1,-3.569340706E-2,-2.181043625E-1,2.933587738E-1
5.785342572E0,1.515823603E-1,-7.426977158E-2,-2.040367126E-1,2.648097261E-1
5.790306895E0,6.325310469E-2,-1.318852901E-1,-1.899242401E-1,2.397204664E-1
5.795284343E0,8.962690830E-3,-1.585309505E-1,-1.852455139E-1,2.439842055E-1
5.800261843E0,-4.018884897E-2,-1.663789749E-1,-2.397770882E-1,2.946016953E-1
5.805239291E0,-8.674573898E-2,-1.719720364E-1,-3.222546577E-1,3.754294460E-1
5.810216739E0,-8.779525757E-2,-1.654686928E-1,-4.065032005E-1,4.475854640E-1
5.815194239E0,-7.941621542E-2,-1.607573032E-1,-5.236134529E-1,5.534626400E-1
5.820153978E0,-5.467212200E-2,-1.386165619E-1,-5.997591019E-1,6.179923725E-1
5.825131426E0,-3.270375729E-2,-9.671163559E-2,-6.448364258E-1,6.528680512E-1
5.830108926E0,2.937746048E-2,-5.905675888E-2,-5.901756287E-1,5.938501567E-1
5.835086374E0,8.143651485E-2,-6.855607033E-2,-4.769096375E-1,4.886457234E-1
5.840063822E0,5.233311653E-2,-9.653282166E-2,-2.816658020E-1,3.023126937E-1
5.845041322E0,-2.196431160E-4,-9.081363678E-2,-1.095333099E-1,1.422839093E-1
5.850006635E0,1.165294647E-2,-8.312606812E-2,3.047084808E-2,8.929841513E-2
5.854984082E0,-2.222776413E-2,-9.036612511E-2,1.577692032E-1,1.831699526E-1
5.859961582E0,-6.346911192E-2,-1.123104095E-1,2.130279541E-1,2.490439027E-1
5.864939030E0,-9.507828951E-2,-1.488287449E-1,2.680902481E-1,3.210331098E-1
5.869916478E0,-8.616524935E-2,-1.451940536E-1,2.564477921E-1,3.070362087E-1
5.874893926E0,-4.888433218E-2,-9.679603577E-2,2.308206558E-1,2.550241668E-1
5.879855124E0,3.797453642E-2,1.757311821E-2,2.149782181E-1,2.190125890E-1
5.884832572E0,1.266283989E-1,5.719995499E-2,1.684465408E-1,2.183593904E-1
5.889810072E0,1.009447575E-1,3.462028503E-2,1.128244400E-1,1.552989454E-1
5.894787520E0,5.450373888E-2,-2.099537849E-2,2.981185913E-3,5.848376646E-2
5.899764968E0,8.522081375E-2,-4.972410202E-2,-2.300262451E-2,1.013123593E-1
5.904742416E0,9.501594305E-2,-8.766293526E-2,6.517601013E-2,1.447782164E-1
5.909707468E0,6.706398726E-2,-7.068371773E-2,3.858566284E-2,1.047979948E-1
5.914684916E0,4.876530170E-2,-2.576589584E-2,2.193260193E-2,5.935465497E-2
5.919662416E0,-7.560014725E-3,-3.873991966E-2,-3.945827484E-2,5.581120543E-2
5.924639864E0,-3.775584698E-2,-8.509588242E-2,-1.619520187E-1,1.868027558E-1
5.929617312E0,-2.785193920E-2,-1.288831234E-1,-2.856650352E-1,3.146285149E-1
5.934594812E0,-3.515416384E-2,-1.487116814E-1,-3.892259598E-1,4.181480924E-1
5.939555905E0,-2.127134800E-2,-1.039645672E-1,-3.946404457E-1,4.086590056E-1
5.944533353E0,5.890136957E-2,-4.728317261E-2,-3.313207626E-1,3.398213023E-1
5.949510801E0,9.339708090E-2,-2.879953384E-2,-2.710509300E-1,2.881337095E-1
5.954488301E0,8.015686274E-2,-3.130578995E-2,-2.614393234E-1,2.752375246E-1
5.959465749E0,1.230180264E-2,-2.395796776E-2,-2.686920166E-1,2.700383646E-1
5.964443249E0,-5.740714073E-2,-6.142473221E-2,-2.166795731E-1,2.324190502E-1
5.969379707E0,-6.247770786E-2,-4.116272926E-2,-1.629161835E-1,1.792749762E-1
5.974357155E0,-3.421294689E-2,-2.551984787E-2,-7.411766052E-2,8.552903584E-2
5.979334655E0,-2.482265234E-2,-4.309654236E-2,4.327774048E-3,4.992199576E-2
5.984312103E0,1.100552082E-2,-5.341315269E-2,6.546878815E-2,8.520709237E-2
5.989289551E0,6.590282917E-2,-7.821393013E-2,9.296989441E-2,1.382172313E-1
5.994266999E0,1.182022691E-1,-1.056239605E-1,1.228151321E-1,2.005286865E-1
5.999257312E0,3.924131393E-2,-1.476984024E-1,1.218547821E-1,1.954566108E-1
6.004234760E0,-6.080597639E-2,-1.948881149E-1,9.514904022E-2,2.252378387E-1
6.009212260E0,-5.097794533E-2,-2.092223167E-1,1.023283005E-1,2.384193990E-1
6.014189707E0,3.474527597E-2,-1.456265450E-1,8.122920990E-2,1.703305884E-1
6.019167155E0,3.425884247E-2,-1.068162918E-1,4.867076874E-2,1.222793205E-1
6.024144603E0,-1.146405935E-2,-1.112012863E-1,-1.332111359E-1,1.739032991E-1
6.029105489E0,-3.306800127E-2,-1.178915501E-1,-2.779583931E-1,3.037314251E-1
6.034082937E0,-2.326637506E-2,-1.075983047E-1,-3.266501427E-1,3.447013709E-1
6.039060437E0,5.737185478E-3,-8.015537262E-2,-4.726495743E-1,4.794323927E-1
6.044037885E0,8.211451769E-2,9.666442871E-3,-6.558618546E-1,6.610529528E-1
6.049015332E0,1.409423351E-1,6.643438339E-2,-7.477221489E-1,7.637844467E-1
6.053992832E0,1.037394404E-1,6.904602051E-2,-7.822322845E-1,7.920963145E-1
6.058955905E0,4.987281561E-2,2.510881424E-2,-7.456464767E-1,7.477341898E-1
6.063933353E0,-3.805816174E-3,-1.040959358E-2,-5.292587280E-1,5.293747681E-1
6.068910853E0,1.202344894E-2,-1.632618904E-2,-2.533154488E-1,2.541256074E-1
6.073888301E0,2.335333824E-2,-3.162336349E-2,1.076221466E-2,4.075832173E-2
6.078865749E0,3.942567110E-2,-2.091169357E-2,2.632551193E-1,2.670111240E-1
6.083843249E0,4.611933231E-2,-7.990050316E-2,4.949741364E-1,5.034982412E-1
6.088806687E0,1.263213158E-2,-1.728384495E-1,7.015666962E-1,7.226538103E-1
6.093784135E0,-7.268184423E-2,-2.734594345E-1,8.191823959E-1,8.666732433E-1
6.098761635E0,-1.166574359E-1,-3.058972359E-1,8.249015808E-1,8.874934897E-1
6.103739082E0,-1.222518682E-1,-3.060646057E-1,6.886539459E-1,7.634561673E-1
6.108716530E0,-1.163041592E-1,-2.050466537E-1,4.138822556E-1,4.763079982E-1
6.113693978E0,-6.111764908E-2,-1.242790222E-1,6.562805176E-2,1.532569201E-1
6.118656687E0,-1.871877909E-2,-7.950806618E-2,-3.225979805E-1,3.327782780E-1
6.123633666E0,5.156838894E-2,1.806187630E-2,-6.153655052E-1,6.177865611E-1
6.128610645E0,1.520192623E-1,1.161260605E-1,-7.756652832E-1,7.989065963E-1
6.133587624E0,1.497567892E-1,1.767683029E-1,-8.308129311E-1,8.625104378E-1
6.138564603E0,1.693357229E-1,1.765353680E-1,-8.125762939E-1,8.485985840E-1
6.143541582E0,1.676236391E-1,1.632881165E-1,-7.072238922E-1,7.449337736E-1
6.148507572E0,1.376951337E-1,1.057546139E-1,-4.368457794E-1,4.700832088E-1
6.153484551E0,9.898185730E-2,2.989602089E-2,-9.521389008E-2,1.405591157E-1
6.158461530E0,1.781344414E-3,-4.091143608E-2,2.484416962E-1,2.517939538E-1
6.163438510E0,-7.547247410E-2,-1.236135960E-1,4.541168213E-1,4.766534410E-1
6.168415489E0,-1.568288207E-1,-1.756949425E-1,5.540189743E-1,6.019975213E-1
6.173392416E0,-1.927066147E-1,-2.046897411E-1,5.681362152E-1,6.338868105E-1
6.178354916E0,-2.359616160E-1,-2.202498913E-1,5.589399338E-1,6.454469370E-1
6.183331895E0,-2.816103399E-1,-2.435855865E-1,4.884653091E-1,6.141959620E-1
6.188308874E0,-2.559270859E-1,-2.316954136E-1,3.428773880E-1,4.865658652E-1
6.193285853E0,-1.640672088E-1,-1.704220772E-1,1.488227844E-1,2.794815818E-1
6.198262832E0,-7.049298286E-2,-1.073434353E-1,-3.409290314E-2,1.328691077E-1
6.203239812E0,2.933859825E-2,-5.664443970E-2,-2.891283035E-1,2.960819512E-1
6.208207624E0,4.255706072E-2,-2.505660057E-2,-4.305205345E-1,4.333438211E-1
6.213184603E0,7.449263334E-2,-1.946258545E-2,-5.305314064E-1,5.360890951E-1
6.218161582E0,2.131823301E-1,-1.532077789E-3,-4.494237900E-1,4.974241612E-1
6.223138562E0,2.632675767E-1,-7.107019424E-3,-2.623229027E-1,3.717171397E-1
6.228115541E0,2.373659611E-1,-1.001930237E-2,-2.598490715E-1,3.520859637E-1
6.233092520E0,1.214509010E-1,-3.417229652E-2,-3.215942383E-1,3.454575536E-1
6.237976999E0,4.686295986E-2,-3.436279297E-2,-2.949304581E-1,3.006009209E-1
6.242953978E0,2.511525154E-2,-2.740430832E-2,-1.877279282E-1,1.913727958E-1
6.247930905E0,-8.393406868E-3,-2.996683121E-2,-1.408209801E-1,1.442186142E-1
6.252907885E0,-1.778095961E-2,-2.999734879E-2,-1.798987389E-1,1.832472638E-1
6.257884864E0,-6.492686272E-2,8.244514465E-3,-2.140412331E-1,2.238238570E-1
6.262861843E0,4.499828815E-2,3.238153458E-2,-2.766261101E-1,2.821265930E-1
6.267906582E0,9.207069874E-2,1.161456108E-2,-3.103823662E-1,3.239585233E-1
6.272883562E0,7.905244827E-3,-3.214502335E-2,-3.488831520E-1,3.504500666E-1
6.277860541E0,-7.114827633E-3,-4.866623878E-2,-3.185005188E-1,3.222756647E-1
6.282837520E0,-3.191649914E-2,-6.932163239E-2,-2.766957283E-1,2.870273118E-1
6.287814499E0,-3.761363029E-2,-7.516431808E-2,-1.213922501E-1,1.476500534E-1
6.292791478E0,-2.414822578E-2,-1.000173092E-1,8.014583588E-2,1.304222142E-1
6.297758093E0,-4.374825954E-2,-1.272733212E-1,3.086042404E-1,3.366734110E-1
6.302735072E0,-9.599196911E-2,-1.858799458E-1,5.520925522E-1,5.903998633E-1
6.307712051E0,-1.187990308E-1,-1.999571323E-1,6.871480942E-1,7.254437041E-1
6.312689030E0,-9.387934208E-2,-2.059319019E-1,7.481727600E-1,7.816545004E-1
6.317666010E0,-9.762924910E-2,-1.989681721E-1,6.786956787E-1,7.139661253E-1
6.322642989E0,-1.155138016E-1,-1.955468655E-1,4.891757965E-1,5.393282626E-1
6.327570697E0,-1.143112183E-1,-1.358735561E-1,2.659635544E-1,3.197894466E-1
6.332547676E0,-6.575763226E-2,-7.933521271E-2,9.119987488E-3,1.034471669E-1
6.337524655E0,8.131384850E-3,-1.441955566E-3,-3.194098473E-1,3.195165867E-1
6.342501582E0,7.378131151E-2,8.868622780E-2,-6.076436043E-1,6.184979214E-1
6.347478562E0,1.122556329E-1,1.200101376E-1,-8.275713921E-1,8.437287296E-1
6.352455541E0,9.332621098E-2,1.027200222E-1,-9.015016556E-1,9.121219324E-1
6.357454082E0,9.842962027E-2,1.085093021E-1,-8.425559998E-1,8.551977967E-1
6.362431114E0,1.395753026E-1,9.187030792E-2,-6.185221672E-1,6.406957858E-1
6.367408093E0,1.547167897E-1,5.967855453E-2,-3.232092857E-1,3.632671982E-1
6.372385020E0,8.962428570E-2,-2.179360390E-2,1.931381226E-2,9.423638948E-2
6.377361999E0,-5.761855841E-2,-8.856463432E-2,4.065732956E-1,4.200778945E-1
6.382338978E0,-1.700080633E-1,-1.652235985E-1,6.983928680E-1,7.375324923E-1
6.387311114E0,-2.337326407E-1,-2.024557590E-1,8.697671890E-1,9.231003439E-1
6.392288093E0,-2.804171443E-1,-2.292182446E-1,9.170293808E-1,9.859602749E-1
6.397265072E0,-3.153193593E-1,-2.479751110E-1,8.269901276E-1,9.191466831E-1
6.402242051E0,-2.698605359E-1,-2.013909817E-1,6.267480850E-1,7.114746646E-1
6.407219030E0,-1.775881350E-1,-1.583704948E-1,3.834533691E-1,4.512817807E-1
6.412196010E0,-1.076779962E-1,-6.862044334E-2,8.064365387E-2,1.510189227E-1
6.417130697E0,-3.389513493E-2,2.287197113E-2,-1.982932091E-1,2.024653155E-1
6.422107676E0,2.708315849E-2,6.425619125E-2,-4.228796959E-1,4.285902388E-1
6.427084655E0,7.776743174E-2,1.157128811E-1,-6.388883591E-1,6.539232215E-1
6.432061635E0,1.256282926E-1,1.061477661E-1,-7.301349640E-1,7.484296104E-1
6.437038614E0,1.522206068E-1,8.608508110E-2,-6.906404495E-1,7.124366532E-1
6.442015593E0,2.197198272E-1,6.010198593E-2,-5.451412201E-1,5.908197703E-1
6.446981166E0,2.112753391E-1,2.535772324E-2,-4.011611938E-1,4.541041582E-1
6.451958145E0,1.436836720E-1,-1.346755028E-2,-2.372012138E-1,2.776522796E-1
6.456935124E0,7.637262344E-3,-6.388330460E-2,-5.082321167E-2,8.199026300E-2
6.461912103E0,-6.328409910E-2,-1.047508717E-1,1.033143997E-1,1.601608176E-1
6.466889082E0,-7.677048445E-2,-9.843683243E-2,1.876173019E-1,2.253525444E-1
6.471866062E0,-9.517073631E-2,-9.250068665E-2,1.906299591E-1,2.322792014E-1
6.476842260E0,-1.040843725E-1,-1.083216667E-1,1.082715988E-1,1.851752661E-1
6.481819239E0,-1.082987189E-1,-1.051638126E-1,5.550384521E-4,1.509581004E-1
6.486796218E0,-8.893406391E-2,-8.975672722E-2,-1.373238564E-1,1.866102337E-1
6.491773197E0,-6.750535965E-2,-4.304409027E-2,-2.648086548E-1,2.766466897E-1
6.496750176E0,-2.483350039E-2,8.536338806E-3,-3.107123375E-1,3.118200258E-1
6.501727155E0,7.693028450E-2,2.228832245E-2,-3.232760429E-1,3.330502033E-1
6.506684082E0,9.968352318E-2,4.356050491E-2,-2.457313538E-1,2.687344797E-1
6.511661062E0,7.738512754E-2,3.173208237E-2,-1.238803864E-1,1.494715128E-1
6.516638041E0,-8.824646473E-3,-3.476309776E-2,2.077007294E-2,4.144566662E-2
6.521615020E0,-9.685784578E-2,-6.318068504E-2,2.523593903E-1,2.775941338E-1
6.526591999E0,-1.153672338E-1,-8.976006508E-2,5.014085770E-1,5.222806037E-1
6.531568978E0,-1.717661917E-1,-8.609247208E-2,6.846609116E-1,7.111090649E-1
6.536532937E0,-1.538946331E-1,-6.227064133E-2,7.386741638E-1,7.571001989E-1
6.541509916E0,-1.239675879E-1,-6.573462486E-2,7.000284195E-1,7.139529339E-1
6.546486895E0,-1.059712172E-1,-4.111933708E-2,5.811414719E-1,5.921537884E-1
6.551463874E0,-7.128149271E-2,-2.961158752E-4,3.683118820E-1,3.751463465E-1
6.556440853E0,-3.206485510E-2,1.915264130E-2,2.022199631E-1,2.056402005E-1
6.561417832E0,4.274964333E-3,1.008758545E-1,7.520771027E-2,1.258984234E-1
6.566383353E0,4.011225700E-2,1.613230705E-1,2.490711212E-2,1.680907210E-1
6.571360332E0,3.742045164E-2,1.983711720E-1,-3.250122070E-2,2.044694144E-1
6.576337312E0,4.861062765E-2,1.692843437E-1,-9.210968018E-2,1.987570762E-1
6.581314291E0,8.553171158E-2,1.908504963E-1,-8.256149292E-2,2.248465827E-1
6.586291270E0,1.124053001E-1,1.318013668E-1,6.454563141E-2,1.848585684E-1
6.591268249E0,5.830574036E-2,9.198117256E-2,3.008270264E-1,3.199327980E-1
6.596223510E0,2.668023109E-3,6.129837036E-2,4.879360199E-1,4.917785763E-1
6.601200541E0,-7.339167595E-2,2.977681160E-2,6.787281036E-1,6.833336193E-1
6.606177468E0,-1.414485276E-1,1.639294624E-2,7.187976837E-1,7.327663507E-1
6.611154499E0,-1.663239896E-1,1.878333092E-2,6.212329865E-1,6.433870581E-1
6.616131426E0,-1.675086915E-1,-1.776504517E-2,4.893083572E-1,5.174914753E-1
6.621108405E0,-1.426528096E-1,5.249619484E-2,3.468055725E-1,3.786552254E-1
6.626109291E0,-1.062108278E-1,1.032991409E-1,1.389198303E-1,2.031013829E-1
6.631085853E0,-5.819475651E-2,1.474227905E-1,-9.853744507E-2,1.866272674E-1
6.636062468E0,3.477156162E-3,2.136173248E-1,-2.371153831E-1,3.191679135E-1
6.641039030E0,7.404625416E-2,2.399680614E-1,-3.228001595E-1,4.089834486E-1
6.646015593E0,1.603493094E-1,2.436854839E-1,-4.012727737E-1,4.960991383E-1
6.650992207E0,1.219283938E-1,2.083785534E-1,-4.155912399E-1,4.806289977E-1
6.655958145E0,8.558118343E-2,1.767840385E-1,-2.805895805E-1,3.425014569E-1
6.660934707E0,1.013637781E-1,1.603498459E-1,-2.346229553E-2,1.911469798E-1
6.665911322E0,1.102077961E-1,1.513848305E-1,3.026657104E-1,3.559068101E-1
6.670887885E0,9.109395742E-2,1.158530712E-1,6.595344543E-1,6.758000737E-1
6.675864447E0,4.898315668E-2,8.428955078E-2,9.307641983E-1,9.358557960E-1
6.680841062E0,-3.504198790E-2,4.431796074E-2,1.088793755E0,1.090258622E0
6.685750437E0,-1.439352036E-1,1.982688904E-2,1.163034439E0,1.172074893E0
6.690727051E0,-1.920731366E-1,3.636598587E-3,1.109020233E0,1.125535958E0
6.695703614E0,-2.130886316E-1,4.121017456E-2,1.013135910E0,1.036122298E0
6.700680228E0,-2.001664937E-1,1.181912422E-1,8.826990128E-1,9.127942496E-1
6.705656791E0,-1.683228910E-1,1.326444149E-1,6.322555542E-1,6.675883629E-1
6.710633353E0,-8.731174469E-2,1.875357628E-1,3.577203751E-1,4.132273827E-1
6.715661478E0,-1.478981972E-2,2.542488575E-1,1.375970840E-1,2.894722402E-1
6.720638041E0,-2.194535732E-2,2.736451626E-1,4.516601562E-3,2.745608738E-1
6.725614655E0,-2.029651403E-2,2.962114811E-1,-1.207304001E-1,3.205136807E-1
6.730591218E0,-2.376008034E-2,2.958669662E-1,-1.693916321E-1,3.417533148E-1
6.735567780E0,1.292961836E-2,2.941017151E-1,-1.064376831E-1,3.130366979E-1
6.740544395E0,1.039286852E-1,2.859139442E-1,8.868789673E-2,3.168808895E-1
6.745511843E0,1.087179780E-1,2.566313744E-1,3.438396454E-1,4.426115258E-1
6.750488405E0,5.912870169E-2,2.370481491E-1,5.849876404E-1,6.339547048E-1
6.755465020E0,-3.729760647E-2,1.885666847E-1,7.673625946E-1,7.910713354E-1
6.760441582E0,-1.041083336E-1,1.468071938E-1,8.773221970E-1,8.955920581E-1
6.765418145E0,-1.131091118E-1,1.519179344E-1,9.203109741E-1,9.395983286E-1
6.770394707E0,-1.147782207E-1,1.750340462E-1,9.111318588E-1,9.348648145E-1
6.775324395E0,-8.073568344E-2,1.711854935E-1,8.524503708E-1,8.732092295E-1
6.780301010E0,-3.501772881E-2,1.860675812E-1,7.136316299E-1,7.383207226E-1
6.785277572E0,5.540567636E-2,2.412681580E-1,5.189332962E-1,5.749538059E-1
6.790254135E0,9.729725122E-2,2.987413406E-1,2.853221893E-1,4.244076995E-1
6.795230749E0,1.288313866E-1,3.039650917E-1,1.461048126E-1,3.610248183E-1
6.800207312E0,1.291047335E-1,3.550195694E-1,1.098461151E-1,3.934121196E-1
6.805210593E0,1.103607416E-1,3.589296341E-1,1.162643433E-1,3.930996986E-1
6.810187155E0,1.345587373E-1,3.492856026E-1,1.626548767E-1,4.081214217E-1
6.815163770E0,1.231176257E-1,3.377780914E-1,2.701969147E-1,4.497314326E-1
6.820140332E0,1.121884584E-1,2.884616852E-1,4.931602478E-1,5.822400055E-1
6.825116895E0,4.266357422E-2,2.773752213E-1,7.309312820E-1,7.829544897E-1
6.830093510E0,-9.950393438E-2,2.231736183E-1,8.505058289E-1,8.849111039E-1
6.835059864E0,-1.833118498E-1,1.711230278E-1,9.028854370E-1,9.370637317E-1
6.840036426E0,-2.353955209E-1,1.735491753E-1,9.004688263E-1,9.467705502E-1
6.845012989E0,-2.489176691E-1,1.613140106E-1,8.341140747E-1,8.852844207E-1
6.849989603E0,-2.030835450E-1,2.272667885E-1,7.874774933E-1,8.444015169E-1
6.854966166E0,-1.508075893E-1,2.593431473E-1,7.056541443E-1,7.667786958E-1
6.859942780E0,-8.062058687E-2,2.913255692E-1,5.769691467E-1,6.513552506E-1
6.864909447E0,-1.892924309E-3,2.925319672E-1,5.489759445E-1,6.220555623E-1
6.869886010E0,5.215430260E-2,2.870545387E-1,5.352687836E-1,6.096171341E-1
6.874862572E0,3.425854445E-2,3.055129051E-1,5.477600098E-1,6.281343896E-1
6.879839187E0,9.421229362E-3,3.190627098E-1,6.717948914E-1,7.437729145E-1
6.884815749E0,5.849105120E-2,3.395819664E-1,8.233203888E-1,8.925209116E-1
6.889792364E0,7.879304886E-2,3.141851425E-1,9.073553085E-1,9.634387911E-1
6.894759187E0,4.417788982E-2,2.624197006E-1,9.529075623E-1,9.893677817E-1
6.899735749E0,2.166128159E-2,1.843819618E-1,9.959917068E-1,1.013146287E0
6.904712364E0,-2.822220325E-3,1.942319870E-1,9.915094376E-1,1.010358844E0
6.909688926E0,1.716554165E-3,2.009363174E-1,9.351148605E-1,9.564612656E-1
6.914665489E0,-1.485019922E-2,2.118678093E-1,7.891263962E-1,8.172080312E-1
6.919642103E0,-3.822571039E-2,1.940426826E-1,6.111621857E-1,6.423651491E-1
6.924610124E0,-5.880707502E-2,2.145848274E-1,4.226837158E-1,4.776677128E-1
6.929586687E0,-4.571330547E-2,2.354521751E-1,2.735271454E-1,3.637918805E-1
6.934563301E0,-2.085042000E-2,2.829017639E-1,1.656913757E-1,3.285145051E-1
6.939539864E0,-1.269364357E-2,2.925019264E-1,6.797599792E-2,3.005648713E-1
6.944516426E0,4.745513201E-2,2.933363914E-1,-7.444572449E-2,3.063337951E-1
6.949493041E0,5.195403099E-2,2.998199463E-1,-1.638240814E-1,3.455858087E-1
6.954460801E0,3.754317760E-3,2.762308121E-1,-1.649570465E-1,3.217582689E-1
6.959437364E0,1.270288229E-2,2.324252129E-1,2.113056183E-2,2.337292096E-1
6.964413978E0,1.048084497E-1,2.130427361E-1,2.815294266E-1,3.682809207E-1
6.969390541E0,1.013234258E-1,2.056965828E-1,6.323890686E-1,6.726763374E-1
6.974367103E0,2.468997240E-2,1.717467308E-1,9.567975998E-1,9.724033017E-1
6.979343718E0,-2.268725634E-2,1.346459389E-1,1.191120148E0,1.198920951E0
6.984306478E0,-8.631956577E-2,1.248292923E-1,1.284089088E0,1.293026762E0
6.989283041E0,-1.326351166E-1,9.207582474E-2,1.298684120E0,1.308682725E0
6.994259655E0,-1.072506309E-1,1.083498001E-1,1.152173996E0,1.162216544E0
6.999236218E0,-8.238661289E-2,1.689720154E-1,9.240856171E-1,9.430128969E-1
7.004212780E0,-2.706992626E-2,2.596631050E-1,6.814393997E-1,7.297378738E-1
7.009189343E0,-7.915258408E-3,3.118901253E-1,3.884153366E-1,4.982013401E-1
7.014159707E0,4.185003042E-2,3.716111183E-1,1.449604034E-1,4.010732687E-1
7.019136270E0,1.991099119E-2,3.702583313E-1,-4.478645325E-2,3.734882941E-1
7.024112885E0,3.618413210E-2,3.726048470E-1,-1.623363495E-1,4.080401374E-1
7.029089447E0,1.094440222E-1,3.736772537E-1,-1.606922150E-1,4.212299513E-1
7.034066010E0,1.511439085E-1,3.708114624E-1,-2.168369293E-2,4.010184588E-1
7.039042624E0,1.450961232E-1,3.493862152E-1,2.085933685E-1,4.320125065E-1
7.044007624E0,7.531428337E-2,2.734866142E-1,4.630641937E-1,5.430429237E-1
7.048984187E0,-3.153687716E-2,1.476802826E-1,6.396932602E-1,6.572758231E-1
7.053960801E0,-7.810741663E-2,6.231641769E-2,7.654571533E-1,7.719512666E-1
7.058937364E0,-1.244440675E-1,5.027151108E-2,7.909259796E-1,8.022327941E-1
7.063913926E0,-1.776986420E-1,3.740930557E-2,7.240066528E-1,7.464327812E-1
7.068890541E0,-1.713432372E-1,9.056282043E-2,6.152038574E-1,6.450084616E-1
7.073861582E0,-1.365565062E-1,1.525645256E-1,4.313983917E-1,4.775229693E-1
7.078838145E0,-9.502226114E-2,1.787757874E-1,2.442026138E-1,3.172143264E-1
7.083814760E0,-1.573669910E-2,2.365312576E-1,5.861282349E-3,2.371266205E-1
7.088791322E0,6.051212549E-2,2.949910164E-1,-1.954507828E-1,3.590019855E-1
7.093767885E0,1.196081042E-1,2.973442078E-1,-1.986198425E-1,3.770537340E-1
7.098744499E0,1.451103091E-1,2.841348648E-1,-5.146980286E-3,3.190863749E-1
7.103711322E0,1.827673912E-1,2.740573883E-1,3.550167084E-1,4.843018012E-1
7.108687885E0,1.492262483E-1,1.855897903E-1,7.478246689E-1,7.848272287E-1
7.113664499E0,2.603030205E-2,7.338666916E-2,1.004662514E0,1.007675516E0
7.118641062E0,-1.295519471E-1,-8.369922638E-3,1.184038162E0,1.191133969E0
7.123617624E0,-2.224973142E-1,-5.296897888E-2,1.251063347E0,1.271798044E0
7.128594239E0,-2.744164169E-1,-4.870033264E-2,1.230339050E0,1.261511106E0
7.133561114E0,-2.049964368E-1,4.172325134E-3,1.101151466E0,1.120078345E0
7.138537416E0,-1.385731697E-1,7.463359833E-2,8.405008316E-1,8.551107211E-1
7.143513666E0,-7.496660948E-2,1.062426567E-1,5.275058746E-1,5.432954467E-1
7.148489968E0,-4.786908627E-3,1.236000061E-1,2.312469482E-1,2.622499325E-1
7.153466218E0,4.808807373E-2,2.032384872E-1,-9.136962891E-2,2.279621780E-1
7.158442468E0,6.473106146E-2,2.450761795E-1,-3.024435043E-1,3.946194590E-1
7.163408041E0,1.000817418E-1,2.570028305E-1,-4.577684402E-1,5.344331154E-1
7.168384291E0,7.785671949E-2,2.393922806E-1,-5.459885597E-1,6.012269456E-1
7.173360593E0,8.394312859E-2,2.277741432E-1,-5.223445892E-1,5.759959888E-1
7.178336843E0,1.135789752E-1,2.339725494E-1,-4.400472641E-1,5.111603781E-1
7.183313145E0,1.405715346E-1,2.006540298E-1,-2.900066376E-1,3.796396263E-1
7.188289395E0,1.437413096E-1,1.798381805E-1,-7.251167297E-2,2.413737310E-1
7.193261582E0,9.031969309E-2,1.094040871E-1,1.074571609E-1,1.779717468E-1
7.198237885E0,-2.876895666E-2,4.418945312E-2,2.289438248E-1,2.349375141E-1
7.203214135E0,-9.447014332E-2,-3.511142731E-2,3.543481827E-1,3.684020289E-1
7.208190437E0,-1.286979318E-1,-6.670665741E-2,5.074472427E-1,5.277458100E-1
7.213166687E0,-1.889521182E-1,-5.828809738E-2,5.241966248E-1,5.602521813E-1
7.218142937E0,-1.895405054E-1,-5.027914047E-2,4.887323380E-1,5.266050639E-1
7.223112832E0,-9.077823162E-2,-2.364349365E-2,4.109907150E-1,4.215602803E-1
7.228089135E0,6.666421890E-3,6.213855743E-2,3.386945724E-1,3.444120423E-1
7.233065437E0,4.841434956E-2,7.842063904E-2,2.360839844E-1,2.534351861E-1
7.238041687E0,6.809723377E-2,1.183757782E-1,1.105709076E-1,1.757156331E-1
7.243017937E0,4.936039448E-2,1.487293243E-1,3.589248657E-2,1.607642095E-1
7.247994239E0,-4.898130894E-3,1.316976547E-1,1.866340637E-2,1.331036689E-1
7.252961791E0,-1.110118628E-2,1.176767349E-1,6.071186066E-2,1.328795707E-1
7.257938093E0,7.102197409E-2,1.040482521E-1,1.093721390E-1,1.668305258E-1
7.262914343E0,1.363943219E-1,6.700658798E-2,3.000030518E-1,3.362961863E-1
7.267890645E0,9.712547064E-2,7.282543182E-2,4.154748917E-1,4.328467236E-1
7.272866895E0,-1.727032661E-2,4.016685486E-2,5.040225983E-1,5.059154277E-1
7.277843145E0,-1.492435336E-1,-2.822780609E-2,5.634794235E-1,5.835918969E-1
7.282773614E0,-2.444466054E-1,-5.866146088E-2,5.657329559E-1,6.190711488E-1
7.287749864E0,-2.676701248E-1,-7.013654709E-2,4.636001587E-1,5.398995629E-1
7.292726166E0,-2.457439899E-1,-6.739759445E-2,4.146614075E-1,4.866997300E-1
7.297702416E0,-1.551763713E-1,1.817703247E-3,3.352613449E-1,3.694362999E-1
7.302678718E0,-2.047652006E-2,4.199123383E-2,3.301620483E-1,3.334509406E-1
7.307654968E0,4.117900133E-2,1.103191376E-1,2.824020386E-1,3.059688443E-1
7.312666947E0,-7.617592812E-3,1.757102013E-1,1.923246384E-1,2.606163254E-1
7.317643197E0,-5.640929937E-2,1.506929398E-1,7.906818390E-2,1.792823161E-1
7.322619499E0,3.289526701E-2,1.620731354E-1,1.589040756E-1,2.293475639E-1
7.327595749E0,1.909558773E-1,2.116403580E-1,4.564437866E-1,5.381419130E-1
7.332571999E0,2.654144764E-1,2.201967239E-1,7.372951508E-1,8.139628866E-1
7.337548249E0,2.450229526E-1,1.686296463E-1,9.448127747E-1,9.905268215E-1
7.342513041E0,1.281033754E-1,7.814836502E-2,1.079946518E0,1.090322027E0
7.347489343E0,-8.808076382E-3,-1.298284531E-2,1.114850998E0,1.114961382E0
7.352465645E0,-1.275840998E-1,-6.212234497E-2,1.052800179E0,1.062320622E0
7.357441895E0,-1.741691530E-1,-5.511760712E-2,8.897609711E-1,9.083212153E-1
7.362418145E0,-1.966763437E-1,-2.784967422E-2,7.286148071E-1,7.552064126E-1
7.367394447E0,-1.406701803E-1,3.468513489E-3,4.669094086E-1,4.876520543E-1
7.372365385E0,-9.006595612E-2,8.458137512E-2,1.479310989E-1,1.927420439E-1
7.377341635E0,-2.096927166E-2,1.324429512E-1,-1.188306808E-1,1.791691279E-1
7.382317885E0,5.929136276E-2,1.859207153E-1,-4.362487793E-1,4.779068691E-1
7.387294187E0,9.594041109E-2,1.857528687E-1,-6.709575653E-1,7.027750317E-1
7.392270437E0,1.151556969E-1,1.967329979E-1,-8.427362442E-1,8.730229575E-1
7.397246687E0,1.027629972E-1,2.140116692E-1,-9.354739189E-1,9.651283236E-1
7.402213874E0,8.767020702E-2,1.567101479E-1,-8.975515366E-1,9.153375860E-1
7.407190124E0,9.851944447E-2,1.250152588E-1,-7.822232246E-1,7.982531359E-1
7.412166374E0,1.210896969E-1,9.460115433E-2,-4.854478836E-1,5.091873337E-1
7.417142676E0,1.009163857E-1,8.383560181E-2,-1.652250290E-1,2.109782814E-1
7.422118926E0,3.855830431E-2,4.684162140E-2,1.238889694E-1,1.379469357E-1
7.427095176E0,-9.911841154E-2,-4.666328430E-3,3.419799805E-1,3.560850196E-1
7.432037676E0,-2.094099820E-1,-8.961200714E-2,4.896640778E-1,5.400497768E-1
7.437013978E0,-2.521071732E-1,-1.416554451E-1,6.295137405E-1,6.927566971E-1
7.441990228E0,-2.442002594E-1,-1.323552132E-1,6.997127533E-1,7.528277401E-1
7.446966530E0,-1.555906534E-1,-8.577203751E-2,6.128673553E-1,6.381000620E-1
7.451942780E0,-1.034427285E-1,-4.713249207E-2,4.675779343E-1,4.811974590E-1
7.456919030E0,-4.725039005E-2,-2.314710617E-2,3.235578537E-1,3.278079813E-1
7.461861270E0,1.059645414E-2,1.273965836E-2,1.473855972E-1,1.483141868E-1
7.466837520E0,4.889184237E-2,6.782341003E-2,2.945327759E-2,8.864492517E-2
7.471813770E0,1.034514308E-1,1.087598801E-1,-3.313732147E-2,1.537172473E-1
7.476790072E0,1.241850853E-1,1.237936020E-1,-5.985069275E-2,1.852805892E-1
7.481766322E0,7.825344801E-2,1.176967621E-1,8.492469788E-3,1.415918500E-1
7.486742624E0,2.071291208E-2,1.045546532E-1,8.576202393E-2,1.368057929E-1
7.491740541E0,-6.764113903E-2,5.840444565E-2,9.583187103E-2,1.310349208E-1
7.496716843E0,-1.364809573E-1,4.804182053E-2,1.249523163E-1,1.911757034E-1
7.501693093E0,-1.742068231E-1,6.627559662E-2,1.419754028E-1,2.343021275E-1
7.506669395E0,-1.763269603E-1,9.163045883E-2,9.704494476E-2,2.211448829E-1
7.511645645E0,-1.170756817E-1,1.431336403E-1,8.565998077E-2,2.037929992E-1
7.516621895E0,-4.669171572E-2,2.064404488E-1,1.027183533E-1,2.352633318E-1
7.521586739E0,5.184274912E-2,2.102732658E-1,2.215480804E-1,3.098161857E-1
7.526563041E0,1.096454859E-1,1.881246567E-1,3.392658234E-1,4.031306462E-1
7.531539291E0,1.583518386E-1,1.353092194E-1,4.963111877E-1,5.382459333E-1
7.536515593E0,1.814784408E-1,6.123113632E-2,7.305345535E-1,7.552247417E-1
7.541491843E0,1.409577131E-1,-8.434772491E-3,9.109735489E-1,9.218530409E-1
7.546468093E0,5.960702896E-3,-7.398557663E-2,9.432125092E-1,9.461285499E-1
7.551439968E0,-9.213954210E-2,-1.405191422E-1,9.094152451E-1,9.248088519E-1
7.556416270E0,-1.588766873E-1,-1.413559914E-1,7.103128433E-1,7.414631841E-1
7.561392520E0,-1.757396162E-1,-1.004853249E-1,4.944276810E-1,5.342662678E-1
7.566368822E0,-1.409543157E-1,-3.663682938E-2,1.618337631E-1,2.177166582E-1
7.571345124E0,-7.870763540E-2,2.678680420E-2,-1.988706589E-1,2.155503740E-1
7.576321322E0,-4.822921753E-2,8.817195892E-2,-5.379667282E-1,5.472737454E-1
7.581289291E0,2.002698183E-2,1.529130936E-1,-7.514472008E-1,7.671091120E-1
7.586265593E0,9.707593918E-2,1.786198616E-1,-9.046859741E-1,9.272461942E-1
7.591241843E0,1.662393212E-1,2.322854996E-1,-9.198713303E-1,9.632005655E-1
7.596218145E0,2.111602426E-1,2.563905716E-1,-7.837796211E-1,8.512551132E-1
7.601194395E0,1.775624752E-1,2.319030762E-1,-6.020698547E-1,6.691752979E-1
7.606170697E0,1.896963716E-1,1.921834946E-1,-3.583440781E-1,4.486977683E-1
7.611167885E0,1.855986714E-1,1.531724930E-1,4.942131042E-2,2.456647011E-1
7.616144135E0,1.486401558E-1,7.589483261E-2,5.181980133E-1,5.444107847E-1
7.621120437E0,3.850853443E-2,-2.806234360E-2,8.743772507E-1,8.756745850E-1
7.626096687E0,-8.710330725E-2,-1.544103622E-1,1.095472336E0,1.109724824E0
7.631072937E0,-2.259152234E-1,-1.937627792E-1,1.211163521E0,1.247196367E0
7.636049187E0,-2.995583713E-1,-2.443265915E-1,1.219999313E0,1.279776944E0
7.641014603E0,-3.254108727E-1,-2.368474007E-1,1.065735817E0,1.139202247E0
7.645990593E0,-2.754588127E-1,-1.447873116E-1,7.944393158E-1,8.532143632E-1
7.650966635E0,-1.262403131E-1,-5.389833450E-2,6.158771515E-1,6.309883619E-1
7.655942624E0,-2.102738619E-2,6.705522537E-2,3.794441223E-1,3.858968725E-1
7.660918718E0,2.617454529E-2,1.185350418E-1,7.826805115E-2,1.444352824E-1
7.665894707E0,8.222234249E-2,1.562848091E-1,-2.303466797E-1,2.902499750E-1
7.670828405E0,9.483641386E-2,2.020854950E-1,-4.752178192E-1,5.250375876E-1
7.675804447E0,8.572167158E-2,2.130641937E-1,-5.974617004E-1,6.400820566E-1
7.680780489E0,7.179039717E-2,2.084398270E-1,-5.909471512E-1,6.307293858E-1
7.685756478E0,4.625695944E-2,1.859812737E-1,-4.995317459E-1,5.350333687E-1
7.690732520E0,2.587139606E-2,1.453471184E-1,-3.806991577E-1,4.083221310E-1
7.695708562E0,3.676706553E-2,1.006212234E-1,-1.680088043E-1,1.992571355E-1
7.700713353E0,4.051268101E-2,4.895591736E-2,4.537200928E-2,7.808058909E-2
7.705689395E0,-5.533117056E-2,-3.374910355E-2,2.263679504E-1,2.354633505E-1
7.710665385E0,-1.859816015E-1,-7.817935944E-2,3.086652756E-1,3.687484518E-1
7.715641426E0,-1.849983633E-1,-8.945083618E-2,3.358774185E-1,3.937505388E-1
7.720617468E0,-1.556507349E-1,-9.146738052E-2,4.057989120E-1,4.441465862E-1
7.725593457E0,-1.242148280E-1,-3.438091278E-2,3.850183487E-1,4.060178561E-1
7.730565437E0,-6.693309546E-2,-8.655071259E-3,3.311586380E-1,3.379659643E-1
7.735541478E0,-2.934306860E-2,2.402114868E-2,2.563638687E-1,2.591533609E-1
7.740517468E0,-1.893937588E-3,4.015159607E-2,1.535367966E-1,1.587113278E-1
7.745493510E0,-1.503837109E-2,5.878543854E-2,1.369581223E-1,1.497978893E-1
7.750469499E0,5.751013756E-2,9.652233124E-2,2.344179153E-1,2.599533331E-1
7.755445541E0,1.153594851E-1,8.884716034E-2,3.310365677E-1,3.616446292E-1
7.760416895E0,1.277286410E-1,5.943298340E-2,4.626798630E-1,4.836522933E-1
7.765392937E0,1.544100642E-1,4.616641998E-2,7.147188187E-1,7.326641768E-1
7.770368926E0,5.767148733E-2,-1.585292816E-2,8.441371918E-1,8.462534575E-1
7.775344968E0,-9.955823421E-2,-3.838491440E-2,8.210916519E-1,8.279956186E-1
7.780320957E0,-1.315764487E-1,-6.452608109E-2,7.300071716E-1,7.445713180E-1
7.785296999E0,-1.128858328E-1,-4.176855087E-2,5.998411179E-1,6.117983244E-1
7.790233770E0,-1.081995368E-1,3.020334244E-2,3.664417267E-1,3.832739500E-1
7.795209812E0,-7.960218191E-2,8.737277985E-2,5.180740356E-2,1.290523812E-1
7.800185801E0,-4.402422905E-2,1.209135056E-1,-2.248668671E-1,2.590816792E-1
7.805161843E0,-5.881899595E-2,1.481866837E-1,-4.807672501E-1,5.065136881E-1
7.810137885E0,-1.120550632E-1,1.246848106E-1,-7.543306351E-1,7.727336839E-1
7.815113874E0,-1.111590266E-1,9.148645401E-2,-9.813795090E-1,9.918829775E-1
7.820078666E0,-5.930036306E-2,5.829954147E-2,-1.053062916E0,1.056341268E0
7.825054707E0,1.259964705E-2,7.463598251E-2,-8.659954071E-1,8.692970299E-1
7.830030749E0,1.071255803E-1,1.370267868E-1,-4.172754288E-1,4.520741241E-1
7.835006791E0,1.038106680E-1,1.371216774E-1,5.857181549E-2,1.816856262E-1
7.839982780E0,1.332217455E-2,5.102014542E-2,5.212364197E-1,5.238968799E-1
7.844958822E0,-5.406010151E-2,-3.591060638E-2,9.213409424E-1,9.236239486E-1
7.849966374E0,-1.559072435E-1,-1.691451073E-1,1.119441986E0,1.142833101E0
7.854942416E0,-2.660492659E-1,-2.202215195E-1,1.126835823E0,1.178574860E0
7.859918405E0,-2.659880221E-1,-2.205176353E-1,1.094701767E0,1.147932757E0
7.864894447E0,-1.588815749E-1,-1.295328140E-1,9.850912094E-1,1.006194214E0
7.869870437E0,-5.714172125E-2,-1.392745972E-2,7.888412476E-1,7.910307606E-1
7.874846478E0,1.803207397E-2,2.453660965E-2,5.040063858E-1,5.049253785E-1
7.879816062E0,1.118522286E-1,6.549167633E-2,1.167945862E-1,1.744736544E-1
7.884792103E0,1.998491287E-1,1.283578873E-1,-2.129526138E-1,3.190050740E-1
7.889768093E0,1.985775232E-1,8.476781845E-2,-4.406013489E-1,4.906609465E-1
7.894744135E0,1.536903977E-1,1.164011955E-1,-6.217441559E-1,6.509498998E-1
7.899720176E0,1.246463656E-1,1.250753403E-1,-6.759061813E-1,6.985912418E-1
7.904696166E0,6.692093611E-2,1.440062523E-1,-5.066862106E-1,5.309869381E-1
7.909631062E0,2.890914679E-2,1.418204308E-1,-2.155694962E-1,2.596516532E-1
7.914607103E0,-1.306200027E-2,7.544851303E-2,8.974933624E-2,1.179747317E-1
7.919583093E0,-8.265113831E-2,-1.446676254E-2,2.501182556E-1,2.638174363E-1
7.924559135E0,-1.179326177E-1,-4.709625244E-2,3.452081680E-1,3.678244671E-1
7.929535176E0,-1.405957043E-1,-8.952856064E-2,4.112453461E-1,4.437400702E-1
7.934511218E0,-1.485773921E-1,-9.160852432E-2,3.985099792E-1,4.350604173E-1
7.939515228E0,-1.516382992E-1,-7.491636276E-2,3.503599167E-1,3.890484628E-1
7.944491270E0,-1.117950082E-1,-5.605363846E-2,2.860069275E-1,3.121539633E-1
7.949467260E0,-7.940852642E-2,-3.697109222E-2,1.887493134E-1,2.080838269E-1
