"Time (s)","Linear Acceleration x (m/s^2)","Linear Acceleration y (m/s^2)","Linear Acceleration z (m/s^2)","Absolute acceleration (m/s^2)"
7.643621900E-2,4.970893264E-2,-3.302574158E-2,-2.315435410E-1,2.391110390E-1
8.143528100E-2,3.463962674E-2,-9.912490845E-3,-2.046384811E-1,2.077861140E-1
8.643439600E-2,3.196778893E-2,-2.777814865E-2,-2.659349442E-1,2.692860182E-1
9.143351000E-2,1.165702939E-2,-1.047372818E-1,-3.005657196E-1,3.185051590E-1
9.643262500E-2,7.781773806E-3,-8.900737762E-2,-3.422713280E-1,3.537407684E-1
1.013578850E-1,-5.480769277E-2,-8.208942413E-2,-3.509206772E-1,3.645378971E-1
1.063570000E-1,-1.342677474E-1,-4.836416245E-2,-2.631053925E-1,2.993181714E-1
1.113561140E-1,-5.497132540E-1,1.784420013E-1,-8.234167099E-2,5.837862282E-1
1.163552290E-1,-9.655327797E-1,2.588653564E-1,1.339516640E-1,1.008567236E0
1.213543440E-1,-1.022685766E0,7.873773575E-2,2.804594040E-1,1.063364136E0
1.263534580E-1,-1.000796199E0,-2.510499954E-2,2.420473099E-1,1.029956403E0
1.311650210E-1,-9.633209705E-1,5.969524384E-3,2.046318054E-1,9.848335409E-1
1.361641350E-1,-8.371146917E-1,1.057901382E-1,1.623086929E-1,8.592419172E-1
1.411633020E-1,-5.716619492E-1,1.992039680E-1,1.014051437E-1,6.138099121E-1
1.461623640E-1,-3.025245070E-1,3.189001083E-1,1.279516220E-1,4.578099759E-1
1.511614790E-1,-9.210150689E-2,3.655400276E-1,1.261119843E-1,3.975002288E-1
1.561605940E-1,6.111399829E-2,4.091839790E-1,7.918167114E-2,4.212317492E-1
1.610531980E-1,2.464685738E-1,3.640828133E-1,-4.724884033E-2,4.421939684E-1
1.660523120E-1,3.673016429E-1,2.827091217E-1,-1.912059784E-1,5.013927308E-1
1.710514270E-1,3.982443810E-1,1.479768753E-1,-3.753480911E-1,5.669055760E-1
1.760505420E-1,4.579612017E-1,4.850864410E-2,-4.980363846E-1,6.783227780E-1
1.810496560E-1,5.634649992E-1,-5.447006226E-2,-5.531187057E-1,7.914544179E-1
1.860487710E-1,6.235001087E-1,-1.430954933E-1,-4.836616516E-1,8.019708841E-1
1.908627810E-1,5.828889608E-1,-2.395915985E-1,-4.203395844E-1,7.575282443E-1
1.958618960E-1,5.774867535E-1,-2.282471657E-1,-3.537783623E-1,7.146655502E-1
2.008610100E-1,5.478354692E-1,-2.775545120E-1,-2.371325493E-1,6.583251890E-1
2.058601250E-1,5.010618567E-1,-3.557991982E-1,-5.767917633E-2,6.172381559E-1
2.108592390E-1,4.370597303E-1,-3.698492050E-1,7.668876648E-2,5.776597694E-1
2.158583540E-1,3.745365143E-1,-3.682775497E-1,2.443132401E-1,5.793055441E-1
2.207111140E-1,3.115686774E-1,-3.520126343E-1,4.100055695E-1,6.237727971E-1
2.257102290E-1,2.892990708E-1,-3.393769264E-1,5.319528580E-1,6.941501953E-1
2.307093440E-1,3.023379147E-1,-3.049516678E-1,5.514678955E-1,6.989424684E-1
2.357084580E-1,2.732732296E-1,-2.794804573E-1,4.808120728E-1,6.196513805E-1
2.407075730E-1,2.339168191E-1,-2.623515129E-1,3.896522522E-1,5.247611573E-1
2.457066870E-1,1.405974030E-1,-2.413835526E-1,2.874851227E-1,4.008507764E-1
2.505950210E-1,1.351816058E-1,-1.931419373E-1,1.905574799E-1,3.031336794E-1
2.555941350E-1,3.784942627E-2,-1.947655678E-1,1.985597610E-1,2.806994552E-1
2.605932500E-1,-9.019601345E-2,-1.446752548E-1,1.477479935E-1,2.256007974E-1
2.655923640E-1,-1.160874069E-1,-6.262302399E-2,-2.359199524E-2,1.339944454E-1
2.705914790E-1,-9.663033485E-2,2.231216431E-2,-2.967643738E-2,1.035178498E-1
2.755905940E-1,-8.916974068E-2,7.249593735E-2,3.687286377E-2,1.206918045E-1
2.804056460E-1,-8.842915297E-2,8.596515656E-2,7.179164886E-2,1.427016611E-1
2.854047600E-1,-7.169342041E-2,1.320028305E-1,1.340618134E-1,2.013386788E-1
2.904038750E-1,-4.114872217E-2,1.135225296E-1,1.249732971E-1,1.737783273E-1
2.954029890E-1,3.104448318E-2,4.155826569E-2,6.228733063E-2,8.105899666E-2
3.004021040E-1,6.225734949E-2,-1.940441132E-2,-3.778457642E-3,6.532063599E-2
3.054012190E-1,1.308914423E-1,-9.534835815E-2,-1.934146881E-2,1.630888454E-1
3.102532500E-1,2.152841091E-1,-1.133694649E-1,2.163314819E-2,2.442700888E-1
3.152523640E-1,2.210846543E-1,-1.000161171E-1,7.552051544E-2,2.541357832E-1
3.202514790E-1,2.695350647E-1,-7.502460480E-2,1.493902206E-1,3.171675905E-1
3.252505940E-1,2.699146867E-1,-7.657957077E-2,2.361736298E-1,3.667374431E-1
3.302497080E-1,2.696046829E-1,-1.136255264E-1,2.652568817E-1,3.949160146E-1
3.352488230E-1,2.142598629E-1,-1.223387718E-1,2.708530426E-1,3.663815424E-1
3.401006460E-1,1.001729369E-1,-1.997842789E-1,2.346448898E-1,3.240472183E-1
3.450997600E-1,1.011252403E-3,-2.734518051E-1,1.945362091E-1,3.355908953E-1
3.500988750E-1,-5.931431055E-2,-2.802295685E-1,1.765985489E-1,3.365023714E-1
3.550979890E-1,-8.605623245E-2,-3.129901886E-1,1.356296539E-1,3.518009897E-1
3.600971040E-1,-5.836439133E-2,-3.288640976E-1,1.166753769E-1,3.537953369E-1
3.650962190E-1,-2.608424425E-2,-3.233866692E-1,6.039619446E-2,3.300106451E-1
3.699842390E-1,3.217428923E-2,-2.570991516E-1,2.405357361E-2,2.602186255E-1
3.749833540E-1,1.181080341E-1,-2.059955597E-1,-7.043838501E-3,2.375569279E-1
3.799824690E-1,2.203301191E-1,-1.676526070E-1,2.127456665E-2,2.776785285E-1
3.849815830E-1,2.915581465E-1,-1.726589203E-1,7.516670227E-2,3.470839793E-1
3.899806980E-1,3.748022914E-1,-1.755337715E-1,2.452945709E-2,4.145968606E-1
3.949798120E-1,3.896455169E-1,-1.857976913E-1,-1.816368103E-2,4.320582487E-1
3.998336140E-1,3.988581896E-1,-1.895995140E-1,6.152153015E-3,4.416714617E-1
4.048327290E-1,3.761782050E-1,-2.196526527E-1,1.366519928E-2,4.358257306E-1
4.098318440E-1,3.649418354E-1,-1.956024170E-1,2.363395691E-2,4.147305302E-1
4.148309580E-1,3.104854822E-1,-1.558747292E-1,2.913475037E-3,3.474286318E-1
4.198300730E-1,2.790600061E-1,-1.477127075E-1,-6.231689453E-2,3.218336936E-1
4.248291870E-1,2.841421962E-1,-8.324289322E-2,-1.785297394E-1,3.457441753E-1
4.296719480E-1,2.724350691E-1,-3.893756866E-2,-2.385931015E-1,3.642302420E-1
4.346710620E-1,2.250837088E-1,-2.355957031E-2,-3.191308975E-1,3.912317204E-1
4.396701770E-1,1.068968177E-1,-1.278209686E-2,-4.106073380E-1,4.244863927E-1
4.446692920E-1,2.018159628E-2,1.249170303E-2,-5.058646202E-1,5.064211226E-1
4.496684060E-1,-1.666492224E-2,2.387857437E-2,-5.718750954E-1,5.726159539E-1
4.546675210E-1,-4.160702229E-3,4.038715363E-2,-5.877099037E-1,5.891106556E-1
4.595295520E-1,4.073005915E-2,8.762073517E-2,-5.254302025E-1,5.342407965E-1
4.645286670E-1,5.639046431E-2,1.066350937E-1,-4.715218544E-1,4.867070853E-1
4.695277810E-1,6.284832954E-2,1.258301735E-1,-3.310966492E-1,3.597334238E-1
4.745269480E-1,1.317476630E-1,1.260495186E-1,-2.328634262E-1,2.957554786E-1
4.795260100E-1,2.178079486E-1,1.499695778E-1,-1.265401840E-1,2.931613803E-1
4.845251250E-1,2.709833980E-1,1.710376740E-1,-1.675987244E-2,3.208843736E-1
4.893771560E-1,3.293392658E-1,1.298470497E-1,2.562522888E-2,3.549383900E-1
4.943762710E-1,3.143787980E-1,1.504955292E-1,3.443336487E-2,3.502407594E-1
4.993753850E-1,2.076206207E-1,1.154108047E-1,2.047672272E-1,3.136169532E-1
5.043745000E-1,1.211653352E-1,1.128215790E-1,3.572492599E-1,3.937471027E-1
5.093736140E-1,3.083693981E-2,8.797264099E-2,4.044542313E-1,4.150582219E-1
5.143727290E-1,-4.652857780E-2,3.908729553E-2,3.520631790E-1,3.572690964E-1
5.192238230E-1,-4.970437288E-2,4.625797272E-3,2.365398407E-1,2.417499099E-1
5.242229370E-1,-1.026225090E-2,2.273750305E-2,9.383678436E-2,9.709608611E-2
5.292220520E-1,3.120905161E-2,-1.828193665E-3,6.869029999E-2,7.546989139E-2
5.342211670E-1,6.298834085E-2,1.626014709E-4,7.447624207E-2,9.754111008E-2
5.392202810E-1,9.442383051E-2,-7.037162781E-3,3.973960876E-2,1.026869901E-1
5.442193960E-1,1.302196383E-1,1.949071884E-2,5.488777161E-2,1.426524090E-1
5.490589790E-1,1.488779187E-1,7.442855835E-2,1.148204803E-1,2.022077834E-1
5.540533020E-1,1.863610744E-1,1.148738861E-1,1.597614288E-1,2.710169255E-1
5.590475730E-1,2.161945701E-1,1.217598915E-1,2.066402435E-1,3.229020804E-1
5.640418960E-1,1.624694467E-1,1.024804115E-1,2.341480255E-1,3.028594620E-1
5.690362190E-1,9.025120735E-2,6.896734238E-2,3.279476166E-1,3.470611098E-1
5.740304890E-1,2.807283401E-2,6.392431259E-2,4.471693039E-1,4.525867741E-1
5.789186140E-1,-2.414977551E-2,6.290817261E-2,5.443983078E-1,5.485527936E-1
5.839129370E-1,-3.813832998E-2,7.783412933E-2,5.842275620E-1,5.906221534E-1
5.889072080E-1,-3.114378452E-2,7.281160355E-2,5.436000824E-1,5.493382515E-1
5.939015310E-1,-1.193982959E-1,5.981540680E-2,5.276918411E-1,5.443275807E-1
5.988958540E-1,-2.212015986E-1,4.140281677E-2,5.053367615E-1,5.531813292E-1
6.038901250E-1,-3.223367929E-1,-8.327484131E-3,4.148044586E-1,5.253885172E-1
6.087674690E-1,-4.322556853E-1,-4.606199265E-2,2.897453308E-1,5.224165401E-1
6.137617390E-1,-4.201767743E-1,-6.466865540E-2,1.730880737E-1,4.590098451E-1
6.187560620E-1,-3.964288235E-1,-5.464172363E-2,1.192331314E-1,4.175620549E-1
6.237503850E-1,-2.989030480E-1,-4.311561584E-3,2.069568634E-2,2.996496840E-1
6.287447080E-1,-1.828833818E-1,3.619337082E-2,-7.469940186E-2,2.008389705E-1
6.337389790E-1,-1.005758643E-1,7.635068893E-2,-1.598234177E-1,2.036871548E-1
6.386117920E-1,-2.336823940E-2,8.769798279E-2,-2.062788010E-1,2.253618302E-1
6.436060620E-1,2.022033930E-2,5.859804153E-2,-2.832593918E-1,2.899628866E-1
6.486003850E-1,8.255672455E-2,2.044200897E-2,-3.621006012E-1,3.719547471E-1
6.535947080E-1,8.991205692E-2,4.169464111E-3,-4.261693954E-1,4.355707934E-1
6.585890310E-1,1.138173938E-1,-4.535198212E-3,-4.614000320E-1,4.752525189E-1
6.635833020E-1,1.113402843E-1,-3.053665161E-3,-4.967155457E-1,5.090504072E-1
6.684624690E-1,8.721238375E-2,1.574563980E-2,-5.653724670E-1,5.722761148E-1
6.734567920E-1,7.944440842E-2,2.335834503E-2,-6.196489334E-1,6.251574418E-1
6.784510620E-1,-1.229166985E-2,5.072164536E-2,-6.049628258E-1,6.072098410E-1
6.834453850E-1,-1.088059545E-1,5.969858170E-2,-5.694298744E-1,5.827975963E-1
6.884397080E-1,-1.573477387E-1,7.180833817E-2,-4.491195679E-1,4.812724120E-1
6.934339790E-1,-1.407142878E-1,1.082658768E-1,-2.685070038E-1,3.218975333E-1
6.982748640E-1,1.943004131E-2,1.375408173E-1,-1.656627655E-1,2.161924023E-1
7.032691350E-1,1.174545288E-1,2.262783051E-1,-1.399650574E-1,2.908395691E-1
7.082634580E-1,1.181552410E-1,2.573757172E-1,-1.407566071E-1,3.162520248E-1
7.132577810E-1,1.486601830E-1,2.074599266E-1,-3.239250183E-2,2.572717344E-1
7.182521040E-1,1.158734560E-1,2.242460251E-1,4.659748077E-2,2.566792995E-1
7.232463750E-1,-2.489644289E-2,2.569093704E-1,1.584529877E-1,3.028689598E-1
7.281206460E-1,-1.521661878E-1,3.073892593E-1,1.962270737E-1,3.951553744E-1
7.331149690E-1,-2.994570732E-1,3.209991455E-1,2.032556534E-1,4.837642512E-1
7.381092390E-1,-3.985922039E-1,3.050389290E-1,1.965808868E-1,5.390440968E-1
7.431035620E-1,-4.692617953E-1,2.361021042E-1,1.501493454E-1,5.463475652E-1
7.480978850E-1,-4.336737692E-1,1.648759842E-1,4.036140442E-2,4.657102868E-1
7.530921560E-1,-3.851593435E-1,1.321277618E-1,-5.884170532E-2,4.114216956E-1
7.580053330E-1,-3.044323325E-1,1.186518669E-1,-7.638740540E-2,3.355478301E-1
7.629996040E-1,-2.316218019E-1,1.006712914E-1,-1.308250427E-2,2.528923089E-1
7.679939270E-1,-1.616500616E-1,1.473016739E-1,6.744384766E-3,2.188013078E-1
7.729882500E-1,-1.112064123E-1,1.937203407E-1,1.379518509E-1,2.625359970E-1
7.779825730E-1,-9.907990694E-2,2.302837372E-1,2.561645508E-1,3.584239175E-1
7.829768440E-1,-8.909720182E-2,2.380051613E-1,2.807397842E-1,3.786813893E-1
7.878535620E-1,-1.291984916E-1,2.194442749E-1,2.719144821E-1,3.725392940E-1
7.928478330E-1,-1.599037051E-1,1.962823868E-1,2.845840454E-1,3.808990013E-1
7.978421560E-1,-1.628977656E-1,1.634378433E-1,3.140783310E-1,3.897342796E-1
8.028364790E-1,-1.597403884E-1,1.944870949E-1,3.555822372E-1,4.356385534E-1
8.078308020E-1,-1.669040918E-1,2.056574821E-1,4.660453796E-1,5.360506242E-1
8.128250730E-1,-1.343517900E-1,1.969823837E-1,5.071802139E-1,5.604321836E-1
8.177009060E-1,-6.212532520E-2,1.829223633E-1,5.032730103E-1,5.390768682E-1
8.226951770E-1,1.166868210E-2,1.966018677E-1,4.524059296E-1,4.934162316E-1
8.276895000E-1,8.469825983E-2,1.856956482E-1,3.928794861E-1,4.427312498E-1
8.326838230E-1,9.768509865E-2,1.958036423E-1,2.628479004E-1,3.420094495E-1
8.376781460E-1,1.348410845E-1,1.722526550E-1,1.910505295E-1,2.904365680E-1
8.426724170E-1,1.795644164E-1,1.393084526E-1,1.340951920E-1,2.638782771E-1
8.475497600E-1,1.769542694E-1,1.260595322E-1,2.507305145E-2,2.187063717E-1
8.525440830E-1,1.717794538E-1,8.496141434E-2,-1.545991898E-1,2.462265870E-1
8.575383540E-1,1.255529523E-1,2.596092224E-2,-2.476310730E-1,2.788524011E-1
8.625326770E-1,1.011568308E-1,3.800868988E-3,-1.811389923E-1,2.075053868E-1
8.675270000E-1,9.183645248E-2,-7.966518402E-3,-9.189891815E-2,1.301645519E-1
8.725212710E-1,1.085034013E-1,2.592897415E-2,-1.461610794E-1,1.838705004E-1
8.773612190E-1,1.241601706E-1,6.186294556E-2,-1.737394333E-1,2.223244536E-1
8.823554890E-1,1.103175282E-1,4.967689514E-2,-1.248235703E-1,1.738351939E-1
8.873498120E-1,7.722747326E-2,6.106615067E-2,-1.046314240E-1,1.436693853E-1
8.923441350E-1,2.331334352E-2,4.124355316E-2,-9.637355804E-2,1.073890374E-1
8.973384580E-1,2.298313379E-2,3.332042694E-2,-9.292507172E-2,1.013584937E-1
9.023327290E-1,4.246091843E-2,6.500244141E-3,-2.012453079E-1,2.057786596E-1
9.072439790E-1,6.722688675E-2,-5.694389343E-3,-2.969264984E-1,3.044950342E-1
9.122383020E-1,6.618577242E-2,2.285814285E-2,-3.943796158E-1,4.005475409E-1
9.172325730E-1,8.930474520E-2,4.193305969E-2,-4.033060074E-1,4.151980908E-1
9.222268960E-1,1.219731569E-1,8.741998672E-2,-4.124298096E-1,4.388827325E-1
9.272212190E-1,9.729713202E-2,7.851600647E-2,-4.242057800E-1,4.422465816E-1
9.322154890E-1,1.319700480E-2,8.442878723E-2,-4.218902588E-1,4.304576303E-1
9.370930940E-1,-6.107014418E-2,7.178640366E-2,-4.174737930E-1,4.279803946E-1
9.420874170E-1,-1.017027497E-1,3.839302063E-2,-3.801155090E-1,3.953546175E-1
9.470816870E-1,-9.468758106E-2,2.018976212E-2,-3.481779099E-1,3.613879099E-1
9.520760100E-1,-7.840383053E-2,2.417182922E-2,-3.311185837E-1,3.411318725E-1
9.570703330E-1,-2.440243959E-2,5.002212524E-2,-2.622222900E-1,2.680638384E-1
9.620646040E-1,4.566174746E-2,3.317403793E-2,-1.940460205E-1,2.020875307E-1
9.669396040E-1,1.222336888E-1,2.821588516E-2,-1.216068268E-1,1.747152861E-1
9.719338750E-1,1.463321447E-1,4.455232620E-2,-3.310298920E-2,1.565049975E-1
9.769281980E-1,9.195518494E-2,2.502584457E-2,6.421375275E-2,1.149149902E-1
9.819225210E-1,6.884950399E-2,4.344081879E-2,7.771396637E-2,1.125469658E-1
9.869168440E-1,7.909649611E-2,3.295230865E-2,5.561733246E-2,1.021537959E-1
9.919111140E-1,7.460188866E-2,3.195619583E-2,3.854560852E-2,8.984655908E-2
9.967485100E-1,5.065935850E-2,3.560781479E-2,2.647113800E-2,6.734246970E-2
1.001742781E0,4.802560806E-2,2.776718140E-2,-2.847385406E-2,6.235571953E-2
1.006737104E0,2.868872881E-2,3.932476044E-2,-2.374744415E-2,5.416106579E-2
1.011731427E0,9.736317396E-2,2.721405029E-2,-2.153301239E-2,1.033627728E-1
1.016725750E0,1.536058784E-1,7.722187042E-2,1.615619659E-2,1.726818051E-1
1.021720021E0,1.809624434E-1,1.149120331E-1,8.679866791E-2,2.312708153E-1
1.026635229E0,2.058457136E-1,1.115760803E-1,1.665315628E-1,2.873228862E-1
1.031629500E0,1.902902126E-1,1.102957726E-1,2.291564941E-1,3.176290624E-1
1.036623823E0,1.467860937E-1,1.442742348E-1,2.463102341E-1,3.209827776E-1
1.041618146E0,1.255332828E-1,1.301794052E-1,2.753162384E-1,3.293999298E-1
1.046612469E0,1.096410751E-1,1.134657860E-1,2.614908218E-1,3.054064502E-1
1.051606739E0,8.955782652E-2,8.233070374E-2,2.716760635E-1,2.976689983E-1
1.056482208E0,7.210952044E-2,4.880237579E-2,2.035341263E-1,2.213765918E-1
1.061472573E0,9.032142162E-2,4.163122177E-2,1.455011368E-1,1.762432939E-1
1.066462989E0,9.144818783E-2,2.247095108E-2,8.569717407E-2,1.273252541E-1
1.071453354E0,1.113415360E-1,1.544094086E-2,2.161026001E-2,1.144655566E-1
1.076443719E0,1.285722256E-1,-1.270341873E-2,-5.392646790E-2,1.400009213E-1
1.081434135E0,1.145181656E-1,-2.258300781E-3,-1.741399765E-1,2.084328227E-1
1.086329864E0,1.502037048E-1,1.340866089E-2,-2.556304932E-1,2.967960481E-1
1.091320229E0,1.734480262E-1,5.797719955E-2,-2.440643311E-1,3.049802799E-1
1.096310646E0,2.125049829E-1,5.962944031E-2,-2.540435791E-1,3.365296094E-1
1.101301010E0,2.049688697E-1,7.336568832E-2,-3.304853439E-1,3.957465405E-1
1.106291427E0,1.536643505E-1,6.085824966E-2,-2.422904968E-1,2.932936140E-1
1.111281792E0,8.800220490E-2,-1.347637177E-2,-1.428146362E-1,1.682914763E-1
1.116176687E0,2.006971836E-2,-3.507041931E-2,-1.295700073E-1,1.357244072E-1
1.121167052E0,-2.376621962E-2,-4.437971115E-2,-1.497964859E-1,1.580296781E-1
1.126157469E0,-5.315834284E-2,-8.438396454E-2,-1.817741394E-1,2.073362020E-1
1.131147833E0,-3.712701797E-2,-6.174135208E-2,-2.114124298E-1,2.233509022E-1
1.136138250E0,6.226718426E-2,1.825714111E-2,-2.268648148E-1,2.359622207E-1
1.141128614E0,1.996616125E-1,9.796762466E-2,-1.735677719E-1,2.821137828E-1
1.146000698E0,2.304070592E-1,5.343246460E-2,-1.151943207E-2,2.368018972E-1
1.150991062E0,1.767257452E-1,1.176166534E-2,1.038732529E-1,2.053289518E-1
1.155981427E0,1.220265031E-1,-3.685712814E-2,5.679130554E-2,1.395498754E-1
1.160971844E0,5.395984650E-2,-4.243803024E-2,4.815101624E-2,8.385208292E-2
1.165962260E0,-2.063727379E-2,-6.987285614E-2,5.887222290E-2,9.366990832E-2
1.170952625E0,-1.187653542E-1,-9.259653091E-2,-2.770900726E-2,1.531245113E-1
1.175844552E0,-1.331415772E-1,-5.589437485E-2,-6.120300293E-2,1.568332500E-1
1.180834917E0,-1.616300344E-1,-5.950117111E-2,-8.036804199E-2,1.900623044E-1
1.185825333E0,-1.543371677E-1,-3.882837296E-2,-1.993999481E-1,2.551233882E-1
1.190815698E0,-5.724996328E-2,1.072645187E-2,-2.701864243E-1,2.763934133E-1
1.195806114E0,1.959425211E-2,2.471733093E-2,-2.550840378E-1,2.570267447E-1
1.200796479E0,7.403701544E-2,3.175592422E-2,-1.570835114E-1,1.765365342E-1
1.205695646E0,1.540709734E-1,5.297183990E-2,-1.474094391E-2,1.635884351E-1
1.210686010E0,1.432210803E-1,4.295301437E-2,1.170110703E-1,1.898652940E-1
1.215676427E0,-7.884025574E-3,1.596927643E-2,2.265329361E-1,2.272319229E-1
1.220666792E0,-1.199169755E-1,-2.563142776E-2,3.402290344E-1,3.616529372E-1
1.225657208E0,-1.622598767E-1,-2.967691422E-2,3.679018021E-1,4.031881977E-1
1.230647573E0,-1.495145559E-1,-1.292419434E-2,3.386564255E-1,3.704184279E-1
1.235539917E0,-9.885329008E-2,-4.679584503E-2,3.147268295E-1,3.331888373E-1
1.240530281E0,-1.507502794E-2,-3.543376923E-2,2.245588303E-1,2.278365131E-1
1.245520698E0,4.927098751E-2,6.679058075E-3,8.525657654E-2,9.869611882E-2
1.250511062E0,4.700028896E-2,-1.071119308E-2,3.247737885E-2,5.812518350E-2
1.255501479E0,7.651138306E-2,1.776838303E-2,-4.874801636E-2,9.244499052E-2
1.260491844E0,1.351175904E-1,3.723621368E-2,-6.322860718E-2,1.537568067E-1
1.265401792E0,1.818718910E-1,6.410980225E-2,-8.023357391E-2,2.088656934E-1
1.270392156E0,2.027628422E-1,7.711601257E-2,-1.687316895E-1,2.748272777E-1
1.275382573E0,1.669078469E-1,5.976629257E-2,-1.119480133E-1,2.096725942E-1
1.280372937E0,1.151410341E-1,1.678419113E-2,-6.772327423E-2,1.346313808E-1
1.285363354E0,1.137183309E-1,-2.335071564E-2,-9.756183624E-2,1.516424300E-1
1.290353719E0,9.269672632E-2,-7.732057571E-2,-1.413908005E-1,1.859099593E-1
1.295237260E0,-3.373587132E-2,-1.236934662E-1,-1.348857880E-1,1.860977119E-1
1.300227625E0,-1.435077786E-1,-1.505432129E-1,-1.307926178E-1,2.456917792E-1
1.305218042E0,-1.723269224E-1,-1.274595261E-1,-9.806823730E-2,2.357114298E-1
1.310208406E0,-2.156398296E-1,-1.023917198E-1,1.292610168E-2,2.390641849E-1
1.315198823E0,-2.706001699E-1,-9.203433990E-2,5.662631989E-2,2.913782967E-1
1.320189187E0,-2.753970027E-1,-5.101537704E-2,7.629966736E-2,2.902890233E-1
1.325088354E0,-2.588363290E-1,-5.829477310E-2,1.198043823E-1,2.911144376E-1
1.330078719E0,-2.112627327E-1,-5.870389938E-2,1.749744415E-1,2.805247676E-1
1.335069135E0,-1.471166015E-1,-5.461549759E-2,2.131681442E-1,2.647013500E-1
1.340059500E0,-1.069896221E-1,-4.387474060E-2,2.179965973E-1,2.467676813E-1
1.345049917E0,-9.997034073E-2,-5.953359604E-2,2.537260056E-1,2.791329504E-1
1.350040281E0,-5.943101645E-2,-4.905891418E-2,2.274427414E-1,2.401437557E-1
1.354960802E0,-4.031747580E-2,-3.159284592E-2,2.132625580E-1,2.193274388E-1
1.359951219E0,-3.044557571E-2,-2.372598648E-2,1.706438065E-1,1.749547490E-1
1.364941635E0,-2.489697933E-2,-1.814889908E-2,8.076095581E-2,8.643826757E-2
1.369932000E0,-5.733752251E-2,-3.868103027E-2,1.534938812E-2,7.084784616E-2
1.374922417E0,-1.605755091E-2,-4.462480545E-2,-3.532886505E-2,5.913837086E-2
1.379912781E0,4.404783249E-4,-3.381538391E-2,-5.468368530E-2,6.429603136E-2
1.384770333E0,-6.260830164E-2,-7.324171066E-2,-1.903057098E-2,9.821563138E-2
1.389760698E0,-1.283468604E-1,-1.005682945E-1,1.644420624E-2,1.638820013E-1
1.394751114E0,-1.492482424E-1,-9.448814392E-2,8.968353271E-3,1.768713616E-1
1.399741479E0,-1.328130960E-1,-7.893419266E-2,-6.015491486E-2,1.657966798E-1
1.404731896E0,-1.053193808E-1,-5.375623703E-2,-9.076595306E-2,1.490649631E-1
1.409722312E0,-9.266203642E-2,-2.851533890E-2,-1.093492508E-1,1.461390988E-1
1.414617156E0,-3.008770943E-2,1.072978973E-2,-6.599998474E-2,7.332391583E-2
1.419607521E0,1.516979933E-2,3.577232361E-2,-5.406570435E-2,6.657989437E-2
1.424597937E0,-1.373642683E-2,2.518701553E-2,-6.369972229E-2,6.986222007E-2
1.429588302E0,-3.758513927E-2,1.728391647E-2,5.032539368E-3,4.167376771E-2
1.434578719E0,-5.884134769E-2,1.656436920E-2,6.369876862E-2,8.828485515E-2
1.439569083E0,-1.109939218E-1,4.082679749E-3,4.820156097E-2,1.210772870E-1
1.444500750E0,-1.485455036E-1,2.504253387E-2,-4.083442688E-2,1.560780112E-1
1.449491114E0,-1.547754407E-1,4.358434677E-2,-2.704906464E-2,1.630542371E-1
1.454481479E0,-1.608614326E-1,-4.333019257E-3,-9.662532806E-2,1.877009045E-1
1.459471896E0,-1.427665353E-1,-3.268289566E-2,-1.372165680E-1,2.006958938E-1
1.464462312E0,-9.102749825E-2,-9.628295898E-2,-2.078914642E-2,1.341215950E-1
1.469452677E0,-2.257758379E-2,-9.977436066E-2,7.078933716E-2,1.244017708E-1
1.474284083E0,3.633373976E-2,-7.707786560E-2,1.902866364E-2,8.731109924E-2
1.479274448E0,7.856899500E-2,-4.444456100E-2,-2.074909210E-2,9.262251779E-2
1.484264864E0,9.001004696E-2,-4.499435425E-3,-6.519126892E-2,1.112292903E-1
1.489255229E0,7.058817148E-2,-2.559185028E-3,-9.754657745E-2,1.204349374E-1
1.494245646E0,6.424605846E-3,2.331304550E-2,-7.509231567E-2,7.888998367E-2
1.499236010E0,-2.876812220E-2,3.949642181E-3,-4.811477661E-2,5.619818731E-2
1.504198042E0,-7.112348080E-2,-5.818033218E-2,-1.886940002E-2,9.380594241E-2
1.509188458E0,-1.084659696E-1,-8.883142471E-2,-3.977298737E-2,1.457318740E-1
1.514178875E0,-1.050425768E-1,-1.213040352E-1,-7.964134216E-2,1.791406020E-1
1.519169239E0,-5.876773596E-2,-1.630334854E-1,-3.126525879E-2,1.760996325E-1
1.524159604E0,-3.439593315E-2,-1.997332573E-1,-1.649379730E-2,2.033433049E-1
1.529150021E0,-8.429229259E-2,-1.339130402E-1,2.667427063E-2,1.604662258E-1
1.534046375E0,-1.249368191E-1,-7.150602341E-2,1.291646957E-1,1.934058912E-1
1.539036792E0,-1.493925452E-1,-5.044031143E-2,2.477045059E-1,2.936322187E-1
1.544027156E0,-1.790618598E-1,-3.519487381E-2,3.396053314E-1,3.855302970E-1
1.549017573E0,-1.497152448E-1,-1.636362076E-2,4.099006653E-1,4.366932310E-1
1.554007989E0,-1.471968293E-1,2.731180191E-2,4.587984085E-1,4.826062792E-1
1.558998354E0,-1.257715821E-1,2.924156189E-2,4.056167603E-1,4.256741900E-1
1.563895542E0,-9.961074591E-2,-2.410984039E-2,3.697900772E-1,3.837294441E-1
1.568882781E0,-7.814842463E-2,-3.455686569E-2,2.940015793E-1,3.061670816E-1
1.573870021E0,-9.702891111E-2,-5.235624313E-2,2.284774780E-1,2.536882807E-1
1.578857260E0,-5.835020542E-2,-8.200550079E-2,1.896600723E-1,2.147104834E-1
1.583844552E0,1.899838448E-3,-9.260845184E-2,1.939840317E-1,2.149645070E-1
1.588831792E0,2.414661646E-2,-7.953834534E-2,1.935634613E-1,2.106566425E-1
1.593741948E0,-5.624234676E-3,-9.543609619E-2,1.932773590E-1,2.156288895E-1
1.598729187E0,1.496386528E-2,-1.186633110E-1,1.598758698E-1,1.996626965E-1
1.603716427E0,1.367479563E-2,-1.184015274E-1,1.459951401E-1,1.884688374E-1
1.608703667E0,-5.705791712E-2,-1.258735657E-1,5.653381348E-2,1.493178908E-1
1.613690958E0,-4.226744175E-2,-9.093284607E-2,2.981472015E-2,1.046147058E-1
1.618678146E0,-3.063452244E-2,-7.802963257E-2,5.817699432E-2,1.020375431E-1
1.623550906E0,-4.052460194E-2,-1.800489426E-2,5.792999268E-2,7.295412004E-2
1.628538146E0,-4.655718803E-4,-4.893445969E-2,6.489753723E-2,8.128030783E-2
1.633525385E0,-2.469319105E-2,-3.699541092E-2,5.998611450E-2,7.467762748E-2
1.638512625E0,1.372039318E-3,-1.600599289E-2,3.150558472E-2,3.536490023E-2
1.643499864E0,-8.091270924E-3,2.360153198E-2,5.712509155E-3,2.559558044E-2
1.648487104E0,-1.230359077E-2,3.440475464E-2,-1.753807068E-2,4.052961153E-2
1.653435646E0,1.224362850E-2,3.108978271E-2,-6.209468842E-2,7.051405078E-2
1.658422885E0,-8.302092552E-3,3.031206131E-2,-9.210777283E-2,9.732208186E-2
1.663410125E0,1.923704147E-2,-2.243947983E-2,-5.551624298E-2,6.289393655E-2
1.668397364E0,8.006405830E-2,-2.220773697E-2,-5.263710022E-2,9.835700958E-2
1.673384656E0,1.168887615E-1,-6.711673737E-2,-6.167888641E-2,1.482292955E-1
1.678371844E0,9.168648720E-2,-1.188335419E-1,-6.587314606E-2,1.639118482E-1
1.683281948E0,6.653946638E-2,-1.203231812E-1,-6.285095215E-2,1.511800605E-1
1.688269187E0,1.050168276E-2,-1.147108078E-1,-1.144561768E-1,1.623855633E-1
1.693256427E0,-6.419414282E-2,-1.067738533E-1,-1.038570404E-1,1.621968821E-1
1.698243667E0,-1.196473837E-1,-9.876775742E-2,-7.912349701E-2,1.741582444E-1
1.703230906E0,-1.513548493E-1,-7.884788513E-2,-1.211214066E-1,2.092741612E-1
1.708218198E0,-1.619154215E-1,-5.410194397E-2,-1.390848160E-1,2.202003862E-1
1.713132104E0,-1.608544588E-1,-7.214689255E-2,-6.430625916E-2,1.876556047E-1
1.718119344E0,-1.077779531E-1,-6.401348114E-2,6.455421448E-2,1.410002112E-1
1.723106583E0,-8.879327774E-2,-5.844068527E-2,1.164093018E-1,1.576410017E-1
1.728093823E0,-4.139506817E-2,-5.311679840E-2,1.750488281E-1,1.875554269E-1
1.733081062E0,-2.936726809E-2,-2.685356140E-2,2.879657745E-1,2.907023177E-1
1.738068354E0,2.608436346E-2,-2.978324890E-2,2.884454727E-1,2.911498354E-1
1.742979448E0,1.196579337E-1,-3.550243378E-2,2.795743942E-1,3.061703542E-1
1.747966687E0,1.367046237E-1,-3.434419632E-2,2.067518234E-1,2.502278850E-1
1.752953927E0,8.779001236E-2,-2.387237549E-2,1.559419632E-1,1.805405009E-1
1.757941167E0,7.096368074E-2,-5.389308929E-2,1.055002213E-1,1.380963640E-1
1.762928458E0,8.823096752E-2,-8.583688736E-2,-1.118469238E-2,1.236032856E-1
1.767915698E0,7.713335752E-2,-1.076784134E-1,-1.888389587E-1,2.306606770E-1
1.772830437E0,7.527607679E-2,-8.842849731E-2,-3.485965729E-1,3.674311602E-1
1.777817677E0,2.057081461E-2,-1.022734642E-1,-2.648172379E-1,2.846246464E-1
1.782804917E0,-1.959002018E-2,-1.300611496E-1,-1.461801529E-1,1.966425911E-1
1.787792156E0,-3.323781490E-2,-1.551475525E-1,-1.426038742E-1,2.133339643E-1
1.792779396E0,-4.111051559E-3,-1.702444553E-1,-1.510562897E-1,2.276358451E-1
1.797766687E0,2.892017365E-3,-1.899709702E-1,-1.475172043E-1,2.405382689E-1
1.802673354E0,-2.173668146E-2,-1.620573997E-1,-8.692169189E-2,1.851768470E-1
1.807660594E0,-3.914242983E-2,-1.722397804E-1,-1.005306244E-1,2.032365081E-1
1.812647885E0,-1.038149595E-1,-1.537277699E-1,-1.045799255E-1,2.129477257E-1
1.817635073E0,-8.677047491E-2,-1.112227440E-1,-8.030128479E-2,1.623203944E-1
1.822622312E0,-7.178622484E-2,-9.248304367E-2,-1.015567780E-1,1.549843689E-1
1.827609604E0,-5.430972576E-2,-8.543729782E-2,-1.275625229E-1,1.628535398E-1
1.832521635E0,-3.623664379E-3,-4.026174545E-2,-8.692550659E-2,9.586544104E-2
1.837508875E0,4.918140173E-2,-4.034614563E-2,-4.913139343E-2,8.037733240E-2
1.842496114E0,6.581461430E-2,-5.473804474E-2,-6.867408752E-3,8.587769384E-2
1.847483354E0,7.751077414E-2,-5.732250214E-2,8.977413177E-2,1.317314848E-1
1.852470646E0,9.644824266E-2,-7.437992096E-2,1.405677795E-1,1.859944537E-1
1.857457833E0,1.037050486E-1,-7.718801498E-2,1.838502884E-1,2.247524311E-1
1.862367625E0,1.041525006E-1,-4.693412781E-2,1.698293686E-1,2.046767456E-1
1.867354864E0,8.109569550E-2,-3.388452530E-2,1.394233704E-1,1.648136799E-1
1.872342104E0,6.296062469E-2,-3.790044785E-2,9.279346466E-2,1.183685401E-1
1.877329344E0,1.162010431E-2,-3.048944473E-2,8.241558075E-2,8.863950031E-2
1.882316635E0,-4.905837774E-2,-2.114868164E-2,8.657360077E-2,1.017299342E-1
1.887303875E0,-8.341163397E-2,-1.711702347E-2,9.331798553E-2,1.263279051E-1
1.892179864E0,-1.157019734E-1,-1.807880402E-2,9.539794922E-2,1.510448891E-1
1.897167104E0,-1.670244932E-1,-4.066371918E-2,1.166048050E-1,2.077195223E-1
1.902154344E0,-1.540789008E-1,-3.957271576E-2,9.739589691E-2,1.865268566E-1
1.907141583E0,-1.272613406E-1,-6.022739410E-2,9.991359711E-2,1.726427372E-1
1.912128823E0,-1.105161905E-1,-4.059267044E-2,1.049346924E-1,1.577113912E-1
1.917116062E0,-6.074047089E-2,-6.643152237E-2,6.961822510E-2,1.137947680E-1
1.922026323E0,-4.160881042E-3,-5.409145355E-2,2.273273468E-2,5.882155646E-2
1.927013562E0,4.983812571E-2,-4.398965836E-2,-7.140350342E-2,9.755710695E-2
1.932000802E0,1.008428931E-1,-4.072141647E-2,-1.506614685E-1,1.858128116E-1
1.936988042E0,1.441453099E-1,-1.093626022E-2,-2.199335098E-1,2.631885653E-1
1.941975281E0,1.419103146E-1,-4.570960999E-3,-2.556343079E-1,2.924180747E-1
1.946962521E0,1.280820370E-1,-9.508609772E-3,-2.699670792E-1,2.989609434E-1
1.951910802E0,7.419741154E-2,-6.628513336E-3,-2.441120148E-1,2.552251336E-1
1.956898042E0,4.945015907E-2,-6.885528564E-4,-2.473192215E-1,2.522153636E-1
1.961885281E0,4.645335674E-2,-1.585006714E-2,-2.150287628E-1,2.205595335E-1
1.966872521E0,4.605096579E-2,-2.603149414E-2,-1.141815186E-1,1.258401737E-1
1.971859760E0,3.639113903E-2,-5.027818680E-2,1.426506042E-2,6.368440167E-2
1.976847000E0,1.978021860E-2,-8.411026001E-2,7.525062561E-2,1.145794464E-1
1.981725489E0,-8.505225182E-3,-5.643320084E-2,1.620998383E-1,1.718528515E-1
1.986712729E0,-6.735098362E-2,-6.264114380E-2,1.866350174E-1,2.080689732E-1
1.991699969E0,-1.043224335E-1,-6.688976288E-2,1.802988052E-1,2.187808714E-1
1.996687208E0,-1.055386662E-1,-6.453943253E-2,2.217988968E-1,2.539655470E-1
2.001674448E0,-9.516996145E-2,-8.405256271E-2,1.705436707E-1,2.126200801E-1
2.006661687E0,-8.067327738E-2,-1.107006073E-1,1.388425827E-1,1.950386242E-1
2.011607521E0,-6.196624041E-2,-1.159248352E-1,8.614063263E-2,1.571578536E-1
2.016594760E0,1.076048613E-2,-8.325576782E-2,2.686119080E-2,8.814099221E-2
2.021582000E0,3.964197636E-2,-6.730461121E-2,-2.484130859E-2,8.196638086E-2
2.026569239E0,5.368888378E-2,-6.556463242E-2,-4.290676117E-2,9.498530107E-2
2.031556479E0,3.910851479E-2,-4.237174988E-2,-4.423141479E-2,7.267227237E-2
2.036543719E0,3.405696154E-2,-2.854061127E-2,-6.944370270E-2,8.244313777E-2
2.041446114E0,3.390699625E-2,6.984233856E-3,-1.041545868E-1,1.097571951E-1
2.046433354E0,6.009608507E-2,6.780147552E-3,-5.316543579E-2,8.052374435E-2
2.051420594E0,4.155349731E-2,-2.410602570E-2,-2.649784088E-2,5.486282152E-2
2.056407833E0,3.331112862E-2,-5.910205841E-2,6.844520569E-3,6.818747730E-2
2.061395073E0,4.926306009E-2,-2.474594116E-2,2.079582214E-2,5.892093781E-2
2.066382312E0,1.034232974E-1,-3.082227707E-2,1.311397552E-2,1.087123156E-1
2.071302885E0,1.216075420E-1,-2.989244461E-2,4.357528687E-2,1.325924513E-1
2.076287573E0,1.041206121E-1,-3.153896332E-2,8.573913574E-2,1.385171739E-1
2.081272312E0,9.846717119E-2,-1.682710648E-2,1.134443283E-1,1.511573714E-1
2.086257000E0,7.140368223E-2,-1.674127579E-2,8.402729034E-2,1.115317967E-1
2.091241739E0,5.147653818E-2,-2.141189575E-2,4.299640656E-2,7.040592475E-2
2.096226427E0,1.252114773E-2,-2.851343155E-2,3.087425232E-2,4.385218781E-2
2.101151687E0,-2.613294125E-2,-2.615785599E-2,9.400367737E-3,3.815142149E-2
2.106136375E0,-6.470495462E-2,-2.148866653E-2,1.427650452E-2,6.965854236E-2
2.111121114E0,-6.753432751E-2,-1.694917679E-2,2.867221832E-2,7.530110284E-2
2.116105802E0,-3.745859861E-2,-3.633785248E-2,4.541778564E-2,6.918353406E-2
2.121090489E0,-2.492344379E-2,-7.237577438E-2,2.890491486E-2,8.182252056E-2
2.126075229E0,-6.289350986E-2,-1.055784225E-1,1.725292206E-2,1.240969791E-1
2.130997989E0,-5.782413483E-2,-1.145505905E-1,4.361915588E-2,1.355289604E-1
2.135982677E0,-3.613144159E-2,-8.041191101E-2,-1.628875732E-3,8.817147918E-2
2.140967364E0,-2.866089344E-2,-3.672695160E-2,-1.532554626E-3,4.661184946E-2
2.145952104E0,7.534921169E-3,-3.976821899E-4,1.748180389E-2,1.904065796E-2
2.150936844E0,4.147309065E-2,2.140712738E-2,6.241798401E-2,7.793771281E-2
2.155921531E0,6.632661819E-2,3.103303909E-2,1.426086426E-1,1.603106195E-1
2.160847417E0,9.172314405E-2,2.135896683E-2,1.508979797E-1,1.778750711E-1
2.165832104E0,7.962781191E-2,-1.461410522E-2,1.401662827E-1,1.618664489E-1
2.170816844E0,6.321507692E-2,-6.724929810E-2,8.451080322E-2,1.251426782E-1
2.175801531E0,2.052301168E-2,-8.419275284E-2,1.288890839E-2,8.761128694E-2
2.180786219E0,-3.188586235E-2,-1.203322411E-1,-7.456302643E-2,1.451075510E-1
2.185770958E0,-1.031135917E-1,-1.229400635E-1,-7.335758209E-2,1.764313091E-1
2.190694135E0,-1.430600882E-1,-1.349375248E-1,-1.291999817E-1,2.353018480E-1
2.195678823E0,-1.587905288E-1,-1.084794998E-1,-1.728687286E-1,2.585842827E-1
2.200663510E0,-1.576065421E-1,-7.475805283E-2,-1.379566193E-1,2.223974311E-1
2.205648250E0,-1.039032936E-1,-7.190322876E-2,-1.367521286E-1,1.861910669E-1
2.210632989E0,-7.901167870E-2,-4.032754898E-2,-4.065799713E-2,9.758191076E-2
2.215617677E0,-7.827669382E-2,-2.318191528E-2,6.649112701E-2,1.052887077E-1
2.220542417E0,-5.403196812E-2,-1.573896408E-2,9.202575684E-2,1.078698683E-1
2.225527104E0,-8.045142889E-2,-3.454256058E-2,1.601810455E-1,1.825474959E-1
2.230511792E0,-9.294986725E-2,-3.205919266E-2,2.540597916E-1,2.724221859E-1
2.235496531E0,-9.385085106E-2,-3.711223602E-3,2.902889252E-1,3.051055809E-1
2.240481219E0,-7.155954838E-2,-2.577161789E-2,2.575054169E-1,2.685032308E-1
2.245465958E0,-3.092539310E-2,-3.382205963E-2,2.276067734E-1,2.321748370E-1
2.250388719E0,5.209082365E-2,-3.024673462E-2,2.218627930E-1,2.298943622E-1
2.255373406E0,1.205033064E-1,1.356172562E-2,2.043161392E-1,2.375921968E-1
2.260358094E0,1.583110690E-1,2.852964401E-2,1.488199234E-1,2.191431148E-1
2.265342833E0,1.942976117E-1,5.038404465E-2,1.270217896E-1,2.375387314E-1
2.270327573E0,2.073619962E-1,5.298709869E-2,1.243410110E-1,2.475223568E-1
2.275312260E0,1.903825998E-1,2.705383301E-2,5.746555328E-2,2.006981166E-1
2.280237885E0,1.693803072E-1,1.312446594E-2,-5.399703979E-2,1.782627846E-1
2.285222573E0,1.203076839E-1,-1.501083374E-2,-1.051340103E-1,1.604756183E-1
2.290207260E0,4.059731960E-2,-4.290723801E-2,-1.677093506E-1,1.778077605E-1
2.295192000E0,-5.759203434E-2,-4.913473129E-2,-1.870164871E-1,2.017578516E-1
2.300176687E0,-1.125248671E-1,-3.841972351E-2,-2.561397552E-1,2.823924487E-1
2.305161427E0,-1.721969247E-1,-5.581140518E-2,-2.678613663E-1,3.232899710E-1
2.310084083E0,-2.249227166E-1,-5.106592178E-2,-2.963361740E-1,3.755170900E-1
2.315068771E0,-2.064697742E-1,-3.626537323E-2,-2.915430069E-1,3.590853239E-1
2.320053458E0,-1.459036469E-1,-5.431175232E-2,-1.943464279E-1,2.490144066E-1
2.325038198E0,-9.313285351E-2,-2.436065674E-2,-9.810161591E-2,1.374448873E-1
2.330022885E0,-4.296171665E-2,-2.064371109E-2,-1.224613190E-2,4.921219007E-2
2.335007625E0,-3.808850050E-2,-6.685686111E-2,9.900951385E-2,1.253932119E-1
2.339932417E0,3.074973822E-2,-1.008596420E-1,1.238536835E-1,1.626589951E-1
2.344917104E0,6.793051958E-2,-8.265161514E-2,1.415357590E-1,1.774210135E-1
2.349901792E0,6.905776262E-2,-8.173179626E-2,2.282037735E-1,2.520436933E-1
2.354886531E0,3.921264410E-2,-7.879638672E-2,2.287988663E-1,2.451436787E-1
2.359871271E0,-9.245812893E-3,-6.899642944E-2,2.366132736E-1,2.466411028E-1
2.364855906E0,-1.432907581E-2,-4.293823242E-2,2.088422775E-1,2.136916262E-1
2.369777677E0,-3.569060564E-2,-1.476478577E-2,1.551656723E-1,1.599006069E-1
2.374762364E0,-3.769099712E-2,-1.536035538E-2,1.043090820E-1,1.119684615E-1
2.379747104E0,1.991164684E-2,-8.665561676E-3,7.041549683E-2,7.368790832E-2
2.384731792E0,2.247017622E-2,-1.603794098E-2,4.143714905E-2,4.979118086E-2
2.389716479E0,1.234114170E-3,-1.141166687E-2,2.217769623E-2,2.497197206E-2
2.394701219E0,1.108276844E-2,-1.385116577E-2,4.816722870E-2,5.132995685E-2
2.399627989E0,-9.827315807E-3,-1.627254486E-2,1.071805954E-1,1.088533503E-1
2.404612677E0,-2.570641041E-2,-4.842758179E-3,1.326274872E-1,1.351825514E-1
2.409597417E0,-8.200168610E-2,-8.137226105E-3,1.247911453E-1,1.495437091E-1
2.414582104E0,-8.592063189E-2,-4.019260406E-2,7.917213440E-2,1.235557658E-1
2.419566844E0,-8.557879925E-2,-5.805969238E-2,5.076026917E-2,1.152009709E-1
2.424551531E0,-8.334368467E-2,-4.029607773E-2,1.081752777E-2,9.320387633E-2
2.429474969E0,-2.902501822E-2,-2.499914169E-2,-2.975463867E-4,3.830792740E-2
2.434459656E0,-3.923797607E-2,-3.127431870E-2,-4.169464111E-3,5.034963959E-2
2.439444396E0,-5.883860588E-2,-3.724670410E-2,1.376152039E-3,6.965050110E-2
2.444429083E0,-3.758871555E-2,-1.215696335E-2,3.292083740E-2,5.142455474E-2
2.449413823E0,7.542550564E-3,-3.584384918E-3,2.839660645E-2,2.959907333E-2
2.454398510E0,5.028247833E-3,4.587173462E-4,4.038429260E-2,4.069870744E-2
2.459324969E0,2.192980051E-2,-9.514331818E-3,4.973793030E-2,5.518424024E-2
2.464309656E0,7.455724478E-2,6.704807281E-3,4.475021362E-2,8.721421220E-2
2.469294396E0,5.309683084E-2,1.070404053E-2,3.514862061E-2,6.456992690E-2
2.474279083E0,2.939212322E-2,-2.053737640E-3,-4.558563232E-4,2.946731326E-2
2.479263823E0,3.173464537E-2,-3.365373611E-2,-6.189727783E-2,7.727182329E-2
2.484248510E0,3.624689579E-2,-5.058670044E-2,-1.038742065E-1,1.210896465E-1
2.489170854E0,5.497431755E-2,-1.957893372E-2,-1.147518158E-1,1.287380653E-1
2.494155542E0,2.835959196E-2,-6.709098816E-4,-1.326780319E-1,1.356767361E-1
2.499140281E0,-4.051327705E-4,-1.749849319E-2,-1.243505478E-1,1.255763518E-1
2.504124969E0,-5.131125450E-3,-1.979827881E-2,-1.042795181E-1,1.062662608E-1
2.509109656E0,-2.183037996E-2,-2.909374237E-2,-4.878234863E-2,6.085005236E-2
2.514094396E0,-5.285543203E-2,-4.548168182E-2,2.529430389E-2,7.417601962E-2
2.519017833E0,-6.489515305E-2,-2.158355713E-2,6.087779999E-2,9.156056661E-2
2.524002521E0,-8.173549175E-2,-4.782152176E-2,6.294250488E-2,1.137072886E-1
2.528987208E0,-5.106723309E-2,-5.013275146E-2,6.027317047E-2,9.356286733E-2
2.533971948E0,8.971691132E-4,-6.200981140E-2,5.289840698E-2,8.151234927E-2
2.538956687E0,4.556494951E-2,-8.119535446E-2,4.806709290E-2,1.047821341E-1
2.543941375E0,7.360029221E-2,-7.411432266E-2,3.850555420E-2,1.113221161E-1
2.548843719E0,5.156028271E-2,-5.274248123E-2,1.234531403E-2,7.478394786E-2
2.553828406E0,2.497023344E-2,-3.884029388E-2,-8.770942688E-3,4.700011088E-2
2.558813094E0,-2.051937580E-2,-1.540470123E-2,-7.727909088E-2,8.142731416E-2
2.563797833E0,-4.426825047E-2,-1.132011414E-3,-1.763439178E-1,1.818189671E-1
2.568782573E0,-5.343806744E-2,-7.767677307E-3,-1.917219162E-1,1.991814675E-1
2.573767260E0,-7.456958294E-2,-2.098798752E-2,-2.095575333E-1,2.234177210E-1
2.578714292E0,-2.702391148E-2,-2.173662186E-2,-1.751718521E-1,1.785719751E-1
2.583697000E0,5.302518606E-2,-8.022308350E-3,-9.599971771E-2,1.099635103E-1
2.588679656E0,8.968389034E-2,-3.478240967E-2,1.813125610E-2,9.788645799E-2
2.593662364E0,5.020213127E-2,-6.390142441E-2,1.242647171E-1,1.484768195E-1
2.598645073E0,5.634886026E-2,-5.021142960E-2,2.010822296E-1,2.147799916E-1
2.603627781E0,5.794841051E-2,-2.990055084E-2,2.536630630E-1,2.619103106E-1
2.608562000E0,6.205415726E-2,-1.503610611E-2,2.917804718E-1,2.986848618E-1
2.613544708E0,5.663996935E-2,6.395339966E-3,2.846450806E-1,2.902960702E-1
2.618527417E0,1.564168930E-2,1.549386978E-2,2.444372177E-1,2.454267220E-1
2.623510073E0,6.035149097E-3,3.378486633E-2,2.236614227E-1,2.262791909E-1
2.628492729E0,-3.425639868E-2,2.103757858E-2,1.199064255E-1,1.264659299E-1
2.633475489E0,-3.375482559E-2,-5.900382996E-3,3.603458405E-2,4.972619046E-2
2.638410489E0,-7.056117058E-3,3.123760223E-3,3.185272217E-4,7.723219889E-3
2.643393198E0,5.052804947E-3,-1.158905029E-2,-5.176258087E-2,5.328415996E-2
2.648375854E0,6.684428453E-2,-1.198959351E-2,-7.961559296E-2,1.046448822E-1
2.653337312E0,7.796823978E-2,1.378107071E-2,-7.159614563E-2,1.067472360E-1
2.658320021E0,7.690143585E-2,2.259922028E-2,-2.319145203E-2,8.344099137E-2
2.663266323E0,3.771436214E-2,1.707077026E-4,-1.780414581E-2,4.170599311E-2
2.668248979E0,-1.343846321E-3,-8.212566376E-3,1.624298096E-2,1.825066026E-2
2.673231635E0,-5.927455425E-2,-2.864885330E-2,-1.400375366E-2,6.730776102E-2
2.678214344E0,-5.723136663E-2,-5.360221863E-2,-2.503204346E-2,8.231178754E-2
2.683197052E0,-7.399380207E-2,-3.320741653E-2,3.052616119E-2,8.665830471E-2
2.688179708E0,-4.020786285E-2,-8.136749268E-3,5.227470398E-2,6.644940632E-2
2.693139031E0,-3.699254990E-2,-1.628637314E-2,2.616500854E-2,4.814875253E-2
2.698121739E0,1.190340519E-2,-1.463365555E-2,-4.264259338E-2,4.662859316E-2
2.703104396E0,3.210455179E-2,1.338672638E-2,-7.300186157E-2,8.086518708E-2
2.708087104E0,1.177126169E-2,3.436660767E-2,-1.555194855E-1,1.597057816E-1
2.713069812E0,-4.625147581E-2,1.043224335E-2,-2.019109726E-1,2.074031619E-1
2.718052521E0,-8.021426201E-2,-2.258968353E-2,-2.194929123E-1,2.347802380E-1
2.722950021E0,-8.572530746E-2,-6.449317932E-2,-2.323064804E-1,2.558798534E-1
2.727932729E0,-1.058432460E-1,-6.524848938E-2,-2.641744614E-1,2.919731223E-1
2.732915437E0,-7.882255316E-2,-9.183120728E-2,-2.364788055E-1,2.656467410E-1
2.737898146E0,-7.856279612E-2,-9.425258636E-2,-1.758060455E-1,2.143908315E-1
2.742880802E0,-3.609627485E-2,-6.583118439E-2,-1.155643463E-1,1.378107544E-1
2.747863510E0,-1.822435856E-2,-5.653333664E-2,-7.484054565E-2,9.554712277E-2
2.752825333E0,-3.662985563E-2,-3.550100327E-2,1.788043976E-2,5.405347059E-2
2.757807989E0,-5.530267954E-2,-1.465797424E-2,9.561824799E-2,1.114275187E-1
2.762790698E0,-4.529964924E-2,-5.097484589E-2,1.988267899E-1,2.101965402E-1
2.767773406E0,-2.578735352E-2,-5.145835876E-2,2.988405228E-1,3.043330550E-1
2.772756062E0,8.216142654E-3,-2.017021179E-4,3.982267380E-1,3.983115370E-1
2.777738771E0,4.242420197E-2,-7.022380829E-3,5.017862320E-1,5.036254058E-1
2.782636479E0,8.638542891E-2,6.700992584E-3,5.312032700E-1,5.382232433E-1
2.787619187E0,1.377060413E-1,3.615999222E-2,5.179204941E-1,5.371332582E-1
2.792601896E0,1.346924305E-1,1.718378067E-2,5.073699951E-1,5.252253279E-1
2.797584552E0,9.894806147E-2,2.378654480E-2,3.974170685E-1,4.102399845E-1
2.802567260E0,4.935169220E-2,-8.085727692E-3,2.315492630E-1,2.368882220E-1
2.807549969E0,3.333508968E-2,-4.146575928E-3,4.335689545E-2,5.484744916E-2
2.812483198E0,2.214580774E-2,1.893758774E-2,-1.077089310E-1,1.115808355E-1
2.817465906E0,-1.048123837E-2,1.349544525E-2,-2.148189545E-1,2.154974863E-1
2.822448614E0,-7.860845327E-2,-5.621910095E-3,-2.618808746E-1,2.734821517E-1
2.827431323E0,-5.366104841E-2,-1.924991608E-2,-3.111801147E-1,3.163591807E-1
2.832413979E0,-4.582816362E-2,-4.885244370E-2,-3.104047775E-1,3.175498508E-1
2.837396687E0,-7.400059700E-2,5.366802216E-3,-2.670497894E-1,2.771650789E-1
2.842366375E0,-9.031909704E-2,-3.079748154E-2,-2.479438782E-1,2.656730903E-1
2.847349083E0,-1.017913818E-1,-3.547954559E-2,-1.958751678E-1,2.235785431E-1
2.852287208E0,-9.890455008E-2,-4.457235336E-2,-1.871385574E-1,2.163091408E-1
2.857269917E0,-8.444803953E-2,-6.042194366E-2,-1.690845490E-1,1.984234546E-1
2.862273354E0,-5.840164423E-2,-8.059930801E-2,-1.299200058E-1,1.636649272E-1
2.867256010E0,-6.602168083E-3,-7.675743103E-2,-6.023025513E-2,9.779046720E-2
2.872238667E0,4.691869020E-2,-3.728723526E-2,5.639553070E-2,8.229311810E-2
2.877221375E0,7.881802320E-2,-3.154754639E-3,1.365184784E-1,1.576690464E-1
2.882204083E0,9.181922674E-2,1.790523529E-3,2.256250381E-1,2.435993313E-1
2.887186792E0,7.168054581E-2,-2.934360504E-2,2.452669144E-1,2.572061568E-1
2.892169448E0,3.536200523E-2,-5.333709717E-2,2.291994095E-1,2.379657258E-1
2.897090021E0,-5.044168234E-2,-4.889106750E-2,2.110052109E-1,2.223913191E-1
2.902072729E0,-7.834184170E-2,-3.525352478E-2,1.883220673E-1,2.069914399E-1
2.907055385E0,-7.485699654E-2,-7.634687424E-2,1.729211807E-1,2.033080173E-1
2.912038094E0,-7.818788290E-2,-4.819011688E-2,1.481094360E-1,1.742757512E-1
2.917020750E0,-3.855568171E-2,-2.742147446E-2,1.068735123E-1,1.168778229E-1
2.922003458E0,-2.770537138E-2,-4.576683044E-3,5.178070068E-2,5.890479263E-2
2.926900229E0,-5.092918873E-3,-1.778554916E-2,1.150894165E-2,2.178805452E-2
2.931882937E0,1.000267267E-2,-1.438617706E-2,-2.122211456E-2,2.752078665E-2
2.936865646E0,-2.493965626E-2,-1.586580276E-2,-3.937911987E-2,4.923845279E-2
2.941848354E0,-4.550951719E-2,-1.967334747E-2,-1.357784271E-1,1.445473557E-1
2.946831010E0,-8.750337362E-2,-4.203033447E-2,-1.887903214E-1,2.122855974E-1
2.951813719E0,-7.698786259E-2,-2.107763290E-2,-1.940088272E-1,2.097875655E-1
2.956784760E0,-6.225764751E-2,-1.412057877E-2,-2.183485031E-1,2.274895036E-1
2.961767417E0,-5.051887035E-2,-4.691600800E-3,-1.427412033E-1,1.514899947E-1
2.966750177E0,-2.023828030E-2,-7.050514221E-3,-6.306076050E-2,6.660298233E-2
2.971732833E0,2.521157265E-3,-1.884412766E-2,6.443977356E-3,2.007441718E-2
2.976715489E0,2.522605658E-2,-2.357196808E-2,5.405235291E-2,6.413773042E-2
2.981698198E0,3.837829828E-2,-2.361202240E-2,1.321821213E-1,1.396514753E-1
2.986631479E0,5.860328674E-2,-1.205396652E-2,1.171388626E-1,1.315338605E-1
2.991614135E0,5.048054457E-2,-5.577087402E-3,9.992599487E-2,1.120918986E-1
2.996596844E0,2.361452579E-2,-3.012275696E-2,7.575225830E-2,8.487302842E-2
3.001579552E0,-2.167433500E-2,-3.075170517E-2,7.789993286E-2,8.650921170E-2
3.006562208E0,-2.353793383E-2,-5.498075485E-2,4.667758942E-2,7.586642925E-2
3.011544969E0,-1.062554121E-2,-4.321098328E-2,4.885387421E-2,6.608170872E-2
3.016480281E0,-1.898837090E-2,-5.517530441E-2,4.381084442E-2,7.296754440E-2
3.021462937E0,6.037235260E-3,-4.798364639E-2,6.728649139E-2,8.286344462E-2
3.026445646E0,1.648783684E-2,-2.183628082E-2,9.769821167E-2,1.014574418E-1
3.031428354E0,2.672743797E-2,-1.045751572E-2,1.090002060E-1,1.127153959E-1
3.036411062E0,1.067423820E-2,-2.788209915E-2,5.141735077E-2,5.945666299E-2
3.041393719E0,-1.019316912E-2,-3.824090958E-2,5.856800079E-2,7.068577352E-2
3.046328302E0,1.374381781E-2,-3.198003769E-2,1.110935211E-2,3.653810399E-2
3.051311010E0,1.272678375E-3,-1.415872574E-2,-5.953693390E-2,6.121058506E-2
3.056293667E0,-3.537184000E-2,-2.033615112E-2,-1.413831711E-1,1.471527342E-1
3.061276375E0,-6.491637230E-2,-5.463600159E-2,-2.012910843E-1,2.184429644E-1
3.066259031E0,-7.046246529E-2,-2.176380157E-2,-2.276134491E-1,2.392624172E-1
3.071241792E0,-6.132942438E-2,1.759052277E-3,-1.779308319E-1,1.882120440E-1
3.076167312E0,-3.979623318E-2,-5.364894867E-3,-1.194114685E-1,1.259826221E-1
3.081150021E0,-1.138985157E-3,-2.171564102E-2,-5.916500092E-2,6.303462291E-2
3.086132677E0,1.363372803E-2,-4.970455170E-2,1.001834869E-2,5.250512651E-2
3.091115385E0,2.123290300E-2,-7.488250732E-2,6.189632416E-2,9.944536700E-2
3.096098094E0,7.483959198E-3,-5.485773087E-2,1.300277710E-1,1.413244548E-1
3.101080750E0,-3.840744495E-3,-6.149768829E-2,1.573839188E-1,1.690160196E-1
3.106024656E0,-1.082956791E-3,-4.698944092E-2,1.799163818E-1,1.859545235E-1
3.111007364E0,-3.519833088E-3,-4.965114594E-2,1.977415085E-1,2.039101020E-1
3.115990073E0,-1.101940870E-2,-6.944084167E-2,1.705532074E-1,1.844772463E-1
3.120972729E0,-6.860077381E-3,-7.984066010E-2,1.532468796E-1,1.729340850E-1
3.125955385E0,1.137191057E-2,-6.654882431E-2,1.076593399E-1,1.270771413E-1
3.130938146E0,3.664106131E-2,-5.353116989E-2,7.202434540E-2,9.693121197E-2
3.135870802E0,3.321921825E-2,-1.928281784E-2,2.957725525E-2,4.847842359E-2
3.140853458E0,-7.197856903E-4,-6.138420105E-2,-2.202510834E-2,6.521996341E-2
3.145836167E0,-3.387951851E-2,-8.171224594E-2,3.824234009E-4,8.845823398E-2
3.150818875E0,-1.644629240E-2,-6.865167618E-2,2.020645142E-2,7.342910768E-2
3.155801531E0,1.271933317E-2,-5.303907394E-2,-7.666587830E-2,9.408815917E-2
3.160784239E0,-6.194114685E-3,-4.205513000E-2,-2.084531784E-1,2.127433397E-1
3.165717104E0,-1.325201988E-2,-4.267311096E-2,-2.632808685E-1,2.670457380E-1
3.170699812E0,-3.428590298E-2,-7.392787933E-2,-2.251348495E-1,2.394296451E-1
3.175682521E0,-3.566324711E-2,-8.325004578E-2,-1.756076813E-1,1.975866773E-1
3.180665177E0,-2.474725246E-2,-9.676837921E-2,-1.386270523E-1,1.708625335E-1
3.185647833E0,1.437592506E-2,-8.360385895E-2,-1.615304947E-1,1.824510158E-1
3.190630594E0,1.478230953E-2,-7.269620895E-2,-1.486816406E-1,1.661610235E-1
3.195566427E0,-2.080082893E-3,-4.986333847E-2,-1.430749893E-1,1.515293102E-1
3.200549083E0,-3.824007511E-2,-5.549955368E-2,-6.156730652E-2,9.128547001E-2
3.205531844E0,-7.440143824E-2,-3.266382217E-2,2.882862091E-2,8.621826184E-2
3.210514500E0,-1.102868319E-1,-2.204275131E-2,5.915260315E-2,1.270751692E-1
3.215497208E0,-7.479977608E-2,-4.244756699E-2,7.263755798E-2,1.125744966E-1
3.220479864E0,-3.739708662E-2,-2.010822296E-2,1.193675995E-1,1.266945402E-1
3.225378875E0,-1.673477888E-2,8.959293365E-3,1.586647034E-1,1.597961509E-1
3.230361583E0,-5.581855774E-3,-2.799034119E-3,1.834583282E-1,1.835645660E-1
3.235344292E0,1.804107428E-2,-3.365755081E-2,2.104511261E-1,2.138877920E-1
3.240327000E0,2.295863628E-2,-2.640247345E-3,2.182388306E-1,2.194590100E-1
3.245309656E0,-4.900813103E-3,3.035116196E-2,1.879749298E-1,1.904725315E-1
3.250292364E0,-3.496468067E-3,2.255010605E-2,1.556034088E-1,1.572677761E-1
3.255223823E0,-4.301965237E-3,2.642154694E-2,1.141090393E-1,1.172069874E-1
3.260206531E0,-1.671838760E-2,8.795738220E-3,1.038608551E-1,1.055648934E-1
3.265189239E0,-5.259001255E-2,-1.337051392E-2,2.951240540E-2,6.176942718E-2
3.270171948E0,-1.216436028E-1,-5.893278122E-2,-7.278442383E-2,1.535181135E-1
3.275154604E0,-1.406775713E-1,-3.506231308E-2,-9.349822998E-2,1.725151120E-1
3.280137312E0,-1.387607455E-1,-3.266334534E-2,-1.164131165E-1,1.840474186E-1
3.285110489E0,-1.160495281E-1,-6.245136261E-3,-1.368436813E-1,1.795346424E-1
3.290093146E0,-8.469223976E-2,2.246236801E-2,-8.346939087E-2,1.210143490E-1
3.295075906E0,-4.222494364E-2,3.898525238E-2,-9.085655212E-3,5.818371679E-2
3.300058562E0,-7.652938366E-3,2.921104431E-2,2.909469604E-2,4.193273081E-2
3.305041219E0,9.773433208E-3,4.319047928E-2,7.889270782E-2,9.047097239E-2
3.310023927E0,3.638905287E-2,3.319883347E-2,1.592187881E-1,1.666641779E-1
3.314956635E0,5.352318287E-2,4.199075699E-2,2.128648758E-1,2.234712736E-1
3.319939344E0,5.431151390E-2,2.184581757E-2,2.590665817E-1,2.655983322E-1
3.324922052E0,5.819875002E-2,2.770328522E-2,3.192110062E-1,3.256535475E-1
3.329904708E0,4.844576120E-2,4.492616653E-2,3.338785172E-1,3.403530761E-1
3.334887364E0,8.910948038E-2,4.974412918E-2,3.366861343E-1,3.518132046E-1
3.339870073E0,1.227096319E-1,3.969478607E-2,3.111963272E-1,3.368627078E-1
3.344805542E0,7.309257984E-2,2.212142944E-2,2.409896851E-1,2.528001408E-1
3.349788250E0,4.082179070E-2,1.613235474E-2,1.477937698E-1,1.541741543E-1
3.354770958E0,3.522008657E-2,-1.996517181E-3,2.699089050E-2,4.441788772E-2
3.359753614E0,-8.337438107E-3,-4.851102829E-2,-1.165447235E-1,1.265128662E-1
3.364736323E0,-4.214107990E-2,-8.012628555E-2,-2.566175461E-1,2.721188292E-1
3.369719031E0,-5.690956116E-2,-1.062703133E-1,-3.790845871E-1,3.977903993E-1
3.374616010E0,-7.201695442E-2,-1.242971420E-1,-4.628419876E-1,4.846224579E-1
3.379597000E0,-7.788038254E-2,-1.080036163E-1,-5.035352707E-1,5.208434544E-1
3.384577989E0,-5.081975460E-2,-6.496524811E-2,-4.943208694E-1,5.011549191E-1
3.389558927E0,-1.007199287E-2,-5.233955383E-2,-4.807910919E-1,4.837364448E-1
3.394539917E0,2.051615715E-2,-3.918457031E-2,-3.940019608E-1,3.964768446E-1
3.399520906E0,1.052880287E-2,-3.267145157E-2,-2.535829544E-1,2.558956705E-1
3.404499864E0,-3.475284576E-2,-9.934759140E-2,-1.549758911E-1,1.873372121E-1
3.409480854E0,-3.214335442E-2,-1.176643372E-1,-1.456832886E-2,1.228426948E-1
3.414461844E0,-5.575585365E-2,-1.169629097E-1,1.223649979E-1,1.782196122E-1
3.419442781E0,-1.524335146E-2,-1.190161705E-1,2.322196960E-1,2.613870613E-1
3.424423771E0,-1.117140055E-2,-1.477894783E-1,3.391056061E-1,3.700799132E-1
3.429404760E0,-3.322029114E-2,-1.580829620E-1,3.789405823E-1,4.119341883E-1
3.434347208E0,-3.828495741E-2,-1.548352242E-1,3.855419159E-1,4.172316545E-1
3.439328198E0,-2.683997154E-4,-9.764337540E-2,3.424892426E-1,3.561364655E-1
3.444309187E0,1.169806719E-2,-6.987333298E-2,3.094663620E-1,3.174721352E-1
3.449290125E0,2.396911383E-2,-6.404256821E-2,1.818170547E-1,1.942508954E-1
3.454271114E0,2.482873201E-2,-6.543493271E-2,3.857612610E-2,7.991441583E-2
3.459252104E0,1.895558834E-2,-3.099679947E-2,-5.132961273E-2,6.288755878E-2
3.464185802E0,1.579934359E-2,-4.889869690E-2,-1.121006012E-1,1.233176654E-1
3.469166792E0,5.581378937E-3,-9.325981140E-3,-1.772642136E-1,1.775970921E-1
3.474147781E0,-2.616518736E-2,4.268169403E-3,-2.302122116E-1,2.317336762E-1
3.479128771E0,-4.628753662E-2,-1.749753952E-2,-2.519731522E-1,2.567862328E-1
3.484109708E0,-9.529155493E-2,-1.261568069E-2,-2.427825928E-1,2.611187913E-1
3.489090698E0,-9.929156303E-2,-2.093315125E-4,-1.839399338E-1,2.090281262E-1
3.494042469E0,-5.863708258E-2,1.964855194E-2,-1.518764496E-1,1.639842340E-1
3.499023458E0,-1.884496212E-2,1.117038727E-2,-8.930969238E-2,9.195722540E-2
3.504004448E0,1.088017225E-2,1.483821869E-2,1.169204712E-3,1.843686312E-2
3.508985437E0,1.894617081E-2,5.185461044E-2,7.896137238E-2,9.634706192E-2
3.513966375E0,5.077284575E-2,4.096174240E-2,1.727724075E-1,1.846782364E-1
3.518947364E0,8.019518852E-2,2.754735947E-2,2.730178833E-1,2.858826505E-1
3.523890854E0,6.929630041E-2,4.468488693E-2,3.536043167E-1,3.630905248E-1
3.528871844E0,8.023804426E-2,5.892181396E-2,4.526700974E-1,4.634869372E-1
3.533852833E0,8.671319485E-2,5.341196060E-2,4.799022675E-1,4.905896473E-1
3.538833771E0,6.987500191E-2,4.485750198E-2,4.763164520E-1,4.834998178E-1
3.543814760E0,4.892247915E-2,2.853202820E-2,4.706773758E-1,4.740724393E-1
3.548795750E0,4.503935575E-2,-1.462984085E-2,4.179420471E-1,4.206163698E-1
3.553735542E0,5.085319281E-2,-2.702760696E-2,2.660837173E-1,2.722445287E-1
3.558716531E0,4.945975542E-2,-4.679822922E-2,1.204090118E-1,1.383281309E-1
3.563697521E0,4.819786549E-2,-8.321905136E-2,-3.585147858E-2,1.026341720E-1
3.568678510E0,4.217594862E-2,-8.378458023E-2,-1.836414337E-1,2.062106755E-1
3.573659448E0,4.308652878E-2,-1.245079041E-1,-3.041505814E-1,3.314607718E-1
3.578640437E0,5.355745554E-2,-1.338305473E-1,-3.596038818E-1,3.874196281E-1
3.583585125E0,4.022222757E-2,-1.475658417E-1,-3.482027054E-1,3.803138563E-1
3.588566114E0,1.503205299E-2,-1.775603294E-1,-3.655147552E-1,4.066382539E-1
3.593547104E0,-4.349040985E-2,-1.808886528E-1,-4.279260635E-1,4.666185126E-1
3.598528042E0,-7.332533598E-2,-1.838059425E-1,-4.210805893E-1,4.652634652E-1
3.603509031E0,-9.338778257E-2,-2.316951752E-1,-4.072322845E-1,4.777468636E-1
3.608490021E0,-7.536649704E-2,-2.411680222E-1,-3.151016235E-1,4.038949826E-1
3.613434083E0,-1.237064600E-2,-2.627213001E-1,-2.972469330E-1,3.969020705E-1
3.618415073E0,6.432706118E-2,-2.633173466E-1,-2.935085297E-1,3.995262855E-1
3.623396062E0,8.590900898E-2,-2.977905273E-1,-3.108987808E-1,4.389961366E-1
3.628377000E0,6.720423698E-2,-3.327450752E-1,-3.515605927E-1,4.887029209E-1
3.633357989E0,3.233402967E-2,-3.680152893E-1,-4.628868103E-1,5.922372344E-1
3.638338979E0,1.689928770E-2,-4.200413227E-1,-5.802221298E-1,7.165040256E-1
3.643244760E0,-1.962167025E-2,-4.312975407E-1,-7.488298416E-1,8.643776433E-1
3.648225750E0,-1.058292389E-2,-4.331195354E-1,-9.230880737E-1,1.019703938E0
3.653206739E0,1.256501675E-2,-4.371895790E-1,-1.076934814E0,1.162360186E0
3.658187677E0,7.105290890E-3,-4.121026993E-1,-1.229794979E0,1.297025370E0
3.663168667E0,-1.971352100E-2,-4.079854488E-1,-1.350787163E0,1.411193363E0
3.668149656E0,-3.662437201E-2,-4.032492638E-1,-1.397452831E0,1.454931520E0
3.673094656E0,-7.479083538E-2,-3.930299282E-1,-1.387081623E0,1.443627938E0
3.678075646E0,-1.225479841E-1,-4.034900665E-1,-1.431773186E0,1.492580550E0
3.683056583E0,-8.955830336E-2,-4.270343781E-1,-1.562093735E0,1.621886521E0
3.688037573E0,-9.024018049E-2,-4.635574818E-1,-1.520792484E0,1.592431666E0
3.693018562E0,-7.670688629E-2,-4.822494984E-1,-1.420873165E0,1.502441039E0
3.697999552E0,-5.150067806E-2,-4.478220940E-1,-1.295982361E0,1.372139653E0
3.702974187E0,-7.662612200E-2,-4.343788624E-1,-1.151059151E0,1.232677463E0
3.707955177E0,-7.342582941E-2,-4.538300037E-1,-1.038420677E0,1.135636618E0
3.712936167E0,-4.439878464E-2,-4.801092148E-1,-8.958792686E-1,1.017386738E0
3.717917156E0,-7.287728786E-2,-4.729952812E-1,-7.497138977E-1,8.894417145E-1
3.722898094E0,-6.799244881E-2,-5.041592121E-1,-6.284084320E-1,8.085150844E-1
3.727879083E0,-5.844044685E-2,-4.925742149E-1,-5.934991837E-1,7.734894466E-1
3.732823667E0,-5.370992422E-2,-4.718635082E-1,-5.777511597E-1,7.478879120E-1
3.737804656E0,-4.422217607E-2,-4.872121811E-1,-5.453891754E-1,7.326531669E-1
3.742785646E0,-2.272379398E-2,-4.858853817E-1,-5.726623535E-1,7.513608628E-1
3.747766635E0,3.685969114E-2,-4.465582371E-1,-5.973539352E-1,7.467292815E-1
3.752747573E0,2.950012684E-2,-4.455723763E-1,-6.218423843E-1,7.655670780E-1
3.757728562E0,2.697545290E-2,-4.088275433E-1,-6.699466705E-1,7.853000551E-1
3.762671062E0,1.021575928E-2,-4.292905331E-1,-6.654386520E-1,7.919616930E-1
3.767652052E0,-1.949667931E-3,-4.066183567E-1,-6.634159088E-1,7.781150026E-1
3.772633042E0,2.272129059E-3,-3.886539936E-1,-6.377353668E-1,7.468356495E-1
3.777614031E0,1.796698570E-2,-3.799824715E-1,-6.337852478E-1,7.391841662E-1
3.782594969E0,1.899778843E-2,-3.875691891E-1,-6.443052292E-1,7.521303216E-1
3.787575958E0,2.472084761E-2,-3.875691891E-1,-5.955276489E-1,7.109670719E-1
3.792517677E0,4.951834679E-2,-3.517136574E-1,-4.807548523E-1,5.977288612E-1
3.797498667E0,6.014466286E-2,-3.468272686E-1,-4.098176956E-1,5.402379831E-1
3.802479656E0,6.135863066E-2,-3.325417042E-1,-2.966938019E-1,4.498622885E-1
3.807460646E0,3.229290247E-2,-3.091676235E-1,-2.295579910E-1,3.864250538E-1
3.812441583E0,4.215729237E-2,-3.103168011E-1,-1.223850250E-1,3.362318377E-1
3.817422573E0,1.895737648E-2,-3.099527359E-1,-1.226186752E-1,3.338643739E-1
3.822367625E0,-6.312608719E-3,-3.270022869E-1,-1.462507248E-1,3.582731070E-1
3.827348614E0,-1.701641083E-2,-3.494207859E-1,-2.168502808E-1,4.115926240E-1
3.832329604E0,-4.174000025E-2,-3.604021072E-1,-3.079614639E-1,4.758909222E-1
3.837310542E0,-6.124621630E-2,-3.527729511E-1,-3.838577271E-1,5.249253363E-1
3.842291531E0,-3.040105104E-2,-3.502681255E-1,-4.993858337E-1,6.107357813E-1
3.847272521E0,-8.213520050E-5,-3.429269791E-1,-6.804933548E-1,7.620171426E-1
3.852213771E0,1.555669308E-2,-3.165977001E-1,-7.531986237E-1,8.171806906E-1
3.857194760E0,3.092813492E-2,-2.546961308E-1,-7.802248001E-1,8.213266142E-1
3.862175750E0,-1.829260588E-2,-2.667307854E-1,-8.427343369E-1,8.841273063E-1
3.867156739E0,-4.107743502E-2,-2.712492943E-1,-8.597130775E-1,9.024245736E-1
3.872137677E0,-3.040093184E-2,-2.659733295E-1,-8.077793121E-1,8.509838105E-1
3.877118667E0,-5.651950836E-3,-2.652187347E-1,-7.777781487E-1,8.217735517E-1
3.882060750E0,-2.676427364E-3,-2.404968739E-1,-7.979984283E-1,8.334550985E-1
3.887040542E0,-1.187604666E-2,-2.588315010E-1,-7.063350677E-1,7.523589664E-1
3.892020333E0,1.951497793E-2,-2.560133934E-1,-6.271476746E-1,6.776709361E-1
3.897000073E0,3.896951675E-2,-2.678859234E-1,-6.078338623E-1,6.653897319E-1
3.901979864E0,1.326608658E-2,-2.752192020E-1,-6.099281311E-1,6.692786590E-1
3.906959656E0,4.320859909E-3,-2.922511101E-1,-6.712665558E-1,7.321394472E-1
3.911911375E0,4.764491320E-2,-3.141505718E-1,-7.034611702E-1,7.718926334E-1
3.916891167E0,8.590519428E-2,-3.098294735E-1,-7.496018410E-1,8.156450975E-1
3.921870958E0,1.144832969E-1,-3.223013878E-1,-8.024368286E-1,8.722897877E-1
3.926850698E0,1.263685822E-1,-3.419458866E-1,-8.286452293E-1,9.052894145E-1
3.931830489E0,1.145797372E-1,-3.612904549E-1,-8.927221298E-1,9.698515918E-1
3.936810281E0,6.981462240E-2,-3.660316467E-1,-9.516177177E-1,1.021973350E0
3.941760437E0,2.548557520E-2,-4.083216190E-1,-9.864664078E-1,1.067938216E0
3.946740229E0,5.224943161E-4,-4.214196205E-1,-9.807958603E-1,1.067499550E0
3.951720021E0,-5.654692650E-4,-4.411218166E-1,-1.001486778E0,1.094332922E0
3.956699760E0,-4.469341040E-2,-4.198143482E-1,-9.865632057E-1,1.073102300E0
3.961679552E0,-7.930916548E-2,-3.767127991E-1,-9.886388779E-1,1.060947363E0
3.966659344E0,-7.825607061E-2,-3.213853836E-1,-9.316158295E-1,9.885952818E-1
3.971579812E0,-7.024383545E-2,-2.825517654E-1,-8.753309250E-1,9.224824794E-1
3.976559604E0,-6.038659811E-2,-2.218091488E-1,-8.127431870E-1,8.446285146E-1
3.981539396E0,-5.587679148E-2,-1.700856686E-1,-7.178354263E-1,7.398236613E-1
3.986519135E0,-6.352984905E-2,-1.439876556E-1,-6.146268845E-1,6.344562190E-1
3.991498927E0,-5.953401327E-2,-1.411948204E-1,-4.983043671E-1,5.213324451E-1
3.996478719E0,-1.552456617E-2,-1.118054390E-1,-3.451356888E-1,3.631254770E-1
4.001425854E0,1.707017422E-3,-8.463907242E-2,-1.221303940E-1,1.486018830E-1
4.006405646E0,9.162843227E-3,-8.621191978E-2,1.156673431E-1,1.445523679E-1
4.011385437E0,-2.521097660E-3,-9.764075279E-2,3.991775513E-1,4.109535132E-1
4.016365177E0,2.503395081E-3,-8.363580704E-2,5.761728287E-1,5.822167498E-1
4.021344969E0,2.185636759E-2,-8.510780334E-2,7.759513855E-1,7.809107450E-1
4.026324760E0,-1.791214943E-2,-8.553338051E-2,9.057550430E-1,9.099609894E-1
4.031236948E0,-2.367132902E-2,-7.325863838E-2,9.995174408E-1,1.002478067E0
4.036216739E0,-3.882741928E-2,-2.210307121E-2,9.672260284E-1,9.682573544E-1
4.041196531E0,-4.194694757E-2,1.057243347E-2,8.859596252E-1,8.870150959E-1
4.046176271E0,-3.300321102E-2,3.454256058E-2,8.202037811E-1,8.215939648E-1
4.051156062E0,-4.034036398E-2,2.180814743E-2,7.458515167E-1,7.472599449E-1
4.056135854E0,-4.972100258E-2,3.463077545E-2,5.868854523E-1,5.900050871E-1
4.061125542E0,-8.505600691E-2,3.269171715E-2,3.890352249E-1,3.995643614E-1
4.066105333E0,-6.327283382E-2,3.062176704E-2,2.285499573E-1,2.391155099E-1
4.071085125E0,3.565967083E-3,2.868556976E-2,9.309959412E-2,9.748390872E-2
4.076064864E0,7.009798288E-2,2.466940880E-2,-4.611968994E-2,8.746046384E-2
4.081044656E0,1.765909195E-1,1.126861572E-2,-1.224622726E-1,2.151937331E-1
4.086024448E0,2.087232471E-1,2.618789673E-3,-1.672468185E-1,2.674766349E-1
4.090971271E0,2.098631263E-1,-1.587629318E-2,-2.233581543E-1,3.068932283E-1
4.095951062E0,1.921408176E-1,-5.134296417E-2,-2.787828445E-1,3.424530160E-1
4.100930854E0,1.200152040E-1,-7.751417160E-2,-3.240194321E-1,3.541195961E-1
4.105910594E0,8.646720648E-2,-1.444540024E-1,-3.875989914E-1,4.225831453E-1
4.110890385E0,2.924221754E-2,-1.899442673E-1,-5.026636124E-1,5.381492722E-1
4.115870177E0,-4.148781300E-3,-2.494685650E-1,-6.594166756E-1,7.050405161E-1
4.120817729E0,-2.295726538E-2,-2.819898129E-1,-7.746505737E-1,8.246992191E-1
4.125797521E0,-1.175463200E-3,-3.091092110E-1,-8.795952797E-1,9.323292026E-1
4.130777312E0,1.578748226E-2,-3.116531372E-1,-9.245581627E-1,9.757995279E-1
4.135757052E0,6.848686934E-2,-2.850842476E-1,-9.979419708E-1,1.040120982E0
4.140736844E0,6.631237268E-2,-2.771937847E-1,-1.028221607E0,1.066992689E0
4.145716926E0,7.383012772E-2,-2.783894539E-1,-1.008598328E0,1.048914755E0
4.150693437E0,-9.227991104E-3,-2.672774792E-1,-1.065329552E0,1.098384933E0
4.155673228E0,-2.287930250E-2,-3.149676323E-1,-1.055373192E0,1.101608209E0
4.160653020E0,2.048826218E-2,-3.355357647E-1,-1.007758617E0,1.062347142E0
4.165632760E0,-1.027286053E-2,-3.482017517E-1,-9.821906090E-1,1.042136452E0
4.170612551E0,-3.861922026E-2,-3.314824104E-1,-9.239215851E-1,9.823457273E-1
4.175592343E0,-3.837442398E-2,-2.881371975E-1,-8.497934341E-1,8.981339108E-1
4.180540468E0,-4.303812981E-2,-2.208735943E-1,-7.195024490E-1,7.538708108E-1
4.185520260E0,-4.797512293E-2,-1.965708733E-1,-5.999417305E-1,6.331443758E-1
4.190500051E0,-7.227420807E-2,-1.697847843E-1,-4.672346115E-1,5.023530793E-1
4.195479791E0,-1.252108812E-1,-1.788151264E-1,-3.665056229E-1,4.265899504E-1
4.200459583E0,-1.448417306E-1,-1.900863647E-1,-2.404785156E-1,3.390307795E-1
4.205439374E0,-1.192797422E-1,-1.799173355E-1,-1.558599472E-1,2.662521881E-1
4.210387343E0,-7.737833261E-2,-1.936855316E-1,-8.852291107E-2,2.265784573E-1
4.215367135E0,-5.974072218E-2,-2.003619671E-1,2.347183228E-2,2.103920119E-1
4.220346926E0,-2.310967445E-2,-1.716964245E-1,4.441452026E-2,1.788473339E-1
4.225326666E0,2.060306072E-2,-1.363358498E-1,8.425521851E-2,1.615886502E-1
4.230306458E0,8.084332943E-2,-1.060721874E-1,1.261405945E-1,1.835712462E-1
4.235286249E0,8.153885603E-2,-6.433892250E-2,1.582174301E-1,1.892639352E-1
4.240198541E0,5.860894918E-2,-2.307009697E-2,9.742450714E-2,1.160119515E-1
4.245178333E0,1.922631264E-2,-2.983593941E-2,9.186077118E-2,9.847962053E-2
4.250158124E0,-1.029920578E-2,-3.169393539E-2,4.590988159E-2,5.673003092E-2
4.255137864E0,-2.046185732E-2,-4.074811935E-2,7.163715363E-2,8.491748121E-2
4.260117655E0,-1.872718334E-2,-3.564715385E-2,1.114912033E-1,1.185399316E-1
4.265097447E0,1.147884130E-2,-4.272866249E-2,1.250057220E-1,1.326044228E-1
4.270083280E0,5.324149132E-2,-6.427502632E-2,1.599187851E-1,1.803883401E-1
4.275063072E0,3.992480040E-2,-7.413411140E-2,1.709661484E-1,1.905761791E-1
4.280042864E0,-1.707971096E-3,-7.492041588E-2,2.082834244E-1,2.213548526E-1
4.285022603E0,-7.319509983E-3,-9.999632835E-2,2.336606979E-1,2.542639626E-1
4.290002395E0,1.093590260E-2,-1.112353802E-1,2.377309799E-1,2.626954940E-1
4.294982187E0,-1.750946045E-3,-1.682188511E-1,2.302093506E-1,2.851262751E-1
4.299931770E0,-2.129536867E-2,-1.778471470E-1,1.992759705E-1,2.679440479E-1
4.304911562E0,-1.419430971E-2,-1.737873554E-1,1.332368851E-1,2.194438217E-1
4.309891353E0,-3.318870068E-2,-1.987397671E-1,2.520370483E-2,2.030620881E-1
4.314871093E0,-6.137025356E-2,-1.573631763E-1,-1.458959579E-1,2.231929834E-1
4.319850885E0,-5.841177702E-2,-1.637473106E-1,-3.132381439E-1,3.582502648E-1
4.324830676E0,-8.862352371E-2,-1.793072224E-1,-4.650654793E-1,5.062520212E-1
4.329742083E0,-9.236836433E-2,-1.704719067E-1,-6.206212044E-1,6.502024800E-1
4.334721874E0,-4.863852262E-2,-1.682884693E-1,-7.038631439E-1,7.253344333E-1
4.339701666E0,-7.784426212E-3,-1.418852806E-1,-7.842483521E-1,7.970178843E-1
4.344681405E0,-3.278374672E-3,-1.603441238E-1,-7.738904953E-1,7.903337804E-1
4.349661197E0,-2.281159163E-2,-2.042150497E-1,-7.947440147E-1,8.208789218E-1
4.354640989E0,-5.175119638E-2,-2.068092823E-1,-7.539019585E-1,7.834643761E-1
4.359627083E0,-4.023748636E-2,-2.304375172E-1,-6.684017181E-1,7.081534872E-1
4.364606874E0,-4.304826260E-2,-2.369692326E-1,-5.932464600E-1,6.402725454E-1
4.369586666E0,-2.704375982E-2,-2.337877750E-1,-5.472784042E-1,5.957363011E-1
4.374566405E0,-3.890514374E-3,-2.447495461E-1,-5.207753181E-1,5.754341043E-1
4.379546197E0,-1.629698277E-2,-2.482211590E-1,-4.732666016E-1,5.346593416E-1
4.384525989E0,-1.388430595E-2,-2.489764690E-1,-3.930840492E-1,4.655073854E-1
4.389475520E0,7.905840874E-3,-2.164213657E-1,-3.207540512E-1,3.870192130E-1
4.394454270E0,-3.519713879E-3,-1.985168457E-1,-2.656164169E-1,3.316223867E-1
4.399433020E0,-7.078051567E-4,-2.119104862E-1,-2.321805954E-1,3.143475529E-1
4.404411770E0,-3.828054667E-2,-2.372856140E-1,-1.870460510E-1,3.045588417E-1
4.409390520E0,-8.768099546E-2,-2.317860126E-1,-1.754179001E-1,3.036184321E-1
4.414369270E0,-1.251635551E-1,-2.026603222E-1,-2.089490891E-1,3.168546095E-1
4.419317916E0,-1.580606103E-1,-1.760141850E-1,-2.564773560E-1,3.489194520E-1
4.424296666E0,-1.934780478E-1,-1.470861435E-1,-2.917556763E-1,3.797228769E-1
4.429275416E0,-1.884326339E-1,-8.245110512E-2,-2.864856720E-1,3.526741875E-1
4.434254166E0,-1.622865200E-1,-7.980036736E-2,-2.718868256E-1,3.265386028E-1
4.439232916E0,-1.126254797E-1,-6.477260590E-2,-2.481527328E-1,2.801067082E-1
4.444211666E0,-8.211982250E-2,-8.290886879E-2,-2.033634186E-1,2.344658307E-1
4.449168749E0,-3.486222029E-2,-8.870887756E-2,-1.567525864E-1,1.834557513E-1
4.454147499E0,7.725477219E-3,-8.491992950E-2,-4.407501221E-2,9.598793740E-2
4.459126249E0,1.968872547E-2,-6.699681282E-2,3.511428833E-3,6.991815910E-2
4.464104999E0,1.531499624E-2,-6.840991974E-2,7.688426971E-2,1.040464183E-1
4.469083749E0,-2.896887064E-2,-8.683371544E-2,1.284122467E-1,1.576990637E-1
4.474062499E0,-7.484215498E-2,-1.007428169E-1,1.107692719E-1,1.673926370E-1
4.479004270E0,-1.366841197E-1,-1.291584969E-1,1.741914749E-1,2.563340317E-1
4.483983020E0,-1.597451568E-1,-1.578133106E-1,1.446428299E-1,2.671050437E-1
4.488961770E0,-1.492641568E-1,-1.722240448E-1,9.406948090E-2,2.465562357E-1
4.493940520E0,-1.438586712E-1,-1.821029186E-1,5.360412598E-2,2.381810080E-1
4.498919270E0,-1.174249053E-1,-1.421883106E-1,-6.480693817E-2,1.954637135E-1
4.503898020E0,-7.269352674E-2,-1.075477600E-1,-1.916007996E-1,2.314340854E-1
4.508865833E0,-4.070466757E-2,-9.473204613E-2,-2.982158661E-1,3.155372138E-1
4.513844583E0,-7.602840662E-2,-9.617185593E-2,-3.588094711E-1,3.791748687E-1
4.518823333E0,-9.985882044E-2,-8.546233177E-2,-4.712243080E-1,4.892115520E-1
4.523802083E0,-5.024635792E-2,-8.638477325E-2,-4.925556183E-1,5.025913476E-1
4.528780833E0,8.365869522E-3,-4.877352715E-2,-4.759383202E-1,4.785040536E-1
4.533759583E0,8.087199926E-2,-5.860090256E-2,-4.549031258E-1,4.657372649E-1
4.538712551E0,1.294788718E-1,-4.674911499E-2,-4.128065109E-1,4.351545397E-1
4.543691301E0,1.615697742E-1,-2.524209023E-2,-3.118367195E-1,3.521137525E-1
4.548670051E0,1.893786788E-1,-2.751064301E-2,-2.522325516E-1,3.166107698E-1
4.553648801E0,1.726479530E-1,-3.459858894E-2,-1.907806396E-1,2.596182399E-1
4.558627551E0,1.045576334E-1,-3.924798965E-2,-1.607913971E-1,1.957717466E-1
4.563606301E0,4.706311226E-2,-5.118799210E-2,-1.452541351E-1,1.610400908E-1
4.568561510E0,-7.322371006E-3,-2.516078949E-2,-1.369276047E-1,1.394125223E-1
4.573540260E0,-8.030140400E-2,-3.279447556E-2,-1.143236160E-1,1.435049905E-1
4.578519010E0,-1.101227999E-1,-6.663990021E-2,-1.417045593E-1,1.914369073E-1
4.583497760E0,-1.114657521E-1,-7.409048080E-2,-1.759519577E-1,2.210726230E-1
4.588476510E0,-6.340742111E-2,-9.087562561E-2,-2.479286194E-1,2.715648738E-1
4.593455260E0,-1.629114151E-2,-8.124876022E-2,-2.789425850E-1,2.909909415E-1
4.598408541E0,-1.760745049E-2,-8.578634262E-2,-3.334875107E-1,3.447944876E-1
4.603387291E0,9.331285954E-3,-1.065487862E-1,-3.235926628E-1,3.408106925E-1
4.608366041E0,3.340899944E-2,-9.590864182E-2,-2.806663513E-1,2.984765143E-1
4.613344791E0,5.713111162E-2,-6.385803223E-2,-1.906299591E-1,2.090014199E-1
4.618323541E0,3.322380781E-2,-4.393839836E-2,-3.721809387E-2,6.648000276E-2
4.623302291E0,3.089189529E-2,-1.491403580E-2,6.989192963E-2,7.785640298E-2
4.628255937E0,1.676207781E-2,1.416683197E-3,1.478719711E-1,1.488257172E-1
4.633234687E0,-2.327328920E-2,-2.801513672E-2,1.304054260E-1,1.353959712E-1
4.638213437E0,-7.949233055E-2,-5.537986755E-2,1.323442459E-1,1.640151206E-1
4.643192187E0,-8.530944586E-2,-7.347774506E-2,6.084346771E-2,1.279789363E-1
4.648170937E0,-4.367333651E-2,-1.106352806E-1,-3.370952606E-2,1.236279005E-1
4.653149687E0,-2.395898104E-2,-1.285185814E-1,-1.583204269E-1,2.053202769E-1
4.658103645E0,6.201750040E-2,-1.413607597E-1,-2.676982880E-1,3.090168412E-1
4.663082395E0,1.187908053E-1,-1.299266815E-1,-3.739900589E-1,4.133530720E-1
4.668061145E0,1.609430909E-1,-1.276664734E-1,-4.297204018E-1,4.762993078E-1
4.673039895E0,1.458609104E-1,-1.200227737E-1,-4.401736259E-1,4.789923719E-1
4.678018645E0,1.025708914E-1,-1.141676903E-1,-4.318628311E-1,4.583236347E-1
4.682997395E0,6.480324268E-2,-1.363084316E-1,-3.954181671E-1,4.232434000E-1
4.687954114E0,3.243952990E-2,-1.768910885E-1,-3.262276649E-1,3.725147912E-1
4.692932864E0,-6.748855114E-3,-1.623022556E-1,-2.268285751E-1,2.789960066E-1
4.697911614E0,-5.288600922E-3,-1.384525299E-1,-1.567020416E-1,2.091712270E-1
4.702890364E0,5.486786366E-3,-1.483700275E-1,-9.174823761E-2,1.745322578E-1
4.707869114E0,2.273643017E-2,-1.396765709E-1,-6.031703949E-2,1.538331400E-1
4.712847864E0,1.359462738E-3,-9.826707840E-2,-5.976390839E-2,1.150217005E-1
4.717797864E0,-2.029317617E-2,-9.326863289E-2,-1.492404938E-1,1.771541020E-1
4.722776614E0,-4.694706202E-2,-6.920957565E-2,-2.356076241E-1,2.500098888E-1
4.727755364E0,-3.569382429E-2,-5.230093002E-2,-3.308134079E-1,3.368188641E-1
4.732734114E0,-3.889828920E-2,-3.018712997E-2,-4.064965248E-1,4.094676598E-1
4.737712864E0,-1.354664564E-2,4.445314407E-3,-4.273090363E-1,4.275468219E-1
4.742691614E0,2.593189478E-2,2.055525780E-2,-3.865594864E-1,3.879732185E-1
4.747654166E0,4.398441315E-2,4.654002190E-2,-2.656469345E-1,2.732560998E-1
4.752632864E0,6.479525566E-2,7.730746269E-2,-5.563640594E-2,1.151966953E-1
4.757611614E0,6.922876835E-2,9.833049774E-2,1.312026978E-1,1.779765632E-1
4.762590364E0,1.117413640E-1,8.544206619E-2,2.977018356E-1,3.292610849E-1
4.767569114E0,8.276164532E-2,9.083795547E-2,4.346914291E-1,4.517274207E-1
4.772547864E0,4.203701019E-2,2.180838585E-2,4.544982910E-1,4.569588739E-1
4.777526614E0,-1.039469242E-2,1.010894775E-4,4.175071716E-1,4.176365624E-1
4.782468176E0,-2.215188742E-2,-1.505255699E-2,4.025774002E-1,4.034672834E-1
4.787446926E0,2.305340767E-2,-6.156444550E-2,3.429346085E-1,3.491787311E-1
4.792425676E0,4.160052538E-2,-5.123567581E-2,2.555637360E-1,2.639479519E-1
4.797404426E0,8.847451210E-2,-8.180141449E-3,1.620073318E-1,1.847729135E-1
4.802383176E0,1.303099990E-1,1.769638062E-2,5.031204224E-2,1.408018442E-1
4.807361926E0,1.243271232E-1,2.179718018E-2,-5.732536316E-3,1.263535223E-1
4.812316822E0,9.465980530E-2,4.971599579E-2,-6.135654449E-2,1.232752389E-1
4.817295572E0,4.167544842E-2,5.370974541E-2,-1.189374924E-1,1.369952804E-1
4.822274322E0,2.005398273E-2,2.219605446E-2,-1.666164398E-1,1.692804332E-1
4.827253072E0,-2.056318521E-2,-1.660346985E-3,-2.140092850E-1,2.150013381E-1
4.832231822E0,-5.129492283E-2,-3.455233574E-2,-2.658886909E-1,2.729868660E-1
4.837210572E0,-7.455772161E-2,-3.598499298E-2,-2.937345505E-1,3.051782425E-1
4.842162030E0,-8.114635944E-2,-3.941607475E-2,-3.452658653E-1,3.568569410E-1
4.847140780E0,-2.859324217E-2,-4.726672173E-2,-3.489761353E-1,3.533214676E-1
4.852119530E0,-4.078149796E-4,-6.196928024E-2,-3.147325516E-1,3.207755244E-1
4.857098280E0,2.991503477E-2,-6.675958633E-2,-2.975406647E-1,3.064020215E-1
4.862077030E0,6.225228310E-2,-8.555102348E-2,-2.663311958E-1,2.865774420E-1
4.867055780E0,6.822925806E-2,-1.181514263E-1,-2.735328674E-1,3.056717533E-1
4.871980208E0,8.370828629E-2,-1.075069904E-1,-2.285189629E-1,2.660559087E-1
4.876958958E0,8.965700865E-2,-9.194278717E-2,-1.816368103E-1,2.224495138E-1
4.881937708E0,1.052084565E-1,-1.048464775E-1,-1.281137466E-1,1.961497776E-1
4.886916458E0,8.976918459E-2,-6.067609787E-2,-7.026481628E-2,1.291403878E-1
4.891895208E0,8.387458324E-2,-6.222486496E-2,5.372905731E-2,1.174465459E-1
4.896873958E0,8.768123388E-2,-5.944442749E-2,9.849262238E-2,1.446458966E-1
4.901859478E0,6.307578087E-2,-4.314017296E-2,1.194562912E-1,1.418077366E-1
4.906837395E0,4.336118698E-2,-7.962441444E-2,1.190595627E-1,1.496509919E-1
4.911815312E0,-2.832168341E-2,-9.235095978E-2,4.990959167E-2,1.087280316E-1
4.916793228E0,-4.697126150E-2,-7.654356956E-2,-4.952335358E-2,1.025562285E-1
4.921771145E0,-3.918129206E-2,-9.173870087E-2,-1.410198212E-1,1.727360786E-1
4.926749062E0,-5.983197689E-2,-9.937071800E-2,-2.176604271E-1,2.466383315E-1
4.931707603E0,-3.297472000E-2,-6.383824348E-2,-2.890610695E-1,2.978572735E-1
4.936685468E0,-1.137077808E-2,-2.583813667E-2,-3.172688484E-1,3.185222537E-1
4.941663437E0,1.214796305E-2,-5.415678024E-2,-3.193335533E-1,3.241210393E-1
4.946641353E0,4.235845804E-2,-5.802154541E-2,-2.954525948E-1,3.040608072E-1
4.951619270E0,2.441930771E-2,-4.034566879E-2,-2.266640663E-1,2.315181948E-1
4.956597187E0,3.008413315E-2,-4.640078545E-2,-1.299991608E-1,1.412723248E-1
4.961547551E0,3.084850311E-2,-5.717134476E-2,-5.616188049E-3,6.520532474E-2
4.966525416E0,4.341131449E-2,-4.880499840E-2,6.307888031E-2,9.080426882E-2
4.971503385E0,2.498579025E-2,-3.347516060E-2,1.359987259E-1,1.422692150E-1
4.976481301E0,2.824473381E-2,-2.323532104E-2,1.917705536E-1,1.952270226E-1
4.981459218E0,-8.673548698E-3,-1.343655586E-2,2.804851532E-1,2.809407280E-1
4.986437135E0,-1.649749279E-2,-1.598119736E-2,3.163595200E-1,3.171922316E-1
4.991376562E0,-3.101313114E-2,7.867813110E-5,3.259754181E-1,3.274473907E-1
4.996354478E0,-6.879788637E-2,-2.251505852E-2,2.810859680E-1,2.902574692E-1
5.001332395E0,-9.877407551E-2,2.249240875E-3,2.343273163E-1,2.543042828E-1
5.006310312E0,-6.630241871E-2,-1.140189171E-2,1.405057907E-1,1.557815492E-1
5.011288228E0,-4.092311859E-2,-4.647636414E-2,4.768371582E-6,6.192539125E-2
5.016266145E0,-3.229814768E-2,-7.633495331E-2,-1.275377274E-1,1.521054481E-1
5.021224270E0,-9.604752064E-3,-7.717752457E-2,-2.470049858E-1,2.589596196E-1
5.026202187E0,2.937912941E-2,-9.193849564E-2,-3.157362938E-1,3.301593970E-1
5.031180103E0,7.016986609E-2,-6.117343903E-2,-3.459935188E-1,3.582980810E-1
5.036158020E0,7.906931639E-2,-4.924988747E-2,-3.785176277E-1,3.898116246E-1
5.041135937E0,7.074391842E-2,-4.695796967E-2,-3.679504395E-1,3.776205487E-1
5.046113853E0,1.927369833E-2,-3.749155998E-2,-3.313322067E-1,3.340031792E-1
5.051070468E0,-2.971029282E-2,-4.448556900E-2,-2.832322121E-1,2.882397497E-1
5.056048385E0,-4.030346870E-2,-8.225750923E-2,-2.331776619E-1,2.505244288E-1
5.061026301E0,-1.005611420E-1,-8.401560783E-2,-1.930861473E-1,2.333525786E-1
5.066004218E0,-1.007105112E-1,-9.490251541E-2,-2.010326385E-1,2.440557647E-1
5.070982135E0,-9.595364332E-2,-7.920527458E-2,-1.615905762E-1,2.039413923E-1
5.075960051E0,-6.959605217E-2,-1.061685085E-1,-1.178607941E-1,1.732239287E-1
5.080919374E0,-9.748756886E-3,-8.272099495E-2,-8.180618286E-2,1.167478172E-1
5.085897291E0,7.151651382E-2,-7.600355148E-2,-1.051235199E-2,1.048888037E-1
5.090875208E0,8.575832844E-2,-7.402253151E-2,1.737976074E-2,1.146118761E-1
5.095853124E0,9.285986423E-2,-5.081844330E-2,4.034519196E-2,1.132837282E-1
5.100831041E0,7.618683577E-2,-2.557611465E-2,6.556224823E-2,1.037158617E-1
5.105808958E0,4.511797428E-2,-3.173804283E-2,1.263771057E-1,1.378916524E-1
5.110768437E0,6.877005100E-3,-3.345751762E-2,1.322498322E-1,1.365895925E-1
5.115746353E0,-2.428418398E-2,2.100467682E-4,1.524839401E-1,1.544056920E-1
5.120724270E0,-5.548495054E-2,-2.543449402E-3,1.561918259E-1,1.657737474E-1
5.125702187E0,-9.841012955E-2,-3.424978256E-2,1.624803543E-1,1.930219333E-1
5.130680103E0,-1.123851538E-1,-4.465579987E-2,1.166124344E-1,1.679970925E-1
5.135658020E0,-8.339190483E-2,-5.045151711E-2,5.459880829E-2,1.117165844E-1
5.140614739E0,-5.923724174E-2,-2.763199806E-2,-3.782272339E-2,7.551911368E-2
5.145592655E0,-1.111763716E-2,-2.386474609E-2,-1.200761795E-1,1.229285030E-1
5.150570572E0,8.419036865E-3,-6.970286369E-2,-1.828184128E-1,1.958365171E-1
5.155548489E0,4.298150539E-3,-1.740288734E-2,-2.404842377E-1,2.411514113E-1
5.160526405E0,-8.927881718E-3,-3.129243851E-3,-2.788977623E-1,2.790581679E-1
5.165504322E0,-4.098463058E-2,-1.696968079E-2,-2.934889793E-1,2.968223223E-1
5.170488385E0,-9.892636538E-2,-6.469964981E-3,-2.773013115E-1,2.944899040E-1
5.175466301E0,-1.731886268E-1,9.070396423E-3,-2.542881966E-1,3.077971076E-1
5.180444218E0,-1.854529381E-1,5.913972855E-3,-1.912593842E-1,2.664731119E-1
5.185422135E0,-1.769616604E-1,-4.285335541E-3,-1.405973434E-1,2.260562017E-1
5.190400051E0,-1.739991903E-1,-2.646923065E-3,-7.598209381E-2,1.898841832E-1
5.195377968E0,-1.671667695E-1,1.103639603E-3,2.154922485E-2,1.685535996E-1
5.200337135E0,-1.205578446E-1,2.178430557E-3,1.018161774E-1,1.578146807E-1
5.205315103E0,-2.709454298E-2,5.027985573E-2,1.911687851E-1,1.995186271E-1
5.210293020E0,5.152857304E-2,7.616734505E-2,2.657175064E-1,2.811804607E-1
5.215270937E0,8.962368965E-2,8.956050873E-2,2.661504745E-1,2.947703607E-1
5.220248853E0,1.421869993E-1,1.049838066E-1,2.595205307E-1,3.139898856E-1
5.225226770E0,1.781524420E-1,1.057093143E-1,2.958154678E-1,3.611364600E-1
5.230182135E0,1.667152047E-1,9.415769577E-2,2.796993256E-1,3.389562566E-1
5.235160051E0,1.154373884E-1,1.298596859E-1,2.662248611E-1,3.179072276E-1
5.240137968E0,7.453972101E-2,1.031956673E-1,2.410917282E-1,2.726366394E-1
5.245115885E0,8.562147617E-3,9.787917137E-2,2.114782333E-1,2.331880909E-1
5.250093801E0,-4.431915283E-2,6.394028664E-2,1.726274490E-1,1.893483132E-1
5.255071718E0,-9.876316786E-2,5.873894691E-2,1.032114029E-1,1.544571814E-1
5.260033176E0,-1.003440619E-1,4.411268234E-2,2.721977234E-2,1.129414693E-1
5.265011093E0,-1.186161637E-1,1.065516472E-2,-4.815578461E-2,1.284613032E-1
5.269989062E0,-1.346590519E-1,-2.725934982E-2,-1.062545776E-1,1.736841031E-1
5.274966978E0,-1.415575147E-1,-4.091167450E-2,-2.375583649E-1,2.795465467E-1
5.279944895E0,-1.253285408E-1,-5.184435844E-2,-3.108048439E-1,3.391087313E-1
5.284922812E0,-8.139503002E-2,-6.463551521E-2,-3.455824852E-1,3.608741537E-1
5.289879530E0,-3.626608849E-2,-7.689380646E-2,-3.683271408E-1,3.780115994E-1
5.294857447E0,-1.726567745E-3,-7.908320427E-2,-3.886704445E-1,3.966381836E-1
5.299835364E0,3.682231903E-2,-4.750800133E-2,-3.449029922E-1,3.501013674E-1
5.304813280E0,7.018816471E-2,-3.958463669E-3,-2.327737808E-1,2.431577285E-1
5.309791197E0,5.118364096E-2,1.562905312E-2,-1.287965775E-1,1.394725448E-1
5.314769114E0,2.570092678E-2,1.382589340E-2,-1.392459869E-2,3.233554414E-2
5.319726666E0,-1.559793949E-2,9.601831436E-3,9.521579742E-2,9.696153342E-2
5.324704583E0,-3.241455555E-2,9.952068329E-3,2.130174637E-1,2.156992974E-1
5.329682499E0,-3.703957796E-2,-4.004335403E-2,2.754077911E-1,2.807576392E-1
5.334660416E0,-5.089062452E-2,-5.207371712E-2,2.899694443E-1,2.989712466E-1
5.339638333E0,-6.671994925E-2,-5.715847015E-2,2.665128708E-1,2.806202998E-1
5.344616249E0,-3.935241699E-2,-5.284047127E-2,2.361669540E-1,2.451847432E-1
5.349567395E0,2.382385731E-2,-6.063365936E-2,1.728763580E-1,1.847437468E-1
5.354545312E0,6.531685591E-2,-4.226469994E-2,6.260013580E-2,9.985676506E-2
5.359523228E0,7.085311413E-2,-1.666116714E-2,-1.837921143E-2,7.507032493E-2
5.364501145E0,7.390129566E-2,-1.478028297E-2,-4.416084290E-2,8.735009050E-2
5.369479062E0,6.718277931E-2,8.531808853E-3,-7.923984528E-2,1.042366091E-1
5.374456978E0,3.635424376E-2,3.892922401E-2,-7.843208313E-2,9.480879276E-2
5.379421822E0,-4.169940948E-3,5.024504662E-2,-1.085596085E-1,1.196960388E-1
5.384399739E0,-4.735296965E-2,2.838349342E-2,-1.123342514E-1,1.251675296E-1
5.389377655E0,-6.237667799E-2,2.584099770E-2,-9.945297241E-2,1.202060766E-1
5.394355572E0,-1.275877953E-1,4.013514519E-2,-1.033611298E-1,1.690354949E-1
5.399333489E0,-1.664443016E-1,2.607226372E-2,-1.073389053E-1,1.997626318E-1
5.404311405E0,-1.623005867E-1,5.524420738E-2,-8.531856537E-2,1.915010718E-1
5.409271301E0,-9.633344412E-2,6.089210510E-2,-2.808761597E-2,1.173750190E-1
5.414248541E0,1.686382294E-2,4.794573784E-2,6.642913818E-2,8.364217059E-2
5.419225833E0,6.773710251E-2,8.752655983E-2,1.838054657E-1,2.145545687E-1
5.424203124E0,1.090663075E-1,1.006669998E-1,2.645263672E-1,3.033207926E-1
5.429180364E0,1.052784920E-1,9.472632408E-2,3.659076691E-1,3.923583306E-1
5.434157603E0,9.717679024E-2,9.111452103E-2,4.213199615E-1,4.418774655E-1
5.439119114E0,5.849564075E-2,4.446411133E-2,4.811515808E-1,4.867295357E-1
5.444096353E0,2.745795250E-2,1.894760132E-2,5.360240936E-1,5.370612439E-1
5.449073645E0,2.998244762E-2,4.065489769E-2,5.835514069E-1,5.857337384E-1
5.454050937E0,3.730255365E-2,2.599263191E-2,5.834341049E-1,5.852029154E-1
5.459028176E0,2.793157101E-2,6.081438065E-2,5.099296570E-1,5.143022619E-1
5.464005416E0,2.559334040E-2,6.403326988E-2,4.420127869E-1,4.473595673E-1
5.468966145E0,4.214924574E-2,8.364176750E-2,3.462686539E-1,3.587122591E-1
5.473943437E0,2.997505665E-2,9.604263306E-2,2.465400696E-1,2.662793595E-1
5.478920676E0,2.016931772E-2,1.157639027E-1,1.641359329E-1,2.018630402E-1
5.483897968E0,-8.689761162E-3,1.309502125E-1,1.297578812E-1,1.845550807E-1
5.488875208E0,-4.907894135E-2,1.084723473E-1,1.500673294E-1,1.915599018E-1
5.493852447E0,-7.706052065E-2,1.104938984E-1,1.722965240E-1,2.187082934E-1
5.498776145E0,-7.377809286E-2,1.557252407E-1,1.988515854E-1,2.631264156E-1
5.503753385E0,-5.648261309E-2,1.344215870E-1,2.725429535E-1,3.090940150E-1
5.508730676E0,-4.658883810E-2,1.182551384E-1,3.716621399E-1,3.927945313E-1
5.513707916E0,5.764663219E-3,1.260581017E-1,4.533081055E-1,4.705444876E-1
5.518685208E0,-4.211902618E-3,1.430833340E-1,5.486421585E-1,5.670086407E-1
5.523662447E0,-3.574347496E-2,1.335413456E-1,6.219673157E-1,6.371453749E-1
5.528662083E0,-1.965647936E-2,1.189470291E-1,6.711235046E-1,6.818662122E-1
5.533639322E0,-3.946173191E-2,1.419243813E-1,6.631374359E-1,6.793018601E-1
5.538616614E0,-4.499703646E-2,1.073701382E-1,6.791439056E-1,6.890497257E-1
5.543593905E0,-5.974823236E-2,1.155278683E-1,6.428956985E-1,6.559202839E-1
5.548571145E0,-3.588956594E-2,1.115734577E-1,6.093635559E-1,6.205325460E-1
5.553548385E0,-1.641833782E-2,1.620645523E-1,5.832948685E-1,6.056132301E-1
5.558508333E0,1.993077993E-2,1.645870209E-1,5.669279099E-1,5.906719719E-1
5.563485624E0,3.006243706E-2,2.169997692E-1,4.889020920E-1,5.357405207E-1
5.568462864E0,4.742819071E-2,2.427818775E-1,4.447984695E-1,5.089579077E-1
5.573440103E0,3.149670362E-2,2.493252754E-1,3.939361572E-1,4.672695488E-1
5.578417395E0,1.268088818E-3,2.201223373E-1,3.102846146E-1,3.804365827E-1
5.583394635E0,-2.443599701E-2,2.054588795E-1,2.249746323E-1,3.056534872E-1
5.588353801E0,-4.316842556E-2,1.886796951E-1,1.664743423E-1,2.552983490E-1
5.593331041E0,-5.766886473E-2,1.771759987E-1,1.320896149E-1,2.283959256E-1
5.598308333E0,-8.922219276E-2,1.756148338E-1,1.358804703E-1,2.393003797E-1
5.603285572E0,-7.818841934E-2,1.816284657E-1,2.036075592E-1,2.838280582E-1
5.608262864E0,-7.437503338E-2,1.856014729E-1,3.133459091E-1,3.717058125E-1
5.613240103E0,-7.035362720E-2,1.755967140E-1,4.053707123E-1,4.473357276E-1
5.618201926E0,-4.685753584E-2,1.966884136E-1,5.511579514E-1,5.870749936E-1
5.623179166E0,-1.848000288E-2,2.081184387E-1,6.220541000E-1,6.562058354E-1
5.628156458E0,-1.605647802E-2,2.168564796E-1,6.900539398E-1,7.235046531E-1
5.633133749E0,-3.733873367E-3,2.014718056E-1,7.552165985E-1,7.816373462E-1
5.638110989E0,-7.815480232E-3,2.096624374E-1,7.748222351E-1,8.027259280E-1
5.643088228E0,-2.119064331E-3,2.412815094E-1,7.706127167E-1,8.075055519E-1
5.648052499E0,-5.776643753E-3,2.461614609E-1,6.810674667E-1,7.242111078E-1
5.653029739E0,-3.563976288E-2,2.578229904E-1,6.470613480E-1,6.974462525E-1
5.658007030E0,-5.128586292E-2,2.859244347E-1,6.205339432E-1,6.851608546E-1
5.662984270E0,-6.220620871E-2,2.590112686E-1,5.753068924E-1,6.339830204E-1
5.667961562E0,-1.183460355E-1,2.442440987E-1,4.853143692E-1,5.560494590E-1
5.672938801E0,-1.317816973E-1,2.274575233E-1,4.292621613E-1,5.033580671E-1
5.677869218E0,-1.192968488E-1,2.586860657E-1,4.329175949E-1,5.182353352E-1
5.682846510E0,-1.164653897E-1,2.522234917E-1,4.410200119E-1,5.212288630E-1
5.687823749E0,-1.278653741E-1,2.793436050E-1,5.083084106E-1,5.939358921E-1
5.692800989E0,-1.271380782E-1,3.184709549E-1,6.366157532E-1,7.230957455E-1
5.697778280E0,-4.545325041E-2,3.146343231E-1,7.305212021E-1,7.966944094E-1
5.702755520E0,2.423644066E-3,3.273644447E-1,7.975482941E-1,8.621233294E-1
5.707745520E0,4.526013136E-2,3.397226334E-1,8.950166702E-1,9.583917712E-1
5.712722760E0,6.389409304E-2,3.230214119E-1,9.491376877E-1,1.004633086E0
5.717700051E0,3.725880384E-2,2.918047905E-1,9.673662186E-1,1.011106154E0
5.722677291E0,-8.765459061E-4,2.604103088E-1,1.009394646E0,1.042445130E0
5.727654583E0,-3.374105692E-2,2.571749687E-1,1.001461983E0,1.034506417E0
5.732631822E0,-4.006576538E-2,2.537074089E-1,9.081888199E-1,9.438112351E-1
5.737595260E0,-2.493590117E-2,2.641305923E-1,8.182544708E-1,8.601901813E-1
5.742572499E0,-1.490145922E-2,2.480258942E-1,7.529926300E-1,7.929292519E-1
5.747549791E0,3.760683537E-2,2.412796021E-1,6.741724014E-1,7.170345510E-1
5.752527030E0,8.820414543E-3,2.343664169E-1,6.056270599E-1,6.494532722E-1
5.757504322E0,2.516549826E-2,2.416777611E-1,5.472173691E-1,5.987389177E-1
5.762481562E0,4.137098789E-2,2.156100273E-1,5.463380814E-1,5.887992371E-1
5.767418489E0,5.026751757E-2,2.183961868E-1,5.073995590E-1,5.546873266E-1
5.772395728E0,6.614381075E-2,2.258253098E-1,4.807109833E-1,5.352150256E-1
5.777373020E0,6.998556852E-2,2.140874863E-1,4.495468140E-1,5.028158406E-1
5.782350260E0,5.259215832E-2,2.236857414E-1,4.234466553E-1,4.817762093E-1
5.787327551E0,4.286998510E-2,2.285332680E-1,3.214759827E-1,3.967519346E-1
5.792304791E0,3.112238646E-2,1.957845688E-1,1.963596344E-1,2.790292213E-1
5.797266145E0,-1.616179943E-3,2.091798782E-1,1.194152832E-1,2.408710098E-1
5.802243385E0,-2.679181099E-2,2.207322121E-1,3.090953827E-2,2.244903342E-1
5.807220676E0,-1.117086411E-2,2.354664803E-1,-2.994537354E-4,2.357315024E-1
5.812197916E0,-3.357523680E-2,2.248044014E-1,4.434394836E-2,2.315830330E-1
5.817175208E0,-5.354821682E-2,2.054572105E-1,1.262807846E-1,2.470362594E-1
5.822152447E0,-2.826243639E-2,1.772222519E-1,2.286996841E-1,2.907061014E-1
5.827114843E0,-5.107527971E-2,1.826272011E-1,3.943653107E-1,4.375904215E-1
5.832092083E0,-6.455147266E-2,1.853880882E-1,6.039237976E-1,6.350272350E-1
5.837069374E0,-1.139944196E-1,1.688103676E-1,7.667884827E-1,7.933827860E-1
5.842046614E0,-1.373179555E-1,1.350774765E-1,8.668899536E-1,8.880317208E-1
5.847023905E0,-1.419997811E-1,1.363763809E-1,9.404993057E-1,9.608857368E-1
5.852001145E0,-1.209384203E-1,1.271743774E-1,9.759998322E-1,9.916527094E-1
5.856957655E0,-6.472671032E-2,1.695108414E-1,9.807329178E-1,9.973768237E-1
5.861934895E0,1.457899809E-2,2.107019424E-1,9.311895370E-1,9.548412484E-1
5.866912187E0,4.568368196E-2,2.389259338E-1,8.396625519E-1,8.741886534E-1
5.871889426E0,9.582036734E-2,2.617387772E-1,7.348270416E-1,7.859131704E-1
5.876866718E0,1.293776035E-1,2.961735725E-1,5.572185516E-1,6.441660218E-1
5.881843958E0,1.418333054E-1,3.233995438E-1,4.118299484E-1,5.425014819E-1
5.886808801E0,1.311463118E-1,2.939167023E-1,2.602090836E-1,4.138781827E-1
5.891786041E0,1.116283536E-1,3.104662895E-1,1.593761444E-1,3.664027315E-1
5.896763333E0,8.073240519E-2,2.873430252E-1,1.230821609E-1,3.228512873E-1
5.901740572E0,7.436472178E-2,2.816586494E-1,1.128778458E-1,3.124149720E-1
5.906717864E0,3.506398201E-2,2.313890457E-1,2.165184021E-1,3.188268994E-1
5.911695103E0,-1.395881176E-3,2.079534531E-1,3.286476135E-1,3.889162391E-1
5.916656926E0,-6.873786449E-3,2.156147957E-1,4.350996017E-1,4.856425151E-1
5.921633593E0,-6.904006004E-4,1.801080704E-1,5.574827194E-1,5.858552518E-1
5.926610312E0,7.640182972E-3,1.111588478E-1,6.292095184E-1,6.389986541E-1
5.931586978E0,-4.384446144E-2,6.596851349E-2,7.006464005E-1,7.051096085E-1
5.936563645E0,-8.328866959E-2,5.896043777E-2,6.623344421E-1,6.701494229E-1
5.941540364E0,-1.062003970E-1,7.551240921E-2,5.936164856E-1,6.077509196E-1
5.946503593E0,-1.173818707E-1,9.658861160E-2,5.326709747E-1,5.539370278E-1
5.951480312E0,-9.335607290E-2,1.081194878E-1,4.627084732E-1,4.842564518E-1
5.956456978E0,-8.158904314E-2,1.103677750E-1,4.383277893E-1,4.593136930E-1
5.961433645E0,-7.243251801E-2,1.626553535E-1,4.425821304E-1,4.770557367E-1
5.966410364E0,-3.955322504E-2,1.526904106E-1,4.729557037E-1,4.985638543E-1
5.971387030E0,-1.858133078E-2,1.544795036E-1,5.530424118E-1,5.745129173E-1
5.976339635E0,-9.637773037E-3,1.438775063E-1,5.780668259E-1,5.957808982E-1
5.981316301E0,6.557226181E-3,1.519455910E-1,5.603132248E-1,5.805870905E-1
5.986293020E0,6.305098534E-3,1.357836723E-1,5.119981766E-1,5.297349269E-1
5.991269687E0,2.775174379E-2,1.077408791E-1,4.142427444E-1,4.289234286E-1
5.996246353E0,3.978836536E-2,7.293367386E-2,2.887115479E-1,3.004276829E-1
6.001223072E0,5.654430389E-2,9.099817276E-2,1.498117447E-1,1.841778613E-1
6.006188958E0,6.372505426E-2,1.045699120E-1,5.462455750E-2,1.340879984E-1
6.011165624E0,1.152712107E-2,9.728145599E-2,-9.202003479E-3,9.839325723E-2
6.016142291E0,-1.867479086E-2,8.826637268E-2,8.411407471E-4,9.022420893E-2
6.021119010E0,-3.183734417E-2,7.270145416E-2,3.904914856E-2,8.845311710E-2
6.026095676E0,-6.853193045E-2,5.041599274E-2,1.219291687E-1,1.486779069E-1
6.031072395E0,-1.143980622E-1,5.236101151E-2,1.920957565E-1,2.296287696E-1
6.036070624E0,-1.435195208E-1,3.781223297E-2,2.497482300E-1,2.905198723E-1
6.041047343E0,-1.489402652E-1,4.157066345E-3,3.331851959E-1,3.649833675E-1
6.046024010E0,-1.310124397E-1,-3.487110138E-3,3.686494827E-1,3.912529366E-1
6.051000676E0,-1.255177855E-1,1.709079742E-2,4.325284958E-1,4.506969154E-1
6.055977395E0,-8.235555887E-2,1.565980911E-2,4.367351532E-1,4.447080635E-1
6.060954062E0,-3.742760420E-2,6.120300293E-2,4.198150635E-1,4.259005995E-1
6.065851093E0,9.402632713E-3,1.011881828E-1,3.747491837E-1,3.882839277E-1
6.070827760E0,4.157137871E-2,1.190452576E-1,3.088836670E-1,3.336301434E-1
6.075804426E0,7.136714458E-2,1.152677536E-1,2.317218781E-1,2.684677879E-1
6.080781145E0,2.998697758E-2,9.514665604E-2,1.479253769E-1,1.784209128E-1
6.085757812E0,2.709656954E-2,1.017322540E-1,5.511283875E-2,1.188322371E-1
6.090734478E0,2.918463945E-2,9.705543518E-2,1.261425018E-2,1.021304068E-1
6.095768072E0,4.340720177E-2,1.286225319E-1,4.143333435E-2,1.419318924E-1
6.100744687E0,2.210146189E-2,1.793346405E-1,1.125535965E-1,2.128795434E-1
6.105721405E0,-1.072192192E-2,1.207652092E-1,1.828622818E-1,2.194033032E-1
6.110698072E0,-1.453703642E-2,6.525611877E-2,2.690982819E-1,2.772788700E-1
6.115674739E0,-7.028728724E-2,6.488847733E-2,3.450679779E-1,3.580820110E-1
6.120651458E0,-8.274304867E-2,3.827524185E-2,3.658218384E-1,3.770106413E-1
6.125615989E0,-8.335393667E-2,3.991365433E-2,3.771457672E-1,3.883038865E-1
6.130592655E0,-8.182883263E-2,3.192424774E-2,4.098300934E-1,4.191369954E-1
6.135569322E0,-5.683284998E-2,3.099870682E-2,3.900661469E-1,3.954016838E-1
6.140546041E0,-2.507716417E-2,2.044582367E-2,3.729209900E-1,3.743220013E-1
6.145522708E0,1.338094473E-2,2.171802521E-2,3.156156540E-1,3.166448537E-1
6.150499374E0,-5.700051785E-3,1.346683502E-2,2.754392624E-1,2.758271805E-1
6.155463697E0,1.211941242E-3,9.325408936E-2,3.116016388E-1,3.252589357E-1
6.160440364E0,-1.891195774E-3,9.389686584E-2,2.952795029E-1,3.098550998E-1
6.165417030E0,-1.465433836E-2,1.064434052E-1,2.885951996E-1,3.079482706E-1
6.170393697E0,-6.113648415E-3,7.589721680E-2,3.391065598E-1,3.475500296E-1
6.175370416E0,9.595870972E-3,8.105230331E-2,3.465204239E-1,3.560027539E-1
6.180347083E0,1.784086227E-3,8.589792252E-2,3.729791641E-1,3.827467739E-1
6.185310051E0,2.530771494E-2,5.951070786E-2,3.660812378E-1,3.717492131E-1
6.190286718E0,8.660256863E-3,7.353258133E-2,3.094196320E-1,3.181549139E-1
6.195263437E0,1.378196478E-2,6.363296509E-2,2.508592606E-1,2.591707264E-1
6.200240103E0,9.336531162E-3,5.624055862E-2,1.642589569E-1,1.738711482E-1
6.205216770E0,-6.881952286E-3,4.912567139E-2,6.401443481E-2,8.098481784E-2
6.210193489E0,-3.963851929E-2,7.826614380E-2,-3.329277039E-2,9.383608067E-2
6.215159791E0,-6.741696596E-2,6.272029877E-2,-7.073974609E-2,1.161162988E-1
6.220136405E0,-4.505479336E-2,5.272722244E-2,-4.882049561E-2,8.481471088E-2
6.225113124E0,-3.736019135E-2,5.766391754E-2,-1.226425171E-3,6.871983267E-2
6.230089843E0,9.237527847E-4,3.194379807E-2,6.248474121E-2,7.018263630E-2
6.235066458E0,-2.552449703E-2,1.360988617E-2,1.898050308E-1,1.919965590E-1
6.240043176E0,-5.182069540E-2,3.325891495E-2,2.876510620E-1,2.941677640E-1
6.245004843E0,-6.140458584E-2,-9.249687195E-3,3.990592957E-1,4.038618592E-1
6.249981562E0,-4.973512888E-2,-6.758689880E-3,4.290304184E-1,4.319564363E-1
6.254958228E0,-1.712447405E-2,-1.907014847E-2,5.065507889E-1,5.071987972E-1
6.259934895E0,1.274704933E-2,-4.612684250E-2,5.219612122E-1,5.241504363E-1
6.264911614E0,-2.537488937E-3,-2.595138550E-2,4.875879288E-1,4.882846522E-1
6.269888280E0,-7.455945015E-4,-1.105308533E-2,4.441490173E-1,4.442871551E-1
6.274853958E0,4.180496931E-2,5.784511566E-3,3.584365845E-1,3.609125949E-1
6.279830624E0,5.814278126E-2,1.035690308E-3,1.974315643E-1,2.058175849E-1
6.284807291E0,7.683360577E-2,2.724361420E-2,6.862449646E-2,1.065595561E-1
6.289784010E0,7.889962196E-2,2.243900299E-2,-6.901741028E-3,8.231824361E-2
6.294760676E0,4.552155733E-2,2.274894714E-2,-9.622955322E-2,1.088570333E-1
6.299737343E0,7.990181446E-3,2.569961548E-2,-1.825942993E-1,1.845670376E-1
6.304702343E0,1.628696918E-3,-1.655578613E-3,-2.447795868E-1,2.447906038E-1
6.309678958E0,-9.611427784E-3,-3.288841248E-2,-2.972478867E-1,2.992161983E-1
6.314655676E0,-3.046566248E-2,-3.874778748E-3,-3.210535049E-1,3.225190282E-1
6.319632343E0,-4.415673018E-2,1.128339767E-2,-2.808256149E-1,2.844998381E-1
6.324609062E0,-5.805307627E-2,4.857015610E-2,-2.033338547E-1,2.169651497E-1
6.329585728E0,-1.500380039E-2,3.610992432E-2,-8.868598938E-2,9.692391538E-2
6.334512864E0,6.015062332E-3,3.816843033E-2,7.958698273E-2,8.847088712E-2
6.339489530E0,5.062818527E-3,1.894569397E-2,2.274303436E-1,2.282742488E-1
6.344466249E0,-9.076595306E-4,3.062200546E-2,4.050168991E-1,4.061738786E-1
6.349442864E0,-1.404643059E-2,4.179716110E-2,5.789566040E-1,5.806333216E-1
6.354419583E0,-2.239310741E-2,1.424264908E-2,7.185058594E-1,7.189958096E-1
6.359396249E0,-2.112323046E-2,1.729726791E-2,8.096256256E-1,8.100858226E-1
6.364363749E0,-4.357147217E-2,4.102611542E-2,8.219251633E-1,8.241010796E-1
6.369340364E0,-2.524489164E-2,5.400466919E-2,8.821334839E-1,8.841455153E-1
6.374317083E0,-2.159774303E-3,4.914760590E-2,9.067354202E-1,9.080689809E-1
6.379293749E0,2.093869448E-2,5.523967743E-2,8.294439316E-1,8.315449997E-1
6.384270468E0,6.068015099E-2,5.579614639E-2,6.866273880E-1,6.915579951E-1
6.389247135E0,7.421100140E-2,6.523990631E-2,4.858932495E-1,4.958384495E-1
6.394244739E0,7.854020596E-2,8.388805389E-2,2.750310898E-1,2.980735981E-1
6.399221405E0,9.277004004E-2,8.356046677E-2,5.154895782E-2,1.350774851E-1
6.404198124E0,1.142139435E-1,1.074876785E-1,-1.465740204E-1,2.146680446E-1
6.409174791E0,1.048259735E-1,9.625816345E-2,-2.982616425E-1,3.304756059E-1
6.414151458E0,8.368307352E-2,9.775972366E-2,-4.253072739E-1,4.443490718E-1
6.419128176E0,3.407132626E-2,9.065151215E-2,-5.065956116E-1,5.157690041E-1
6.424055520E0,-1.785320044E-2,2.061128616E-2,-4.832239151E-1,4.839926797E-1
6.429031770E0,-4.816520214E-2,2.091646194E-2,-4.604644775E-1,4.634489402E-1
6.434008020E0,-7.374829054E-2,-4.683113098E-2,-3.812761307E-1,3.911565582E-1
6.438984270E0,-1.067478657E-1,-5.856847763E-2,-2.817296982E-1,3.069152916E-1
6.443960520E0,-1.373248696E-1,-7.917642593E-2,-1.571264267E-1,2.231944000E-1
6.448936770E0,-1.532322168E-1,-8.035326004E-2,2.331256866E-2,1.745858944E-1
6.453937968E0,-1.307917833E-1,-7.430696487E-2,2.235679626E-1,2.694636331E-1
6.458914218E0,-9.421384335E-2,-8.520984650E-2,4.222860336E-1,4.409789796E-1
6.463890520E0,-2.477395535E-2,-5.636358261E-2,5.531988144E-1,5.566143463E-1
6.468866770E0,-1.324772835E-3,-4.043722153E-2,6.430568695E-1,6.443283800E-1
6.473843020E0,-2.343773842E-2,7.628917694E-3,6.780338287E-1,6.784816879E-1
6.478819218E0,-5.968987942E-2,4.961299896E-2,6.561717987E-1,6.607463665E-1
6.483784062E0,-6.953215599E-2,7.158231735E-2,5.588006973E-1,5.676415843E-1
6.488760364E0,-9.596949816E-2,9.057617188E-2,4.529495239E-1,4.717811555E-1
6.493736562E0,-7.691347599E-2,9.972476959E-2,3.361835480E-1,3.589987331E-1
6.498712812E0,-3.892064095E-2,1.043601036E-1,1.917219162E-1,2.217276272E-1
6.503689114E0,2.746891975E-2,1.210608482E-1,1.077251434E-1,1.643623347E-1
6.508665312E0,1.126080155E-1,1.117100716E-1,9.318637848E-2,1.839657750E-1
6.513634218E0,1.614724398E-1,1.168589592E-1,5.967521667E-2,2.080636841E-1
6.518610520E0,1.888705492E-1,1.293888092E-1,1.914501190E-2,2.297391560E-1
6.523586718E0,1.569268107E-1,1.086726189E-1,2.875995636E-2,1.930359995E-1
6.528563020E0,1.088272929E-1,7.153511047E-2,1.000251770E-1,1.642123252E-1
6.533539270E0,4.228675365E-2,4.157543182E-2,1.328020096E-1,1.454409152E-1
6.538515468E0,-2.248585224E-3,3.550958633E-2,1.796083450E-1,1.830987287E-1
6.543484374E0,-7.473474741E-2,1.508808136E-2,1.857023239E-1,2.007443294E-1
6.548460572E0,-1.371799111E-1,1.373434067E-2,1.585464478E-1,2.101045840E-1
6.553436822E0,-1.898999214E-1,-3.513193130E-2,1.007642746E-1,2.178294557E-1
6.558413124E0,-1.995113790E-1,-1.914644241E-2,7.182598114E-2,2.129092487E-1
6.563389322E0,-1.476232409E-1,-5.516910553E-2,1.921081543E-2,1.587617930E-1
6.568365572E0,-8.708006144E-2,-6.453037262E-2,2.585411072E-3,1.084148995E-1
6.573320103E0,-2.983015776E-2,-3.316736221E-2,5.014228821E-2,6.711304862E-2
6.578296405E0,3.136777878E-2,-1.149749756E-2,9.491729736E-2,1.006251625E-1
6.583272603E0,6.112629175E-2,3.842973709E-2,1.868677139E-1,2.003317517E-1
6.588248853E0,8.369266987E-2,6.159591675E-2,2.686414719E-1,2.880395118E-1
6.593225103E0,9.449082613E-2,3.884792328E-2,2.811098099E-1,2.990993189E-1
6.598201353E0,7.682991028E-2,2.540779114E-2,2.603960037E-1,2.726801601E-1
6.603178280E0,5.710184574E-2,6.154680252E-2,2.091674805E-1,2.253878093E-1
6.608154583E0,2.840465307E-2,2.825641632E-2,1.323242188E-1,1.382568199E-1
6.613130780E0,1.456934214E-2,5.459308624E-2,5.848693848E-2,8.132276906E-2
6.618107030E0,1.307278872E-2,5.471420288E-2,-2.952575684E-3,5.633169183E-2
6.623083280E0,2.145987749E-2,4.556322098E-2,-6.402206421E-2,8.145770776E-2
6.628059530E0,2.980023623E-2,7.733726501E-2,-1.675748825E-1,1.869503888E-1
6.633022916E0,4.268085957E-2,6.669521332E-2,-1.826601028E-1,1.990844555E-1
6.637999166E0,3.142553568E-2,8.520746231E-2,-1.218595505E-1,1.519790313E-1
6.642975416E0,1.263099909E-2,5.182552338E-2,-1.306743622E-1,1.411425377E-1
6.647951666E0,-2.554059029E-2,5.716323853E-2,-8.732891083E-2,1.074536935E-1
6.652927916E0,-4.238229990E-2,2.706813812E-2,6.959056854E-2,8.585913275E-2
6.657904166E0,-4.030895233E-2,4.247283936E-2,1.824045181E-1,1.915728633E-1
6.662873853E0,-3.112524748E-2,6.702709198E-2,3.323974609E-1,3.405135594E-1
6.667850155E0,2.791368961E-2,1.099295616E-1,4.671087265E-1,4.806810220E-1
6.672826353E0,4.605346918E-2,1.041378975E-1,4.989614487E-1,5.117891665E-1
6.677802603E0,5.693781376E-2,4.766607285E-2,4.834547043E-1,4.891241358E-1
6.682778853E0,6.277251244E-2,4.100036621E-2,3.994760513E-1,4.064511458E-1
6.687755103E0,4.694759846E-2,1.012706757E-2,2.855863571E-1,2.895966192E-1
6.692719687E0,5.171895027E-3,2.994060516E-3,1.799039841E-1,1.800032121E-1
6.697695989E0,2.806627750E-2,3.094673157E-3,1.011943817E-1,1.050599630E-1
6.702672239E0,6.036430597E-2,2.014684677E-2,8.721351624E-3,6.423244386E-2
6.707648489E0,5.426895618E-2,6.569862366E-2,-7.591247559E-2,1.141233224E-1
6.712624739E0,7.188677788E-2,7.559251785E-2,-1.362543106E-1,1.716017912E-1
6.717600937E0,8.912670612E-2,5.487728119E-2,-1.962499619E-1,2.224165760E-1
6.722569426E0,7.282900810E-2,4.429244995E-2,-2.298307419E-1,2.451286508E-1
6.727545676E0,3.768432140E-2,-2.735853195E-2,-2.183017731E-1,2.232134886E-1
6.732521874E0,1.966941357E-2,-8.107995987E-2,-2.072362900E-1,2.234003706E-1
6.737498124E0,2.353054285E-2,-9.607219696E-2,-1.251611710E-1,1.595270265E-1
6.742474374E0,5.349075794E-2,-9.155845642E-2,-3.207874298E-2,1.107847367E-1
6.747450624E0,6.661850214E-2,-9.887552261E-2,2.929973602E-2,1.227716104E-1
6.752389270E0,7.712918520E-2,-8.722925186E-2,8.547782898E-2,1.444448436E-1
6.757365520E0,7.338494062E-2,-7.339429855E-2,1.317234039E-1,1.676995161E-1
6.762341770E0,1.782482862E-2,-8.586597443E-2,1.775808334E-1,1.980546452E-1
6.767318020E0,-8.512139320E-3,-1.102075577E-1,1.993274689E-1,2.279245536E-1
6.772294270E0,-2.743351460E-2,-1.274003983E-1,2.376060486E-1,2.709983275E-1
6.777270520E0,-4.393732548E-2,-1.090049744E-1,2.281579971E-1,2.566488743E-1
6.782236770E0,-3.687077761E-2,-1.030106544E-1,2.308769226E-1,2.554893394E-1
6.787213020E0,-3.500801325E-2,-7.605934143E-2,2.432918549E-1,2.572965430E-1
6.792189270E0,-5.714732409E-2,-5.682897568E-2,2.106714249E-1,2.255610746E-1
6.797165520E0,-8.156949282E-2,-4.048824310E-2,1.499977112E-1,1.754770451E-1
6.802141770E0,-1.032731533E-1,-2.431535721E-2,5.182647705E-2,1.180786370E-1
6.807118020E0,-8.424937725E-2,1.282215118E-3,-4.319381714E-2,9.468530763E-2
6.812085885E0,-7.490777969E-2,2.196693420E-2,-1.065626144E-1,1.320958457E-1
6.817062135E0,-4.885512590E-2,6.655311584E-2,-2.099590302E-1,2.256079230E-1
6.822038385E0,-3.010028601E-2,9.221839905E-2,-2.889671326E-1,3.048151309E-1
6.827014635E0,-2.550107241E-2,9.451103210E-2,-2.844905853E-1,3.008613186E-1
6.831990885E0,5.490183830E-3,1.068677902E-1,-2.589855194E-1,2.802219941E-1
6.836967135E0,-4.196161032E-2,1.077556610E-1,-2.125825882E-1,2.419987934E-1
6.841934166E0,-6.281799078E-2,1.114730835E-1,-1.454219818E-1,1.937005449E-1
6.846910416E0,-3.841149807E-2,1.297788620E-1,-5.286693573E-2,1.453028186E-1
6.851886666E0,-8.798807859E-2,1.290736198E-1,5.311012268E-2,1.649926860E-1
6.856862916E0,-1.183543801E-1,1.117119789E-1,1.843700409E-1,2.459260814E-1
6.861839166E0,-1.012330651E-1,1.227397919E-1,2.743034363E-1,3.171049750E-1
6.866815416E0,-1.344413757E-1,1.190958023E-1,3.945569992E-1,4.335129978E-1
6.871780833E0,-1.011099219E-1,7.449817657E-2,4.903717041E-1,5.061991731E-1
6.876757135E0,-7.769930363E-2,8.655738831E-2,5.382480621E-1,5.506726247E-1
6.881733333E0,-4.239833355E-2,9.078359604E-2,5.503740311E-1,5.594201052E-1
6.886709583E0,-1.424020529E-2,1.087265015E-1,5.816287994E-1,5.918752368E-1
6.891685833E0,-3.357321024E-2,1.045794487E-1,5.487384796E-1,5.596230343E-1
6.896662083E0,-2.395391464E-3,1.262736320E-1,4.877395630E-1,5.038260110E-1
6.901629947E0,-3.533983231E-2,1.571898460E-1,3.987665176E-1,4.300840465E-1
6.906606197E0,-3.701096773E-2,1.450438499E-1,3.224277496E-1,3.554816224E-1
6.911582447E0,-2.923530340E-2,1.353316307E-1,2.895107269E-1,3.209140294E-1
6.916558697E0,-2.641487122E-2,8.070421219E-2,1.974229813E-1,2.149110253E-1
6.921534947E0,2.156412601E-2,6.203317642E-2,1.489229202E-1,1.627610601E-1
6.926511197E0,5.707931519E-2,2.934932709E-2,1.483116150E-1,1.616037325E-1
6.931476822E0,8.046549559E-2,3.488016129E-2,1.548614502E-1,1.779701952E-1
6.936452760E0,8.220666647E-2,4.738473892E-2,1.376609802E-1,1.671938844E-1
6.941428697E0,1.124388576E-1,-9.446144104E-3,8.513927460E-2,1.413521220E-1
6.946404635E0,1.142835617E-1,-4.676008224E-2,5.201053619E-2,1.339863189E-1
6.951380624E0,6.205558777E-2,-1.003956795E-1,1.673698425E-2,1.192070261E-1
6.956356562E0,2.712404728E-2,-6.801033020E-2,-6.579875946E-2,9.844082335E-2
6.961349791E0,-2.456307411E-4,-5.000686646E-2,-1.406021118E-1,1.492303618E-1
6.966325728E0,-6.560873985E-2,-5.807399750E-2,-2.196197510E-1,2.364528091E-1
6.971301666E0,-5.941641331E-2,-5.624294281E-2,-2.862443924E-1,2.977069548E-1
6.976277603E0,-7.719421387E-2,-5.383586884E-2,-3.145837784E-1,3.283598652E-1
6.981253593E0,-7.134658098E-2,-5.814981461E-2,-2.882375717E-1,3.025766569E-1
6.986229478E0,-2.996116877E-2,-2.395629883E-2,-2.575864792E-1,2.604272838E-1
6.991161301E0,-1.766073704E-2,-1.353836060E-2,-2.106742859E-1,2.118462735E-1
6.996137239E0,-1.275050640E-2,-2.203178406E-2,-1.642303467E-1,1.661914008E-1
7.001113176E0,-5.482971668E-3,-1.607322693E-2,-1.206121445E-1,1.218018924E-1
7.006089114E0,-6.056427956E-4,-3.118085861E-2,-4.191017151E-2,5.224055152E-2
7.011065051E0,-1.696377993E-2,-3.648328781E-2,4.005432129E-4,4.023630890E-2
7.016040989E0,2.641069889E-2,1.007080078E-3,8.273220062E-2,8.685134568E-2
7.021045208E0,3.637760878E-2,-7.192611694E-3,1.953630447E-1,1.988511587E-1
7.026021145E0,1.101791859E-2,1.530838013E-2,2.263803482E-1,2.271647048E-1
7.030997135E0,-7.088750601E-2,-2.936363220E-3,2.334499359E-1,2.439928960E-1
7.035973020E0,-1.351787448E-1,-2.128887177E-2,2.096824646E-1,2.503861918E-1
7.040948958E0,-1.725689769E-1,-4.197263718E-2,2.241582870E-1,2.859872230E-1
7.045924947E0,-2.001423240E-1,-4.824018478E-2,1.838817596E-1,2.760372562E-1
7.050892395E0,-1.872412562E-1,-4.976892471E-2,1.534872055E-1,2.471731299E-1
7.055868333E0,-1.748833060E-1,-1.595067978E-2,1.662874222E-1,2.418472693E-1
7.060844322E0,-1.489543915E-1,-1.566123962E-2,1.742706299E-1,2.297888979E-1
7.065820260E0,-1.097086072E-1,5.825662613E-2,1.299867630E-1,1.797953602E-1
7.070796145E0,-1.024624705E-1,9.115934372E-2,1.003942490E-1,1.699634933E-1
7.075772083E0,-8.854663372E-2,9.298038483E-2,9.717369080E-2,1.610235526E-1
7.080740780E0,-5.611354113E-2,1.162843704E-1,1.010780334E-1,1.639742454E-1
7.085716718E0,-1.929736137E-2,1.134662628E-1,1.119832993E-1,1.605840598E-1
7.090692655E0,1.245957613E-2,1.155481339E-1,1.821250916E-1,2.160466645E-1
7.095668645E0,3.006887436E-2,1.033444405E-1,2.825422287E-1,3.023480140E-1
7.100644583E0,7.657009363E-2,1.100354195E-1,3.584299088E-1,3.826784189E-1
7.105620468E0,1.282002330E-1,9.005641937E-2,4.576206207E-1,4.836962796E-1
7.110588958E0,1.468386650E-1,5.295801163E-2,5.277462006E-1,5.503473419E-1
7.115564895E0,1.328567863E-1,4.392814636E-2,5.429553986E-1,5.606970417E-1
7.120540833E0,9.104382992E-2,3.431415558E-2,5.036830902E-1,5.129942452E-1
7.125516822E0,6.646543741E-2,3.614902496E-2,4.174585342E-1,4.242593949E-1
7.130492708E0,2.784121037E-2,-1.250219345E-2,3.227396011E-1,3.241794071E-1
7.135468697E0,-5.637764931E-3,-8.833885193E-3,1.624631882E-1,1.628008275E-1
7.140427603E0,-2.938914299E-2,-3.125381470E-2,8.241653442E-3,4.368578156E-2
7.145403541E0,-4.834562540E-2,-6.521749496E-2,-1.114950180E-1,1.379193974E-1
7.150379530E0,-8.105456829E-3,-5.594825745E-2,-2.065429688E-1,2.141399166E-1
7.155355416E0,3.848278522E-2,-8.439445496E-2,-3.199510574E-1,3.331246432E-1
7.160331353E0,1.767784357E-2,-4.335021973E-2,-3.707914352E-1,3.737352487E-1
7.165307343E0,3.454220295E-2,-2.823352814E-2,-3.881807327E-1,3.907359430E-1
7.170284895E0,-6.212532520E-3,-7.948875427E-3,-3.985309601E-1,3.986586338E-1
7.175260833E0,4.416704178E-4,5.781650543E-3,-3.616189957E-1,3.616654816E-1
7.180236822E0,-2.252459526E-4,5.748271942E-3,-2.849197388E-1,2.849778077E-1
7.185212708E0,-3.122568130E-3,1.102399826E-2,-2.091484070E-1,2.094620135E-1
7.190188645E0,-5.833327770E-3,2.416610718E-3,-8.909130096E-2,8.931476713E-2
7.195164635E0,-8.243143559E-3,1.315641403E-2,1.301765442E-3,1.557996275E-2
7.200093853E0,-3.229439259E-3,2.460956573E-3,1.051559448E-1,1.052343020E-1
7.205069791E0,1.378422976E-2,-1.046514511E-2,1.914768219E-1,1.922573733E-1
7.210045728E0,5.222153664E-2,-2.235889435E-3,2.796049118E-1,2.844485802E-1
7.215021666E0,4.550516605E-2,3.174304962E-3,3.339042664E-1,3.370057202E-1
7.219997603E0,3.190457821E-2,1.055002213E-2,3.736648560E-1,3.751727997E-1
7.224973541E0,1.387596130E-2,3.057003021E-3,3.729686737E-1,3.732392251E-1
7.229979218E0,-3.713494539E-2,-4.196166992E-5,3.653516769E-1,3.672340586E-1
7.234955155E0,-2.324879169E-3,5.983352661E-3,3.342514038E-1,3.343130367E-1
7.239931093E0,-2.269744873E-2,1.173639297E-2,2.441520691E-1,2.454855392E-1
7.244907030E0,-7.138246298E-2,2.686786652E-2,1.429615021E-1,1.620349633E-1
7.249882968E0,-6.001687050E-2,4.206323624E-2,5.675411224E-2,9.269503678E-2
7.254858905E0,-5.575639009E-2,3.136968613E-2,4.331588745E-3,6.412171945E-2
7.259790520E0,8.100867271E-4,5.895948410E-2,-2.412796021E-4,5.896554266E-2
7.264766458E0,5.689430237E-2,1.148023605E-1,-2.388000488E-3,1.281493120E-1
7.269742395E0,7.429206371E-2,1.201286316E-1,-1.154422760E-2,1.417161531E-1
7.274718333E0,7.703500986E-2,5.636310577E-2,3.228187561E-3,9.550713917E-2
7.279694270E0,3.932404518E-2,3.811025620E-2,-8.172988892E-3,5.536758893E-2
7.284670208E0,1.880705357E-3,-1.101922989E-2,-5.741119385E-2,5.848936364E-2
7.289674947E0,-1.642817259E-2,-5.732393265E-2,-1.086206436E-1,1.239127206E-1
7.294650885E0,-3.722000122E-2,-7.002019882E-2,-1.522397995E-1,1.716540512E-1
7.299626874E0,-7.712173462E-2,-8.484697342E-2,-1.622848511E-1,1.987036581E-1
7.304602812E0,-7.402431965E-2,-5.660343170E-2,-1.770839691E-1,2.001056733E-1
7.309578749E0,-5.425369740E-2,-4.740333557E-2,-1.823606491E-1,1.960763786E-1
7.314554687E0,-3.460085392E-2,-6.163454056E-2,-1.640415192E-1,1.786215432E-1
7.319523697E0,-2.682721615E-2,-7.295703888E-2,-1.769752502E-1,1.932942530E-1
7.324499635E0,-1.427382231E-2,-6.000471115E-2,-1.615142822E-1,1.728906323E-1
7.329475572E0,5.737543106E-4,-8.959102631E-2,-1.107139587E-1,1.424235298E-1
7.334451562E0,-5.942702293E-3,-1.046242714E-1,-4.849624634E-2,1.154705148E-1
7.339427499E0,-7.537305355E-3,-1.123414040E-1,1.316165924E-2,1.133606250E-1
7.344403437E0,-2.572447062E-2,-9.154462814E-2,6.008052826E-2,1.124803859E-1
7.349372551E0,-3.202283382E-2,-4.256153107E-2,1.256952286E-1,1.365146010E-1
7.354348489E0,-7.639223337E-2,-5.843353271E-2,1.149072647E-1,1.498463565E-1
7.359324426E0,-9.216386080E-2,-7.425260544E-2,1.209001541E-1,1.691876884E-1
7.364300364E0,-1.030755639E-1,-4.711627960E-2,8.167648315E-2,1.396981159E-1
7.369276301E0,-1.117761135E-1,-1.055383682E-2,2.340316772E-3,1.122976407E-1
7.374252239E0,-1.396869421E-1,-1.690244675E-2,3.288459778E-2,1.444975130E-1
7.379214322E0,-1.367141008E-1,1.727724075E-2,3.226470947E-2,1.415283007E-1
7.384190260E0,-1.126669645E-1,2.280712128E-2,7.911109924E-2,1.395441711E-1
7.389166197E0,-7.473003864E-2,4.249429703E-2,1.897439957E-1,2.083101722E-1
7.394142135E0,-3.692322969E-2,5.680084229E-2,2.355318069E-1,2.450814001E-1
7.399118072E0,-4.698920250E-2,4.471063614E-2,2.501325607E-1,2.584053484E-1
7.404094010E0,-4.982185364E-2,5.139684677E-2,2.909049988E-1,2.995823280E-1
7.409028749E0,-9.702563286E-3,1.261901855E-2,2.649440765E-1,2.654218210E-1
7.414004687E0,-5.370140076E-3,-2.409458160E-3,2.678575516E-1,2.679222123E-1
7.418980624E0,1.441359520E-3,3.787040710E-3,2.376155853E-1,2.376501327E-1
7.423956562E0,1.560181379E-2,-1.415634155E-2,2.362775803E-1,2.372149100E-1
7.428932499E0,3.004020452E-2,-1.546430588E-2,1.946096420E-1,1.975208126E-1
7.433908437E0,1.617735624E-2,-2.616405487E-3,1.604442596E-1,1.612789908E-1
7.438913437E0,1.221698523E-2,1.015567780E-2,1.407804489E-1,1.416740178E-1
7.443889166E0,-1.328200102E-2,-2.207136154E-2,3.328037262E-2,4.208491123E-2
7.448864895E0,-5.035275221E-2,-2.295494080E-2,-3.066825867E-2,6.326824679E-2
7.453840624E0,-6.338232756E-2,-7.012367249E-3,-6.804370880E-2,9.325469987E-2
7.458816301E0,-5.031180382E-2,-2.430677414E-2,-1.027984619E-1,1.170026523E-1
7.463792030E0,-2.829068899E-2,-2.468490601E-2,-1.016693115E-1,1.083806098E-1
7.468760989E0,-1.411521435E-2,-3.590106964E-3,-9.817981720E-2,9.925424248E-2
7.473736718E0,-9.839892387E-3,1.751565933E-2,-1.209220886E-1,1.225796611E-1
7.478712447E0,-1.077026129E-2,1.721191406E-2,-9.838104248E-2,1.004543580E-1
7.483688176E0,-1.197195053E-2,7.462024689E-3,-8.078575134E-2,8.200821320E-2
7.488663905E0,8.379399776E-3,2.630329132E-2,-5.622482300E-2,6.263631691E-2
7.493639583E0,4.078823328E-2,2.365732193E-2,-4.854583740E-2,6.767604587E-2
7.498609218E0,6.624311209E-2,-9.804725647E-3,-2.435684204E-2,7.125684738E-2
7.503584947E0,6.568044424E-2,-2.511024475E-3,-2.182102203E-2,6.925592395E-2
7.508560676E0,6.535524130E-2,-3.310060501E-2,-5.267238617E-2,9.022936264E-2
7.513536405E0,6.507933140E-2,-1.336288452E-2,-2.635002136E-2,7.147174046E-2
7.518512135E0,4.135262966E-2,1.542568207E-3,-2.406597137E-2,4.787055958E-2
7.523487812E0,5.112761259E-2,3.541421890E-2,-1.947212219E-2,6.517179768E-2
7.528457499E0,3.457307816E-2,2.633285522E-2,-1.257610321E-2,4.524240676E-2
7.533433228E0,-1.291090250E-2,3.135538101E-2,2.289390564E-2,4.091432802E-2
7.538408958E0,-6.270009279E-2,-3.505659103E-2,3.677558899E-2,8.070136403E-2
7.543384687E0,-8.165746927E-2,-7.947397232E-2,4.341983795E-2,1.219398905E-1
7.548360364E0,-8.191770315E-2,-9.979820251E-2,4.530811310E-2,1.368320738E-1
7.553336093E0,-8.021932840E-2,-1.150627136E-1,8.039951324E-2,1.616745201E-1
7.558304374E0,-7.408457994E-2,-9.462451935E-2,6.773948669E-2,1.379527553E-1
7.563280103E0,-9.455358982E-2,-6.969833374E-2,6.476402283E-2,1.341365637E-1
7.568255833E0,-8.436620235E-2,-1.670980453E-2,8.334159851E-2,1.197609941E-1
7.573231562E0,-4.815632105E-2,3.341197968E-2,8.991336823E-2,1.073303565E-1
7.578207239E0,-7.404506207E-3,4.747676849E-2,7.504749298E-2,8.911226886E-2
7.583183020E0,4.920423031E-3,9.022235870E-3,9.835052490E-2,9.888598006E-2
7.588150728E0,1.299905777E-2,-3.080844879E-3,1.547231674E-1,1.552988269E-1
7.593126458E0,3.845208883E-2,-6.031465530E-2,2.177381516E-1,2.291862200E-1
7.598102187E0,-6.967306137E-3,-5.092954636E-2,2.589883804E-1,2.640404197E-1
7.603077916E0,5.079191923E-2,1.509571075E-2,2.667331696E-1,2.719453682E-1
7.608053645E0,1.417695284E-1,7.547616959E-2,1.961593628E-1,2.535226754E-1
7.613029322E0,1.159135699E-1,7.096576691E-2,1.927862167E-1,2.358784033E-1
7.618001301E0,2.445614338E-2,2.261638641E-3,1.442995071E-1,1.463747441E-1
7.622977030E0,-2.804124355E-2,-6.100559235E-2,-5.588626862E-2,8.735713284E-2
7.627952760E0,-8.995252848E-2,-1.020216942E-1,-1.619014740E-1,2.114520531E-1
7.632928489E0,-1.185099483E-1,-9.959650040E-2,-2.125339508E-1,2.629348797E-1
7.637904166E0,-1.141076088E-1,-5.157232285E-2,-3.460884094E-1,3.680454293E-1
7.642879947E0,-1.154252291E-1,-3.896808624E-2,-3.742408752E-1,3.935704866E-1
7.647848385E0,-7.490301132E-2,-3.080940247E-2,-3.262767792E-1,3.361788468E-1
7.652824114E0,-3.805017471E-2,-4.364252090E-2,-2.717428207E-1,2.778428442E-1
7.657799843E0,-3.059327602E-2,-3.481912613E-2,-1.678161621E-1,1.740993519E-1
7.662775572E0,-2.345466614E-2,-1.415634155E-2,-7.740974426E-3,2.846833425E-2
7.667751301E0,-7.036983967E-3,-4.374790192E-2,1.487350464E-1,1.551950775E-1
7.672726978E0,-3.107088804E-2,-7.584476471E-2,2.090682983E-1,2.245604190E-1
7.677654218E0,4.756939411E-2,-7.488155365E-2,2.809839249E-1,2.946558338E-1
7.682629895E0,8.579874039E-2,-5.542421341E-2,3.620033264E-1,3.761378413E-1
7.687605624E0,1.128100157E-1,-9.356164932E-2,3.688411713E-1,3.968925440E-1
7.692581353E0,1.618608236E-1,-6.529998779E-2,3.543891907E-1,3.950376097E-1
7.697557083E0,1.730307937E-1,-6.622314453E-3,2.474851608E-1,3.020470418E-1
7.702532812E0,1.797058582E-1,4.419612885E-2,1.296892166E-1,2.259796146E-1
7.707542708E0,1.841675043E-1,4.929351807E-2,6.044864655E-2,2.000038986E-1
7.712518437E0,1.529965401E-1,3.305912018E-2,-6.527519226E-2,1.695927399E-1
7.717494166E0,1.147493124E-1,1.259279251E-2,-1.378631592E-1,1.798116620E-1
7.722469895E0,1.076098680E-1,-2.427101135E-4,-1.648683548E-1,1.968794479E-1
7.727445572E0,1.003202796E-1,4.088401794E-3,-1.680917740E-1,1.957950919E-1
7.732421301E0,4.050362110E-2,3.247165680E-2,-1.761798859E-1,1.836690066E-1
7.737390155E0,9.528458118E-3,3.705358505E-2,-1.367721558E-1,1.420224710E-1
7.742365885E0,-2.116507292E-2,-1.527976990E-2,-4.550075531E-2,5.245712929E-2
7.747341614E0,-3.043234348E-2,-2.203083038E-2,1.176357269E-2,3.936834591E-2
7.752317343E0,-3.263580799E-2,-9.821891785E-3,9.711742401E-2,1.029240476E-1
7.757293020E0,5.469799042E-3,-2.883672714E-2,1.581325531E-1,1.608333917E-1
7.762268749E0,4.946410656E-3,-4.088878632E-2,1.546821594E-1,1.600716411E-1
7.767238697E0,-2.177298069E-2,-4.362106323E-2,1.727857590E-1,1.795321095E-1
7.772214426E0,-2.954560518E-2,-2.517747879E-2,1.362352371E-1,1.416576438E-1
7.777190155E0,-4.438006878E-2,-4.261398315E-2,8.815860748E-2,1.075057307E-1
7.782165885E0,-6.854647398E-2,-9.553813934E-2,2.147388458E-2,1.195294227E-1
7.787141614E0,-6.158322096E-2,-5.039834976E-2,1.461791992E-2,8.090840714E-2
7.792117291E0,-4.752832651E-2,-5.045461655E-2,5.340576172E-4,6.931735258E-2
7.797085416E0,-1.218646765E-2,-5.274868011E-2,5.501747131E-3,5.441693182E-2
7.802061145E0,3.247827291E-2,9.204864502E-3,3.175544739E-2,4.634626394E-2
7.807036874E0,4.367685318E-2,-7.599830627E-3,3.632259369E-2,5.731278864E-2
7.812012603E0,5.508500338E-2,9.035587311E-3,7.168769836E-2,9.085772137E-2
7.816988280E0,4.529803991E-2,-9.250640869E-4,1.235294342E-1,1.315761729E-1
7.821964010E0,2.862930298E-2,-2.528476715E-2,1.061496735E-1,1.128127192E-1
7.826935520E0,5.182087421E-3,-3.775405884E-2,1.151247025E-1,1.212679682E-1
7.831911249E0,-2.489256859E-2,-6.450891495E-2,1.026887894E-1,1.237983342E-1
7.836886978E0,-5.683547258E-2,-4.604244232E-2,6.664943695E-2,9.895617659E-2
7.841862708E0,-6.696921587E-2,-2.535772324E-2,2.614879608E-2,7.623417566E-2
7.846838437E0,-7.014805079E-2,2.129650116E-2,-4.012966156E-2,8.357439636E-2
7.851814114E0,-9.263134003E-2,2.488756180E-2,-1.153764725E-1,1.500389492E-1
7.856779947E0,-6.776714325E-2,-2.201080322E-3,-2.090883255E-1,2.198070934E-1
7.861755676E0,-1.028708220E-1,2.376079559E-3,-2.333793640E-1,2.550568158E-1
7.866731405E0,-8.113527298E-2,1.687574387E-2,-2.576599121E-1,2.706591095E-1
7.871707135E0,-5.520236492E-2,2.450037003E-2,-1.987533569E-1,2.077269027E-1
7.876682864E0,-2.964836359E-2,1.115131378E-2,-1.358060837E-1,1.394513163E-1
7.881658541E0,3.367781639E-2,2.184438705E-2,-2.203941345E-3,4.020236212E-2
7.886628749E0,9.668660164E-2,6.812334061E-2,8.273792267E-2,1.443421363E-1
7.891604478E0,1.213699579E-1,5.443239212E-2,1.860589981E-1,2.287170802E-1
7.896580208E0,1.412590146E-1,1.443481445E-2,2.648963928E-1,3.005537756E-1
7.901555937E0,8.517426252E-2,2.413368225E-2,2.934331894E-1,3.064965355E-1
7.906531614E0,2.499216795E-2,3.570747375E-2,3.243026733E-1,3.272183615E-1
7.911507343E0,1.248359680E-3,-1.731014252E-2,3.455667496E-1,3.460022801E-1
7.916474322E0,-2.427715063E-2,1.052141190E-2,3.264179230E-1,3.274885351E-1
7.921450051E0,-3.759425879E-2,2.834081650E-2,3.075580597E-1,3.111406278E-1
7.926425780E0,-3.414750099E-2,-2.076578140E-2,2.438488007E-1,2.471022199E-1
7.931401510E0,7.326543331E-3,-1.490545273E-2,1.759557724E-1,1.767378980E-1
7.936377239E0,7.223343849E-2,1.693296432E-2,1.158056259E-1,1.375330430E-1
7.941352968E0,1.078358293E-1,-1.359558105E-2,9.910392761E-2,1.470883896E-1
7.946316926E0,1.263476014E-1,-1.324081421E-2,8.505630493E-2,1.528843045E-1
7.951292447E0,1.041113734E-1,-1.305866241E-2,-2.379417419E-2,1.075912146E-1
