"Time (s)","Linear Acceleration x (m/s^2)","Linear Acceleration y (m/s^2)","Linear Acceleration z (m/s^2)","Absolute acceleration (m/s^2)"
5.700875074E-3,1.461278943E-1,9.752570987E-3,-1.659295084E-1,2.213166868E-1
1.572687505E-2,2.669993984E-1,1.291357577E-2,-1.818175627E-1,3.232848052E-1
2.575287502E-2,3.197205259E-1,4.006336749E-2,-1.860642493E-1,3.720835833E-1
3.577987500E-2,2.634868480E-1,2.025592446E-2,-1.040466709E-1,2.840093859E-1
4.580587498E-2,1.978918692E-1,1.348017097E-2,-1.411232807E-1,2.434310729E-1
5.583187495E-2,8.334221936E-2,9.994645715E-3,-1.668481059E-1,1.867728806E-1
6.585787493E-2,-2.373521877E-3,1.050978541E-2,7.688503861E-3,1.323640008E-2
7.588487514E-2,-1.050033028E-1,2.276262581E-2,2.689613950E-1,2.896274551E-1
8.591087512E-2,-1.585018634E-1,9.982366562E-2,3.232070379E-1,3.735644446E-1
9.593687509E-2,-1.029428902E-1,1.302116454E-1,2.972730285E-1,3.404754979E-1
1.059628751E-1,-6.058507531E-2,1.116642773E-1,2.732655305E-1,3.013528037E-1
1.159898750E-1,-1.228611288E-1,4.404415190E-2,2.361358573E-1,2.698052768E-1
1.260158750E-1,-1.714581421E-1,-4.778520048E-2,1.324096137E-1,2.218414427E-1
1.360418750E-1,-9.962414766E-2,-8.852742970E-2,-4.337932348E-2,1.401564922E-1
1.460678750E-1,5.934757607E-2,-6.228629529E-2,-2.582894956E-1,2.722410345E-1
1.560938749E-1,1.423318910E-1,-1.916424930E-2,-2.595994180E-1,2.966774233E-1
1.661208749E-1,7.551463399E-2,-8.103071451E-3,-1.565486741E-1,1.739988709E-1
1.761468751E-1,9.760007914E-4,-4.952123880E-2,-5.024921715E-2,7.055699465E-2
1.861728751E-1,-2.401679875E-2,-6.360074937E-2,8.283341110E-2,1.071598616E-1
1.961988751E-1,-5.859048955E-2,-5.966849685E-2,5.498019934E-2,1.000799545E-1
2.062258751E-1,-1.194483283E-1,-3.970610261E-2,-1.820194378E-2,1.271840732E-1
2.162518750E-1,-1.029560099E-1,-3.012251616E-2,-7.753817260E-2,1.323611505E-1
2.262778750E-1,-2.812841462E-2,1.268261075E-3,1.492019400E-2,3.186578705E-2
2.363038750E-1,-1.964270686E-2,-1.870407343E-2,9.966681406E-2,1.032915878E-1
2.463308750E-1,-2.573748814E-2,-3.158081174E-2,1.067151940E-1,1.142273986E-1
2.563568749E-1,3.387924258E-2,-1.342871547E-2,8.488271400E-2,9.237536800E-2
2.663828752E-1,4.118444318E-2,-3.156619370E-2,5.259278119E-2,7.388222775E-2
2.764088751E-1,2.943201480E-2,-7.353224516E-2,-2.921853662E-3,7.925762930E-2
2.864358751E-1,5.386491604E-3,-5.953050256E-2,-9.998621821E-2,1.164909390E-1
2.964618751E-1,6.915766904E-3,-1.873623312E-2,-1.736780924E-1,1.748226359E-1
3.064878751E-1,2.466462457E-2,-8.414143324E-4,-1.600513025E-1,1.619428019E-1
3.165138750E-1,1.482575233E-2,-1.883972883E-2,-1.175714269E-2,2.670147410E-2
3.265408750E-1,1.515214574E-2,-1.810181022E-2,9.705208540E-2,9.988178179E-2
3.365668750E-1,4.238166058E-2,-5.463053584E-3,1.648745245E-1,1.703222209E-1
3.465928750E-1,4.954693001E-3,1.332755864E-2,1.878568594E-1,1.883941943E-1
3.566188749E-1,4.623410775E-2,2.899575770E-2,1.772272061E-1,1.854395569E-1
3.666458752E-1,4.936009319E-2,1.014860290E-1,2.615447867E-1,2.848534857E-1
3.766718751E-1,-4.564228730E-2,1.109286976E-1,2.854641379E-1,3.096420004E-1
3.866978751E-1,-1.382998521E-1,1.385439277E-2,1.442467171E-1,2.003145244E-1
3.967238751E-1,-1.027140448E-1,-3.954471946E-2,-1.543299481E-2,1.111401690E-1
4.067508751E-1,4.342739856E-2,-1.012503862E-2,-6.608932436E-2,7.972611960E-2
4.167768750E-1,1.300739983E-1,1.836025715E-4,-5.617697820E-2,1.416867376E-1
4.268028750E-1,5.881538808E-2,-6.327915251E-2,-9.999498904E-2,1.321457485E-1
4.368288750E-1,-4.193903550E-2,-1.441935074E-1,-1.459745693E-1,2.094259420E-1
4.468548750E-1,-1.990679087E-2,-1.455237490E-1,-2.223747276E-1,2.665032107E-1
4.568818749E-1,2.500194496E-2,-8.864846706E-2,-2.304953407E-1,2.482171429E-1
4.669078751E-1,6.846952485E-3,-7.780012786E-2,-2.224701834E-1,2.357810916E-1
4.769338751E-1,1.574540058E-2,-1.115970343E-1,-2.244114590E-1,2.511221190E-1
4.869598751E-1,6.838618375E-2,-1.144984227E-1,-2.072295620E-1,2.464358949E-1
4.969868751E-1,1.110460713E-1,-1.150527388E-1,-1.653914183E-1,2.300493076E-1
5.070128751E-1,1.418362847E-1,-7.465724945E-2,-1.298884405E-1,2.063061888E-1
5.170388750E-1,7.087686921E-2,-1.684992135E-2,-6.597939670E-2,9.828901886E-2
5.270648750E-1,-4.178437664E-2,-3.148257852E-2,-5.973398566E-2,7.940551571E-2
5.370918750E-1,-1.191298104E-1,-2.966701806E-2,-1.046821171E-1,1.613393608E-1
5.471178750E-1,-1.344071779E-1,-5.316873193E-3,-1.264372677E-1,1.846075331E-1
5.571438749E-1,-7.050234592E-2,4.128134251E-3,-5.007190034E-2,8.657261389E-2
5.671698751E-1,-4.654950108E-3,2.425600469E-2,2.779064655E-2,3.717986498E-2
5.771968751E-1,7.277196094E-2,5.606193423E-2,1.348894179E-1,1.631988169E-1
5.872228751E-1,2.536322066E-2,2.926648378E-2,2.315940325E-1,2.348097441E-1
5.972488751E-1,-1.178484753E-1,-2.318187118E-2,1.846818213E-1,2.203021503E-1
6.072748750E-1,-1.992791576E-1,6.132559776E-2,-3.266079247E-2,2.110444005E-1
6.173018750E-1,-2.152868241E-1,8.808713436E-2,4.545230761E-2,2.370098567E-1
6.273280417E-1,-2.202292014E-1,-4.445053339E-3,2.465256286E-1,3.305987677E-1
6.373540417E-1,-2.136165122E-1,-8.993017673E-4,1.179441869E-1,2.440156844E-1
6.473800417E-1,-1.570550247E-1,3.115688860E-2,4.548125133E-2,1.664499225E-1
6.574070416E-1,-2.838124274E-2,7.814218998E-2,1.287359543E-1,1.532469991E-1
6.674330416E-1,9.727486432E-2,1.266425049E-1,1.551482660E-1,2.226470474E-1
6.774590418E-1,8.096065756E-2,1.304449493E-1,2.900321290E-2,1.562424373E-1
6.874850418E-1,7.066825152E-2,1.724870145E-1,-5.518777549E-2,1.944002637E-1
6.975110418E-1,1.337619742E-1,2.337798679E-1,-7.344848379E-2,2.791773131E-1
7.075380418E-1,1.535290258E-1,2.762464410E-1,-5.944995716E-2,3.215859999E-1
7.175640417E-1,7.604502213E-2,2.419308865E-1,-5.949965850E-2,2.604872523E-1
7.275900417E-1,-3.363260428E-2,1.524415898E-1,7.014422223E-2,1.711426373E-1
7.376160417E-1,-8.702423846E-2,-1.372926235E-3,2.275759721E-1,2.436512386E-1
7.476430417E-1,-8.771115839E-2,-1.044909132E-1,2.878044860E-1,3.185012094E-1
7.576690416E-1,2.185752708E-2,-1.094318104E-1,2.763271326E-1,2.980096589E-1
7.676950416E-1,1.567085406E-1,-2.703810990E-2,1.975749318E-1,2.536227115E-1
7.777210418E-1,1.773042066E-1,-1.627397060E-2,4.650933802E-2,1.840237548E-1
7.877480418E-1,1.780363694E-1,3.740113020E-2,-1.621959150E-1,2.437279389E-1
7.977740418E-1,2.065624495E-1,2.082368910E-1,-2.881386544E-1,4.111624162E-1
8.078000417E-1,1.331996457E-1,2.816434211E-1,-2.685691930E-1,4.113326800E-1
8.178260417E-1,-2.145366264E-3,1.117894077E-1,-1.050083917E-1,1.533891672E-1
8.278530417E-1,-1.145603575E-1,2.588562369E-2,4.552057385E-2,1.259613579E-1
8.378790417E-1,-1.917750969E-1,2.670189500E-2,7.425496101E-2,2.073752112E-1
8.479050416E-1,-5.329081083E-2,6.239914656E-2,1.350484622E-1,1.580242106E-1
8.579310416E-1,1.005020705E-1,1.362354469E-1,2.678849226E-1,3.168960318E-1
8.679580416E-1,1.323013489E-1,1.100071764E-1,3.316131413E-1,3.735940327E-1
8.779840418E-1,5.635362807E-2,1.147165239E-2,3.590647955E-1,3.636411110E-1
8.880100418E-1,-5.225840268E-2,-9.380278766E-2,2.390786147E-1,2.620848863E-1
8.980360418E-1,-1.132626959E-1,-1.763853532E-1,1.428645815E-1,2.536740424E-1
9.080630417E-1,-7.773029018E-2,-1.898988533E-1,9.381111994E-2,2.256193669E-1
9.180890417E-1,-1.082866880E-2,-1.110175753E-1,4.950369716E-2,1.220359706E-1
9.281150417E-1,4.857096576E-2,-5.599761486E-2,-3.958564997E-4,7.412845801E-2
9.381410417E-1,1.077716214E-1,-6.075023174E-2,-1.497048005E-2,1.246171269E-1
9.481670416E-1,4.756233933E-2,-1.333013141E-1,-6.217329785E-2,1.545863365E-1
9.581940416E-1,-5.623527677E-2,-2.170550770E-1,-1.223560573E-1,2.554335874E-1
9.682200416E-1,-1.133726510E-1,-2.486534303E-1,-1.253398915E-1,3.006525816E-1
9.782460418E-1,-2.211186360E-1,-2.777994615E-1,-1.413418204E-1,3.821563845E-1
9.882720418E-1,-3.754478167E-1,-3.287152612E-1,-1.666093934E-1,5.260926496E-1
9.982990418E-1,-3.713712476E-1,-4.011078840E-1,-1.422358596E-1,5.648319909E-1
1.008325042E0,-2.824097718E-1,-3.577034175E-1,-9.805415198E-2,4.661776816E-1
1.018351042E0,-3.397634290E-2,-2.016821623E-1,-2.286363646E-2,2.057980377E-1
1.028377042E0,1.792154787E-1,-4.858802319E-2,-6.078911573E-3,1.857846521E-1
1.038404042E0,2.211554004E-1,7.987881303E-3,-1.140668982E-1,2.489674168E-1
1.048430042E0,1.231838038E-1,-6.482281744E-2,-1.981254472E-1,2.421362013E-1
1.058456042E0,-4.421624277E-2,-1.613235104E-1,-2.649719860E-1,3.133536412E-1
1.068482042E0,-1.265961201E-1,-1.597073400E-1,-2.410871333E-1,3.156834140E-1
1.078508042E0,-9.711843302E-2,-1.172255641E-1,-1.450040777E-1,2.102379734E-1
1.088535042E0,-9.302703573E-2,-1.147428364E-1,-6.273536146E-2,1.604857422E-1
1.098561042E0,4.244211074E-2,-8.202883422E-2,6.928965166E-2,1.154604618E-1
1.108587042E0,2.444723788E-1,8.231125474E-2,1.258433367E-1,2.870164317E-1
1.118613042E0,3.531443435E-1,2.898610979E-1,2.648715600E-2,4.576373596E-1
1.128640042E0,3.414115398E-1,3.229522455E-1,-1.831830338E-2,4.703143126E-1
1.138666042E0,1.599022533E-1,2.216685301E-1,5.494847819E-2,2.787920427E-1
1.148692042E0,-4.536339339E-2,9.733801425E-2,1.095696585E-1,1.534211085E-1
1.158718042E0,-2.198350077E-1,-8.012439609E-3,1.085803096E-1,2.453187996E-1
1.168745042E0,-2.613527787E-1,4.349334419E-2,7.694044098E-2,2.758926918E-1
1.178771042E0,-1.643829746E-1,9.957515895E-2,1.286472228E-1,2.312727450E-1
1.188797042E0,-2.985277222E-2,1.150889915E-1,2.163383545E-1,2.468581528E-1
1.198823042E0,1.846117644E-1,1.878382945E-1,2.152706529E-1,3.401561148E-1
1.208850042E0,5.565412383E-1,4.551431733E-1,2.978109723E-1,7.781933137E-1
1.218876042E0,4.085984597E-1,4.889283854E-1,2.489101231E-2,6.376701575E-1
1.228902042E0,2.357476752E-1,2.872298509E-1,-1.487351860E-1,4.002500583E-1
1.238928042E0,9.845323359E-2,1.962752420E-1,-9.634179488E-2,2.397889723E-1
1.248955042E0,1.820445169E-2,1.260741556E-1,5.811986178E-2,1.400143318E-1
1.258981042E0,4.949457915E-2,1.196948433E-1,2.086647610E-1,2.455963179E-1
1.269007042E0,7.742339359E-2,1.040003318E-1,2.138525569E-1,2.500867189E-1
1.279033042E0,6.681585917E-3,7.107115209E-2,9.348411441E-2,1.176224124E-1
1.289059042E0,-1.529638376E-1,-4.054459333E-2,-8.042260408E-3,1.584502370E-1
1.299086042E0,-3.239967044E-1,-1.713608408E-1,6.154472217E-2,3.716532726E-1
1.309112042E0,-3.693793570E-1,-2.616868740E-1,8.537007943E-2,4.606616762E-1
1.319138042E0,-2.083986579E-1,-1.828973973E-1,4.854753122E-2,2.814930218E-1
1.329164042E0,-5.380151030E-3,-9.272046804E-2,3.397334620E-2,9.889499215E-2
1.339191042E0,9.709212055E-2,-4.866111338E-2,-4.889967978E-2,1.191048383E-1
1.349217042E0,7.916222761E-2,-6.103382170E-2,-2.264971608E-1,2.475737254E-1
1.359243042E0,9.599965967E-2,-6.060580552E-2,-2.268012160E-1,2.536292371E-1
1.369269042E0,5.622445028E-2,-9.824725628E-2,-2.010951018E-1,2.307660117E-1
1.379296042E0,-2.031605942E-2,-1.061649710E-1,-8.192007601E-2,1.356268491E-1
1.389322042E0,-8.413277205E-2,-8.863560319E-2,-3.786803037E-3,1.222658307E-1
1.399348042E0,-7.272473554E-2,-7.974725068E-2,6.356975913E-2,1.252582350E-1
1.409374042E0,-4.064470863E-2,-2.300586998E-2,1.080278939E-1,1.176914961E-1
1.419400042E0,1.448916284E-2,1.744926095E-2,1.393176605E-1,1.411517732E-1
1.429427042E0,4.923169199E-2,2.344324172E-2,1.171005799E-1,1.291738785E-1
1.439453042E0,3.611585738E-2,1.065596581E-2,1.209196888E-1,1.266470525E-1
1.449479042E0,-5.371133527E-2,-6.766573370E-2,4.446807504E-2,9.716464764E-2
1.459505042E0,-1.313394088E-1,-9.513127506E-2,-8.039000586E-2,1.810042896E-1
1.469532042E0,-1.287692834E-1,-1.119917214E-1,-7.765292421E-2,1.874930683E-1
1.479558042E0,-8.230432944E-2,-6.971225917E-2,-8.601268843E-2,1.379564580E-1
1.489584042E0,-1.354123782E-2,-3.868576348E-2,-1.208601934E-1,1.276210788E-1
1.499610042E0,1.207409833E-2,1.399355650E-2,-1.137938333E-1,1.152850379E-1
1.509637042E0,1.157343049E-2,3.894070208E-2,-4.977734685E-2,6.425034499E-2
1.519663042E0,-7.337561287E-3,3.225791931E-2,4.416285038E-2,5.517943927E-2
1.529689042E0,-1.730143603E-2,4.589187205E-2,1.014755040E-1,1.127061734E-1
1.539715042E0,-8.905459274E-2,1.404208839E-2,1.195806764E-1,1.497579344E-1
1.549741042E0,-1.339827888E-1,-6.066544712E-2,7.513730586E-2,1.651584055E-1
1.559768042E0,-8.228651371E-2,-8.206099391E-2,-8.906478882E-3,1.165521447E-1
1.569794042E0,7.901892515E-2,1.737383187E-2,-2.888056755E-2,8.590650585E-2
1.579820042E0,1.029113153E-1,7.885730445E-2,8.159979478E-2,1.531918398E-1
1.589846042E0,2.771955720E-2,6.392643929E-2,1.152742021E-1,1.346963443E-1
1.599873042E0,-5.697777266E-2,3.861735106E-2,1.498452799E-1,1.648980724E-1
1.609899042E0,-2.605124608E-2,2.541433811E-2,1.385854429E-1,1.432846153E-1
1.619925042E0,-2.109537450E-2,1.129857481E-2,8.102896035E-2,8.448884561E-2
1.629950625E0,2.347188394E-2,1.961448491E-2,4.501990601E-2,5.442838681E-2
1.639977625E0,4.573460022E-2,2.466530979E-2,5.566958606E-2,7.615204512E-2
1.650003625E0,7.476721365E-2,2.380284548E-2,2.227789164E-2,8.156602323E-2
1.660029625E0,5.367610579E-2,4.069486678E-2,-4.214439154E-2,7.945656834E-2
1.670055625E0,4.509508842E-2,5.348506629E-2,-4.878098130E-2,8.528659597E-2
1.680081625E0,2.103737743E-2,5.469251633E-2,-2.370110393E-2,6.321063928E-2
1.690108625E0,-2.084093839E-2,1.709901273E-2,-5.932000279E-3,2.760270959E-2
1.700134625E0,-6.645967238E-2,-3.998384535E-2,2.412327290E-2,8.122516997E-2
1.710160625E0,-1.637540152E-3,-3.189714611E-2,-3.744410723E-3,3.215789295E-2
1.720186625E0,2.456111058E-2,4.091296792E-3,2.407532573E-2,3.463536013E-2
1.730213625E0,3.904924102E-2,1.863683045E-2,-1.306779608E-2,4.519891556E-2
1.740239625E0,2.659968750E-2,1.198971570E-2,-5.175253630E-2,5.941061917E-2
1.750265625E0,1.253085723E-2,-5.313423336E-2,-3.236726224E-2,6.346580814E-2
1.760291625E0,2.071568007E-2,-2.356135547E-2,6.535301372E-2,7.249340160E-2
1.770318625E0,5.942170780E-2,3.977685392E-2,2.498560564E-1,2.598868723E-1
1.780344625E0,9.781307311E-2,5.485974669E-2,3.417785257E-1,3.597075892E-1
1.790370625E0,4.452096493E-2,1.957530856E-2,1.587026422E-1,1.659874623E-1
1.800396625E0,-2.254431454E-2,-4.225373447E-2,-1.288626927E-1,1.374744259E-1
1.810422625E0,-5.281606260E-2,-3.555341005E-2,-2.882630539E-1,2.952103821E-1
1.820449625E0,-3.526887906E-2,-2.850459158E-2,-2.152588123E-1,2.199835490E-1
1.830475625E0,-3.025454446E-2,-2.829292238E-2,-5.597612634E-2,6.963586459E-2
1.840501625E0,-4.608635592E-2,-2.425425053E-2,1.416843210E-1,1.509525346E-1
1.850527625E0,-6.300936746E-2,-3.101129293E-2,2.431264959E-1,2.530659473E-1
1.860554625E0,-5.639690660E-2,-3.970200956E-2,1.494052769E-1,1.645563654E-1
1.870580625E0,-2.897943118E-2,-5.110349536E-2,2.230128050E-2,6.283885566E-2
1.880606625E0,3.518144491E-2,-4.407631159E-2,-5.912821412E-2,8.171047065E-2
1.890632625E0,7.857112893E-2,-5.391776025E-2,-1.431310683E-1,1.719507194E-1
1.900658625E0,3.980048032E-2,-6.095429957E-2,-1.727926777E-1,1.875015049E-1
1.910685625E0,-4.049724916E-2,-4.995510221E-2,-1.711349921E-1,1.828188309E-1
1.920711625E0,-1.320267399E-1,-3.583349168E-2,-4.348808169E-2,1.435489896E-1
1.930737625E0,-1.634312489E-1,-5.181919456E-2,5.244133830E-2,1.792905352E-1
1.940763625E0,-1.487624852E-1,-5.454575121E-2,5.145184323E-2,1.665917409E-1
1.950790625E0,-1.438391753E-1,-5.931064725E-2,3.454827368E-3,1.556258239E-1
1.960816625E0,-9.441157417E-2,-5.346693993E-2,-1.450986564E-2,1.094659545E-1
1.970842625E0,-2.679449114E-2,-8.422855675E-2,-1.516928539E-2,8.967999636E-2
1.980868625E0,-3.041317759E-2,-1.164660108E-1,-4.699480310E-2,1.292199852E-1
1.990894625E0,-7.974279217E-2,-1.384462792E-1,-8.970622838E-2,1.832307085E-1
2.000921625E0,-1.020145168E-1,-9.881677508E-2,-6.552272916E-2,1.564127383E-1
2.010947625E0,-1.032822023E-2,-4.712388039E-2,-3.268067300E-2,5.826970588E-2
2.020973625E0,6.656209001E-2,4.861316621E-2,4.979737356E-2,9.629917014E-2
2.030999625E0,7.395640584E-3,5.039247394E-2,2.121178342E-1,2.181469058E-1
2.041026625E0,-7.553471552E-2,1.529982448E-2,2.310106266E-1,2.435271801E-1
2.051052625E0,-1.270034426E-1,3.627729535E-2,1.622665201E-1,2.092279621E-1
2.061078625E0,-9.869275016E-2,8.454489112E-3,8.001739204E-2,1.273362492E-1
2.071104625E0,-2.396924444E-2,5.404347539E-2,1.227459204E-1,1.362416342E-1
2.081130625E0,6.571437165E-2,1.404559672E-1,1.616696656E-1,2.240163791E-1
2.091157625E0,5.079761289E-2,1.223179042E-1,1.618298793E-1,2.091195280E-1
2.101183625E0,2.334582162E-2,6.251492143E-2,1.410680245E-1,1.560555360E-1
2.111209625E0,3.039941836E-2,7.292764306E-2,1.109186111E-1,1.361818786E-1
2.121235625E0,5.585706241E-2,8.009340584E-2,1.071034491E-1,1.449348609E-1
2.131262625E0,4.497431600E-3,3.184101284E-2,7.400981650E-2,8.069405138E-2
2.141288625E0,-8.223825591E-3,2.267082453E-2,2.545059085E-2,3.506180495E-2
2.151314625E0,4.937736075E-3,4.308345437E-2,7.619916022E-2,8.767483844E-2
2.161340625E0,-8.889512820E-3,6.254532695E-2,7.623906747E-2,9.901180116E-2
2.171367625E0,-3.094408650E-2,3.606913447E-2,-4.704552770E-2,6.687152329E-2
2.181393625E0,-2.253140498E-2,1.867366791E-2,-1.536233121E-1,1.563857158E-1
2.191419625E0,2.213327355E-2,9.921555519E-3,-1.308209252E-1,1.330504925E-1
2.201445625E0,-6.955714351E-2,-3.713683605E-2,-1.634647608E-2,8.052669175E-2
2.211471625E0,-9.415102590E-2,-5.284245729E-2,1.464768451E-1,1.819675991E-1
2.221498625E0,-5.103066098E-2,-2.057810605E-2,1.492672826E-1,1.590858525E-1
2.231524625E0,-6.710237274E-3,3.238772750E-3,8.832628548E-2,8.864000023E-2
2.241550625E0,5.428308332E-3,5.803946257E-3,-1.859473050E-2,2.022167960E-2
2.251576625E0,3.087345396E-2,5.880544782E-3,-4.351088583E-2,5.367446462E-2
2.261603625E0,3.858114400E-2,2.467115700E-2,-1.150556624E-2,4.721809732E-2
2.271629625E0,1.506408119E-2,-1.029168427E-2,1.419703960E-2,2.311712008E-2
2.281655625E0,-2.074772098E-2,-4.328810692E-2,1.498188213E-2,5.028702535E-2
2.291681625E0,-1.060403888E-1,-6.236289382E-2,6.365732118E-2,1.385133536E-1
2.301707625E0,-1.238898916E-1,-7.288320422E-2,4.507209241E-2,1.506391723E-1
2.311734625E0,-7.923060349E-2,-4.705605268E-2,9.215796590E-3,9.261042884E-2
2.321760625E0,-8.372107325E-3,-3.554639339E-2,3.711213157E-2,5.206677034E-2
2.331786625E0,6.893742087E-2,-1.578455865E-2,9.128497660E-2,1.154749637E-1
2.341812625E0,1.330203828E-1,1.972850561E-3,5.172739327E-2,1.427376530E-1
2.351839625E0,1.349731518E-1,2.784151733E-2,-1.052884734E-1,1.734317284E-1
2.361865625E0,4.301792901E-2,1.018468022E-2,-1.266914754E-1,1.341827107E-1
2.371891625E0,8.919004714E-3,1.168273687E-3,-1.066608149E-1,1.070394457E-1
2.381917625E0,-7.126486852E-2,-2.053191304E-2,-6.237049520E-2,9.690366149E-2
2.391943625E0,-1.737864303E-1,-6.762538791E-2,-2.586179629E-2,1.882651029E-1
2.401970625E0,-9.942321357E-2,-3.068443358E-2,5.673553348E-2,1.185134196E-1
2.411996625E0,-2.184172589E-2,2.127450943E-2,1.120244658E-1,1.160997273E-1
2.422022625E0,2.201367971E-2,1.851403892E-2,3.497395098E-2,4.528298774E-2
2.432048625E0,4.594620547E-2,-1.665696323E-2,5.654652223E-2,7.473966415E-2
2.442075625E0,5.184835754E-2,-3.893076181E-3,3.585512638E-2,6.315851732E-2
2.452101625E0,7.286854050E-2,3.963242769E-3,-5.941195026E-2,9.410266373E-2
2.462127625E0,9.730654892E-2,5.218055248E-3,-1.188576682E-1,1.536975532E-1
2.472153625E0,4.777170620E-2,3.168606162E-3,-1.344071688E-1,1.426795816E-1
2.482179625E0,-3.547551418E-3,-3.770460069E-2,-1.095021231E-1,1.158660304E-1
2.492206625E0,-5.605507289E-2,-3.440384746E-2,-2.365271822E-2,6.989454196E-2
2.502232625E0,-6.658332272E-2,-1.642892182E-2,7.621904075E-2,1.025309246E-1
2.512258625E0,5.902225161E-3,1.783342302E-2,1.661924869E-1,1.672507397E-1
2.522284625E0,-1.162064675E-2,5.009309649E-3,1.664896716E-1,1.669698876E-1
2.532311625E0,8.607905433E-3,-6.251842976E-3,8.923801258E-2,8.986993082E-2
2.542337625E0,9.009746192E-3,3.878750503E-2,3.652404785E-2,5.403380557E-2
2.552363625E0,-2.754893728E-2,4.813544869E-2,-1.533666193E-2,5.754284113E-2
2.562389625E0,-3.485568191E-2,3.482660115E-2,-5.039013505E-2,7.047677929E-2
2.572415625E0,-7.789305291E-2,2.527751327E-3,-5.639464080E-2,9.619809109E-2
2.582442625E0,-1.029377191E-1,-4.028205335E-2,-4.995919526E-2,1.213043240E-1
2.592468625E0,-5.461502245E-2,-1.315740466E-2,-3.818699598E-2,6.792764265E-2
2.602494625E0,1.637082425E-2,2.917058945E-2,5.187649727E-3,3.385024202E-2
2.612520625E0,1.734785561E-1,-5.532401562E-2,1.266151692E-1,2.217813275E-1
2.622546375E0,1.928592986E-1,1.861227214E-2,1.362528424E-1,2.368669728E-1
2.632573375E0,1.400626232E-1,-2.379056633E-2,5.139570996E-2,1.510796097E-1
2.642599375E0,8.013398917E-2,-3.611942053E-2,3.501999781E-2,9.461748785E-2
2.652625375E0,1.194970795E-2,4.572990417E-2,5.350787044E-2,7.139406036E-2
2.662651375E0,-3.011390978E-2,4.154388249E-2,1.176693678E-1,1.283698635E-1
2.672678375E0,-5.978339463E-2,3.277598262E-2,9.219714224E-2,1.146674860E-1
2.682704375E0,-2.780310843E-2,-8.686623573E-3,6.895182878E-3,2.993348985E-2
2.692730375E0,8.212414384E-3,-1.564364076E-2,-7.026745230E-3,1.901426819E-2
2.702756375E0,6.995888377E-2,-2.132538021E-2,2.897046849E-2,7.866578229E-2
2.712782375E0,6.697421822E-2,3.627612591E-3,7.195934415E-2,9.837099516E-2
2.722809375E0,-1.379031094E-2,1.032676756E-2,1.231615113E-1,1.243606556E-1
2.732835375E0,-6.228496140E-2,3.446524322E-2,1.110310239E-1,1.318907035E-1
2.742861375E0,-1.021006810E-1,5.568420410E-2,6.949927434E-2,1.354822084E-1
2.752887375E0,-9.347971986E-2,8.169905126E-2,5.572148010E-2,1.360811388E-1
2.762914375E0,-6.780936507E-2,8.187154412E-2,7.571954235E-2,1.305163163E-1
2.772940375E0,-7.221105765E-2,5.171803772E-2,1.046182363E-1,1.372376320E-1
2.782966375E0,-5.318626444E-2,2.336430430E-2,8.293573737E-2,1.012571280E-1
2.792992375E0,-8.956801482E-3,-2.283571601E-2,2.273046613E-2,3.344201413E-2
2.803018375E0,1.363666621E-2,-1.992906511E-2,-4.286082163E-2,4.919528771E-2
2.813045375E0,2.568364807E-2,-1.554950058E-2,1.058155999E-2,3.183404088E-2
2.823071375E0,1.016488192E-2,-1.178155482E-2,1.096415792E-1,1.107402626E-1
2.833097375E0,1.212402807E-2,1.643418431E-2,8.625037774E-2,8.863521948E-2
2.843123375E0,-3.446919009E-2,1.218033493E-2,-2.223696113E-3,3.662554367E-2
2.853149375E0,-7.543876637E-2,-1.412804246E-2,-1.012411769E-1,1.270448147E-1
2.863176375E0,-1.260888924E-1,-4.343370259E-2,-1.613947003E-1,2.093636658E-1
2.873202375E0,-1.213018500E-1,-8.394379735E-2,-1.265378398E-1,1.943515496E-1
2.883228375E0,-1.628741189E-1,-9.346891165E-2,-1.699259341E-2,1.885554674E-1
2.893254375E0,-1.257869111E-1,-1.001967180E-1,2.851248533E-3,1.608410983E-1
2.903281375E0,-1.334745744E-2,-4.632924378E-2,1.455196559E-2,5.036182237E-2
2.913307375E0,3.308682608E-2,-1.447770596E-3,1.283148086E-1,1.325199012E-1
2.923333375E0,5.918940889E-2,-1.620731235E-2,1.064684415E-1,1.228885354E-1
2.933359375E0,6.448100201E-2,-2.485066652E-3,7.318243548E-2,9.756866320E-2
2.943385375E0,7.989482892E-2,-1.366669714E-2,2.660132289E-2,8.530880774E-2
2.953412375E0,6.471740311E-2,1.280715644E-2,-1.661617890E-2,6.803280769E-2
2.963438375E0,1.268060625E-1,3.744966209E-2,-6.576495007E-2,1.476728930E-1
2.973464375E0,7.712825538E-2,8.253929615E-3,-8.381121174E-2,1.141981363E-1
2.983490375E0,1.306271631E-2,-3.264734387E-2,-6.397628680E-2,7.300307454E-2
2.993516375E0,1.869685577E-2,-3.235790670E-2,1.856827185E-2,4.172993244E-2
3.003543375E0,6.235095271E-2,-3.715905547E-3,-1.883753613E-2,6.524034047E-2
3.013569375E0,6.129825289E-2,1.637980521E-2,-1.287629977E-2,6.474235802E-2
3.023595375E0,4.542623268E-2,7.533552647E-3,4.819260523E-2,6.665451395E-2
3.033621375E0,3.127264520E-3,1.659088969E-2,6.994263947E-2,7.195144349E-2
3.043648375E0,-2.377439512E-2,3.312038362E-2,9.992833078E-2,1.079252193E-1
3.053674375E0,-5.007774755E-3,3.978387058E-2,1.016760635E-1,1.092971000E-1
3.063700375E0,1.080591948E-2,5.409843922E-2,8.058164835E-2,9.765659769E-2
3.073726375E0,8.139881501E-3,2.320993781E-2,1.301397246E-1,1.324435986E-1
3.083752375E0,2.472293227E-2,-4.764311314E-3,8.246269763E-2,8.622075471E-2
3.093779375E0,8.434222114E-2,7.525366545E-4,-5.512170196E-3,8.452550265E-2
3.103805375E0,7.122804933E-2,2.349177361E-2,-6.972219944E-2,1.024035328E-1
3.113831375E0,6.251632841E-2,1.028174400E-2,-1.302057981E-1,1.448017799E-1
3.123857375E0,4.468191868E-2,2.911737978E-2,-4.301811174E-2,6.851900174E-2
3.133884375E0,1.019755323E-2,6.878430605E-2,2.335772619E-2,7.335430610E-2
3.143910375E0,3.603163920E-4,4.181051552E-2,4.948264718E-2,6.478257025E-2
3.153936375E0,3.346361518E-2,3.923189342E-2,3.672621533E-2,6.330694981E-2
3.163962375E0,1.055196942E-1,7.525951266E-2,5.058952510E-2,1.391319523E-1
3.173988375E0,1.375044846E-1,7.682773590E-2,2.621949971E-2,1.596791986E-1
3.184015375E0,1.166929741E-1,5.427327096E-2,-8.168560266E-4,1.286992829E-1
3.194041375E0,2.537269497E-2,1.291474521E-2,2.212820292E-2,3.605858647E-2
3.204067375E0,-5.088120980E-2,-8.251590729E-3,2.418408394E-2,5.693730040E-2
3.214093375E0,-7.769269441E-2,-4.365355790E-2,-1.112904941E-1,1.425740578E-1
3.224119375E0,-5.058429915E-2,-4.326764166E-2,-1.145796990E-1,1.325117639E-1
3.234146375E0,1.136754454E-2,-2.786315203E-2,-2.042944059E-2,3.637221952E-2
3.244172375E0,4.104978363E-2,-2.051261723E-2,-2.032799140E-2,5.019043172E-2
3.254198375E0,3.243342714E-2,-1.989632070E-2,2.152944803E-2,4.371850759E-2
3.264224375E0,1.623382581E-2,-3.725728869E-2,-5.991203338E-3,4.107964434E-2
3.274251375E0,3.800952385E-2,-2.600724578E-2,-3.752406791E-2,5.940670340E-2
3.284277375E0,3.259018734E-2,-2.760528982E-2,-2.984608904E-2,5.210529117E-2
3.294303375E0,5.074524377E-2,-3.943011403E-2,-1.407731786E-2,6.578741928E-2
3.304329375E0,4.593469377E-2,-2.797541857E-2,7.831175923E-3,5.435022955E-2
3.314355375E0,1.826621748E-2,-4.243441343E-2,-6.556044370E-3,4.666171731E-2
3.324382375E0,6.592918374E-4,-6.224711895E-2,-7.269083083E-2,9.570316280E-2
3.334408375E0,-2.388340915E-2,-6.676760137E-2,-1.200374901E-1,1.394178212E-1
3.344434375E0,-2.640589798E-2,-8.862741709E-2,-1.934897746E-1,2.144536859E-1
3.354460375E0,1.680526324E-2,-7.488412142E-2,-2.196613272E-1,2.326825029E-1
3.364486375E0,2.335556089E-2,-6.374926865E-2,-1.340415716E-1,1.502550977E-1
3.374513375E0,1.965323185E-2,-5.500007987E-2,-1.719905859E-1,1.816370556E-1
3.384539375E0,4.524717084E-2,-7.840823829E-2,-1.570977277E-1,1.813142420E-1
3.394565375E0,4.109827898E-2,-3.608199835E-2,-1.835148633E-2,5.768670722E-2
3.404591375E0,2.624364688E-2,2.491498590E-2,5.645252824E-2,6.705500331E-2
3.414618375E0,1.241179330E-2,3.141065776E-2,9.450664625E-2,1.003602920E-1
3.424644375E0,-4.277388998E-2,4.959725261E-2,8.828827858E-2,1.099286735E-1
3.434670375E0,-7.460276985E-2,5.386747420E-2,1.227663857E-1,1.534238036E-1
3.444696375E0,-8.605155414E-2,4.683385849E-2,1.276287840E-1,1.608955773E-1
3.454722375E0,-6.140587821E-2,4.474289417E-2,1.340456647E-1,1.540806564E-1
3.464749375E0,-2.228690000E-2,2.659664512E-2,1.082666065E-1,1.136914488E-1
3.474775375E0,-2.996098682E-2,-8.101317286E-3,-2.015725270E-2,3.700820057E-2
3.484801375E0,-6.208500490E-3,-1.746797204E-2,-4.057324469E-2,4.460788843E-2
3.494827375E0,1.934657279E-2,2.742578030E-2,-2.012728572E-2,3.913529014E-2
3.504853375E0,-1.231122119E-2,3.651410758E-2,2.535294235E-2,4.612610872E-2
3.514880375E0,-4.797912704E-2,3.195444882E-2,3.015701473E-4,5.764698063E-2
3.524906375E0,-9.599881000E-2,4.006278276E-2,-3.600233003E-2,1.100770905E-1
3.534932375E0,-9.012546460E-2,3.080254734E-2,-1.696160316E-2,9.674240163E-2
3.544958375E0,-7.953062961E-2,3.874657452E-2,-2.094779626E-2,9.091330074E-2
3.554984375E0,-4.663081393E-2,1.816729903E-2,9.446030706E-3,5.092848965E-2
3.565011375E0,3.240338707E-2,1.611960411E-2,1.158516146E-1,1.213730520E-1
3.575037375E0,5.859642813E-2,2.125579834E-2,8.924795285E-2,1.088602197E-1
3.585063375E0,7.177937781E-2,3.662812829E-2,3.329404593E-2,8.719169889E-2
3.595089375E0,6.451855210E-2,3.361038029E-2,6.362589240E-2,9.664654889E-2
3.605115375E0,4.544965809E-2,4.155265331E-2,9.171080008E-2,1.104679377E-1
3.615142375E0,1.135302700E-2,4.688940704E-2,1.556593126E-1,1.629641964E-1
3.625169500E0,-6.373064892E-2,1.135353863E-2,1.217239733E-1,1.378666897E-1
3.635195500E0,-1.569323976E-1,-2.122948587E-2,5.396570742E-2,1.673044114E-1
3.645221500E0,-1.359699377E-1,-3.756894529E-2,1.139973164E-2,1.415245685E-1
3.655248500E0,-3.139706299E-2,-2.094531119E-2,-5.881860405E-3,3.819787830E-2
3.665274500E0,6.411048040E-2,-9.399399161E-3,3.160990164E-2,7.209499485E-2
3.675300500E0,9.532750396E-2,-2.201827526E-2,3.543237269E-2,1.040557086E-1
3.685326500E0,9.895281421E-2,-3.330983341E-2,-1.437830329E-3,1.044187330E-1
3.695352500E0,3.306204851E-2,-4.218064427E-2,-6.945015773E-2,8.772474116E-2
3.705379500E0,2.688896935E-4,-7.221486747E-2,-1.148428237E-1,1.356610981E-1
3.715405500E0,-4.372052679E-2,-8.545998037E-2,-1.246499200E-1,1.573292575E-1
3.725431500E0,9.576798202E-3,-5.128008127E-2,-2.160677746E-2,5.646427748E-2
3.735457500E0,3.020792205E-2,-7.644065022E-3,9.519033194E-2,1.001606189E-1
3.745483500E0,5.451764803E-2,1.368306935E-2,1.364441925E-1,1.475683503E-1
3.755510500E0,7.666382200E-2,1.750948727E-2,1.416137159E-1,1.619826172E-1
3.765536500E0,3.166606232E-2,6.355923414E-3,3.941958904E-2,5.096117410E-2
3.775562500E0,3.605637110E-2,-1.923617005E-2,-4.374667481E-2,5.986537974E-2
3.785588500E0,-7.496057376E-3,-3.974644840E-2,-4.152122453E-2,5.796536140E-2
3.795615500E0,-7.000229021E-2,-3.321569324E-2,-6.403051972E-2,1.005162194E-1
3.805641500E0,-1.470388722E-1,-4.074632227E-2,-3.057406738E-2,1.556131945E-1
3.815667500E0,-1.006785925E-1,5.774710178E-3,2.845591351E-2,1.047819893E-1
3.825693500E0,-5.138385108E-2,5.543511271E-2,-5.530296564E-3,7.578875941E-2
3.835719500E0,-1.072245047E-2,6.446613729E-2,1.606054723E-2,6.729632218E-2
3.845746500E0,4.192133853E-2,5.055678070E-2,6.658765331E-2,9.352701359E-2
3.855772500E0,5.043566111E-2,4.029842556E-2,6.774584055E-2,9.358000815E-2
3.865798500E0,1.008528121E-1,-1.241714716E-2,2.542603254E-2,1.047471164E-1
3.875824500E0,9.702884272E-2,-1.784921050E-2,-1.430228949E-2,9.968824464E-2
3.885850500E0,2.023452731E-2,-1.016246080E-2,-8.453085780E-2,8.751101431E-2
3.895877500E0,-7.025140900E-2,-9.882379174E-3,-9.023657084E-2,1.147848448E-1
3.905903500E0,-1.155215028E-1,2.139788568E-2,-1.936539352E-2,1.190718505E-1
3.915929500E0,-9.548315867E-2,5.487845778E-2,4.736303151E-2,1.198830074E-1
3.925955500E0,-1.864027482E-2,8.666801512E-2,1.020654881E-1,1.351893803E-1
3.935981500E0,5.817869939E-3,4.988435090E-2,1.657190086E-1,1.731620221E-1
3.946008500E0,4.104382678E-2,8.238142133E-3,1.590506977E-1,1.644675869E-1
3.956034500E0,1.055027373E-1,8.550968170E-3,4.005518138E-2,1.131740438E-1
3.966060500E0,1.235596427E-1,1.046593130E-2,-4.056622803E-2,1.304689230E-1
3.976086500E0,7.395981367E-2,-4.681865573E-3,-4.734125063E-2,8.793843252E-2
3.986112500E0,8.043566896E-3,-2.598502636E-2,-5.193950102E-2,5.863132549E-2
3.996139500E0,-2.377205623E-2,-1.702943087E-2,5.561140627E-3,2.976639814E-2
4.006165500E0,2.473253449E-2,4.054459333E-3,7.833734080E-2,8.224886544E-2
4.016191500E0,6.890571800E-2,7.458123565E-3,1.078676802E-1,1.282148900E-1
4.026217500E0,9.688481849E-2,-4.187951267E-2,4.986914814E-2,1.167368561E-1
4.036243500E0,9.742427895E-2,-9.736257255E-2,-6.334405661E-2,1.516028699E-1
4.046270500E0,8.397813147E-2,-1.163350332E-1,-1.723297244E-1,2.242402739E-1
4.056296500E0,5.439370533E-2,-1.308776432E-1,-3.058495782E-1,3.370928614E-1
4.066322500E0,-2.009962108E-2,-1.564001548E-1,-3.307335739E-1,3.664010099E-1
4.076348500E0,-6.295916364E-2,-1.643792653E-1,-3.108255588E-1,3.572071208E-1
4.086375500E0,-6.414883448E-2,-1.681548125E-1,-2.706857389E-1,3.250567384E-1
4.096401500E0,-3.821562907E-2,-1.358202946E-1,-1.858747995E-1,2.333602962E-1
4.106427500E0,-4.061130641E-2,-1.125887221E-1,-1.046968813E-1,1.590186640E-1
4.116453500E0,-2.302326545E-2,-6.076017201E-2,-4.621054530E-2,7.973257648E-2
4.126479500E0,2.822774420E-2,1.677039921E-2,6.881164178E-2,7.624364811E-2
4.136506500E0,2.890132517E-2,6.318618178E-2,1.530290888E-1,1.680645179E-1
4.146532500E0,7.581097819E-3,8.448817313E-2,1.125051069E-1,1.409011126E-1
4.156558500E0,-3.579656286E-2,9.518740833E-2,5.940624923E-3,1.018691692E-1
4.166584500E0,-9.029175393E-2,7.057472348E-2,-6.530287385E-2,1.319009392E-1
4.176610500E0,-5.027445154E-2,1.023946863E-1,-1.645675457E-1,2.002365335E-1
4.186637500E0,4.181130124E-2,1.467744684E-1,-1.777329902E-1,2.342646907E-1
4.196663500E0,9.743926244E-2,1.676613075E-1,-9.532291755E-2,2.160814256E-1
4.206689500E0,6.102967383E-2,1.291176313E-1,-4.951188326E-2,1.511535987E-1
4.216715500E0,5.147272876E-2,1.014503610E-1,-4.291154623E-2,1.215854364E-1
4.226741500E0,4.191539995E-3,7.604362428E-2,8.978969738E-2,1.177386579E-1
4.236768500E0,-6.752583906E-3,4.759575069E-2,2.252515577E-1,2.303241566E-1
4.246794500E0,-2.594464403E-3,-3.119606495E-2,2.564865066E-1,2.583897324E-1
4.256820500E0,8.214077186E-3,-6.959706903E-2,2.116411400E-1,2.229421342E-1
4.266846500E0,2.740571704E-2,-1.343409491E-1,1.587875730E-1,2.097905080E-1
4.276872500E0,2.405769272E-2,-1.772834855E-1,1.052832109E-1,2.075879604E-1
4.286899500E0,3.353456749E-2,-2.239828581E-1,1.404077277E-2,2.269141495E-1
4.296925500E0,-1.858352942E-2,-2.601186508E-1,-5.544973075E-2,2.666115765E-1
4.306951500E0,-8.184691273E-2,-2.933507162E-1,-9.009638384E-2,3.176018234E-1
4.316977500E0,-5.343364734E-2,-3.019952399E-1,-1.105626619E-1,3.260067204E-1
4.327003500E0,-2.746689353E-2,-3.185446143E-1,-1.178232957E-1,3.407454043E-1
4.337030500E0,-4.064733988E-2,-3.493500853E-1,-9.860686004E-2,3.652683961E-1
4.347056500E0,-1.269284338E-2,-3.294911867E-1,-2.690377012E-2,3.308313215E-1
4.357082500E0,2.804269809E-3,-2.591591227E-1,5.386981308E-2,2.647135651E-1
4.367108500E0,6.179712089E-2,-2.337576485E-1,1.278328519E-1,2.735009331E-1
4.377135500E0,6.861676505E-2,-1.950303698E-1,9.065917835E-2,2.257525021E-1
4.387161500E0,7.002989089E-2,-1.507371265E-1,-8.944763526E-2,1.887504871E-1
4.397187500E0,8.061685955E-2,-1.289229190E-1,-8.286074683E-2,1.731649516E-1
4.407213500E0,3.611035734E-2,-8.977054775E-2,-5.613560915E-2,1.118656148E-1
4.417239500E0,1.258989584E-2,-9.293155253E-2,9.065011516E-2,1.304309101E-1
4.427266500E0,-2.686316852E-2,-4.086677492E-2,1.700105725E-1,1.769048272E-1
4.437292500E0,-2.812415712E-2,-2.907001734E-2,1.924182723E-1,1.966235633E-1
4.447318500E0,-1.132934578E-2,5.484688282E-4,2.813732797E-1,2.816018065E-1
4.457344500E0,4.527389444E-4,3.124752045E-2,3.203454106E-1,3.218661128E-1
4.467370500E0,8.229755033E-3,8.518808484E-3,2.446352237E-1,2.449218072E-1
4.477397500E0,-3.385637448E-2,-5.199402630E-2,1.731389791E-1,1.839204691E-1
4.487423500E0,-2.872933480E-2,-1.213221234E-1,1.040476942E-1,1.623895162E-1
4.497449500E0,5.596903659E-2,-1.815221322E-1,8.409027010E-3,1.901408143E-1
4.507475500E0,1.279075135E-1,-2.188408166E-1,-5.675000533E-2,2.597541109E-1
4.517501500E0,8.477019165E-2,-2.967958957E-1,-8.019821718E-2,3.189130652E-1
4.527528500E0,2.097694097E-2,-3.818144113E-1,-7.571618021E-2,3.898143361E-1
4.537554500E0,2.140482925E-2,-4.445415866E-1,-1.142179026E-1,4.594791815E-1
4.547580500E0,1.679389771E-2,-4.918747973E-1,-3.096977770E-2,4.931348481E-1
4.557606500E0,-1.805254743E-3,-5.786141485E-1,1.482238470E-1,5.973005111E-1
4.567632500E0,2.193000058E-2,-6.543993258E-1,1.392939793E-1,6.694193120E-1
4.577659500E0,5.216606235E-2,-7.103998643E-1,5.233974293E-2,7.142329550E-1
4.587685500E0,2.227524212E-2,-7.444300747E-1,-7.434223071E-2,7.484644880E-1
4.597711500E0,2.145025481E-2,-7.915861148E-1,-2.455539675E-1,8.290750518E-1
4.607737500E0,-6.936314385E-3,-7.906733644E-1,-2.737549424E-1,8.367522035E-1
4.617763500E0,-6.827148696E-2,-7.962288040E-1,-1.757070762E-1,8.182385232E-1
4.627789917E0,-1.150013929E-1,-8.127951354E-1,-1.461261584E-1,8.337950028E-1
4.637815917E0,-9.360416505E-2,-8.282674527E-1,-1.879556774E-1,8.544682847E-1
4.647841917E0,-5.159612328E-2,-8.055714852E-1,-2.120235479E-1,8.346026375E-1
4.657867917E0,2.099923348E-2,-7.793625104E-1,-1.601004191E-1,7.959139619E-1
4.667893917E0,5.015396236E-2,-7.577003306E-1,-1.562107050E-1,7.752593084E-1
4.677920917E0,-2.243202059E-2,-7.403159738E-1,-1.726757334E-1,7.605181428E-1
4.687946917E0,-8.973747443E-2,-7.200430924E-1,-2.010092939E-1,7.529406387E-1
4.697972917E0,-1.560767124E-1,-6.806468922E-1,-3.299713893E-1,7.723478813E-1
4.707998917E0,-1.677155587E-1,-6.490502930E-1,-4.560771199E-1,8.108027693E-1
4.718024917E0,-1.459387551E-1,-6.389720321E-1,-4.364952332E-1,7.874715656E-1
4.728051917E0,-7.250218503E-2,-6.080186266E-1,-4.031573331E-1,7.331296286E-1
4.738077917E0,6.447209414E-2,-5.063934338E-1,-3.104563071E-1,5.974730783E-1
4.748103917E0,1.184075605E-1,-4.412800097E-1,-1.564985342E-1,4.829494680E-1
4.758129917E0,7.913385948E-2,-4.217403692E-1,-3.741794094E-2,4.307286954E-1
4.768155917E0,3.643237447E-2,-3.610719985E-1,-5.292431831E-2,3.667441744E-1
4.778182917E0,-1.026350800E-2,-2.929975444E-1,-2.095811659E-1,3.603847468E-1
4.788208917E0,-5.901380969E-2,-2.691093296E-1,-3.165648933E-1,4.196615215E-1
4.798234917E0,-9.792311953E-2,-2.726813936E-1,-2.837501729E-1,4.055345119E-1
4.808260917E0,-3.395695573E-2,-2.454900867E-1,-1.519130015E-1,2.906819869E-1
4.818286917E0,2.652412137E-2,-1.902146029E-1,-2.697320580E-3,1.920739434E-1
4.828313917E0,6.769149799E-2,-1.622497094E-1,5.946662173E-2,1.855892944E-1
4.838339917E0,9.799993733E-2,-1.318588060E-1,7.901576400E-2,1.823025600E-1
4.848365917E0,5.104752654E-2,-1.304069424E-1,7.101209521E-2,1.570176367E-1
4.858391917E0,2.684091255E-2,-1.969634593E-1,1.097054601E-2,1.990863927E-1
4.868418917E0,4.579586808E-2,-1.763561171E-1,-3.149354205E-2,1.849069625E-1
4.878444917E0,2.512639015E-2,-1.753679377E-1,3.254326344E-2,1.801230497E-1
4.888470917E0,3.199622900E-2,-1.841147876E-1,1.775755540E-2,1.877161273E-1
4.898496917E0,3.799106858E-2,-1.829055834E-1,2.824862972E-2,1.889332126E-1
4.908522917E0,7.145288391E-2,-2.055097497E-1,1.597108483E-1,2.699024396E-1
4.918549917E0,4.388114249E-2,-2.496673375E-1,2.694057834E-1,3.699173019E-1
4.928575917E0,-1.830511060E-2,-2.835051745E-1,3.755444419E-1,4.708968984E-1
4.938601917E0,1.829082146E-3,-3.547523278E-1,3.899297619E-1,5.271601074E-1
4.948627917E0,2.325315239E-2,-3.724430788E-1,3.054322332E-1,4.822275449E-1
4.958653917E0,1.644567775E-2,-4.298305768E-1,2.279782605E-1,4.868252996E-1
4.968680917E0,1.567448482E-2,-4.863275439E-1,2.274230674E-2,4.871112623E-1
4.978706917E0,2.146620674E-2,-5.362545794E-1,-1.230147462E-1,5.506018523E-1
4.988732917E0,2.304759535E-2,-5.914166272E-1,-1.628700989E-1,6.138660177E-1
4.998758917E0,2.179907776E-2,-6.536152142E-1,-1.710275495E-1,6.759722411E-1
5.008784917E0,1.333673146E-2,-6.778577703E-1,-1.907180482E-1,7.043027752E-1
5.018811917E0,1.606046501E-2,-7.023312914E-1,-2.086717777E-1,7.328513439E-1
5.028837917E0,2.588744181E-2,-7.178743601E-1,-2.002677208E-1,7.457351517E-1
5.038863917E0,2.871502739E-2,-7.138222396E-1,-1.672457166E-1,7.337151166E-1
5.048889917E0,6.055246795E-2,-6.859286821E-1,2.237583250E-3,6.885998585E-1
5.058915917E0,1.344064927E-1,-7.053548867E-1,9.117958054E-2,7.238123633E-1
5.068942917E0,8.700090442E-2,-6.924828261E-1,-1.936320081E-2,6.981952129E-1
5.078968917E0,2.443478331E-3,-6.978587562E-1,-1.317307520E-1,7.101871621E-1
5.088994917E0,-2.201206259E-2,-7.124358648E-1,-2.529714529E-1,7.563358701E-1
5.099020917E0,-4.439611774E-2,-6.883710641E-1,-3.130792218E-1,7.575251390E-1
5.109046917E0,-1.670385059E-2,-6.719912589E-1,-3.115368725E-1,7.408822400E-1
5.119073917E0,-2.141445888E-2,-6.733846503E-1,-4.141479059E-1,7.908375018E-1
5.129099917E0,1.410235126E-2,-6.793909103E-1,-4.450900555E-1,8.123275465E-1
5.139125917E0,4.683784191E-2,-6.024333662E-1,-4.053536935E-1,7.276203412E-1
5.149151917E0,2.911072858E-2,-5.190544099E-1,-2.912275922E-1,5.958845739E-1
5.159177917E0,-3.766465690E-3,-4.747488874E-1,-1.623159291E-1,5.017441113E-1
5.169204917E0,-6.420752591E-2,-4.100126088E-1,-8.411804438E-2,4.234486877E-1
5.179230917E0,-1.025830215E-1,-3.731330502E-1,-9.452725768E-2,3.983553086E-1
5.189256917E0,-6.281009618E-2,-3.147421700E-1,-1.629339798E-1,3.599378051E-1
5.199282917E0,-3.578843158E-3,-2.876789171E-1,-1.508729281E-1,3.248609054E-1
5.209308917E0,-2.266380787E-3,-2.986664200E-1,-1.147897603E-1,3.199741489E-1
5.219335917E0,6.251769885E-3,-2.676907951E-1,-2.838545457E-2,2.692641462E-1
5.229361917E0,-3.572941124E-3,-2.749401730E-1,8.728723526E-2,2.884855735E-1
5.239387917E0,-2.592581416E-2,-3.176236778E-1,3.727906957E-2,3.208530467E-1
5.249413917E0,-9.155926583E-3,-3.329726189E-1,-8.162903085E-2,3.429546539E-1
5.259439917E0,-8.533837656E-3,-3.570958918E-1,-1.281113255E-1,3.794770271E-1
5.269466917E0,-4.937641058E-2,-3.493249422E-1,-6.134620920E-2,3.580911931E-1
5.279492917E0,-1.090437014E-1,-3.088861835E-1,1.431398392E-3,3.275717510E-1
5.289518917E0,-1.496882456E-1,-2.923210216E-1,3.840495095E-2,3.306555470E-1
5.299544917E0,-9.928841698E-2,-2.996499217E-1,5.781492949E-2,3.209218462E-1
5.309570917E0,3.328189468E-3,-2.945458871E-1,1.077934206E-1,3.136682610E-1
5.319597917E0,5.677037009E-2,-3.165694249E-1,1.275551091E-1,3.459904356E-1
5.329623917E0,4.326275376E-2,-3.823622954E-1,1.113993984E-1,4.006025671E-1
5.339649917E0,3.636097449E-2,-4.191822124E-1,7.553374708E-2,4.274823909E-1
5.349675917E0,5.300598747E-2,-4.444246423E-1,-7.069283724E-4,4.475750185E-1
5.359701917E0,-1.268235493E-2,-4.600706220E-1,-8.877301276E-2,4.687285644E-1
5.369728917E0,-6.041030752E-2,-4.641917396E-1,-1.465769787E-1,4.905182841E-1
5.379754917E0,-5.665042908E-2,-4.701260787E-1,-1.622054167E-1,5.005381087E-1
5.389780917E0,-6.420699600E-2,-4.247037381E-1,-1.510166234E-1,4.553041006E-1
5.399806917E0,4.395225925E-2,-5.190403765E-1,-8.844030619E-2,5.283525351E-1
5.409832917E0,3.697443877E-2,-4.873133844E-1,-1.593972914E-1,5.140514957E-1
5.419859917E0,3.433183534E-2,-5.244946593E-1,-1.788299279E-1,5.552057868E-1
5.429885917E0,8.015938802E-2,-5.100812727E-1,-8.205295399E-2,5.228203511E-1
5.439911917E0,6.029402101E-2,-4.794231516E-1,1.972733617E-2,4.836022075E-1
5.449937917E0,2.890846973E-2,-4.890108311E-1,6.873109639E-2,4.946627702E-1
5.459963917E0,-1.069802921E-3,-5.089901823E-1,-5.541947141E-2,5.119994804E-1
5.469990917E0,-1.037193730E-2,-5.340846777E-1,-1.954724193E-1,5.688264118E-1
5.480016917E0,-1.000102283E-3,-5.686931777E-1,-2.680251096E-1,6.286894225E-1
5.490042917E0,1.489373535E-2,-5.455083829E-1,-2.728785910E-1,6.101343660E-1
5.500068917E0,2.995044356E-2,-5.361089838E-1,-2.556518166E-1,5.946996913E-1
5.510094917E0,3.578990252E-2,-5.392734969E-1,-1.934247243E-1,5.740295685E-1
5.520121917E0,9.966926258E-3,-4.951580089E-1,-1.099165446E-1,5.073090184E-1
5.530147917E0,2.167611265E-2,-4.300562793E-1,-4.553182974E-2,4.330027768E-1
5.540173917E0,1.827548166E-2,-4.168018109E-1,2.134160623E-2,4.177477791E-1
5.550199917E0,-9.092392931E-3,-3.912108868E-1,1.351730078E-3,3.913188684E-1
5.560225917E0,-3.817771353E-2,-3.799497342E-1,-1.332536593E-2,3.820954118E-1
5.570252917E0,-8.520654925E-2,-3.929118419E-1,-2.023545921E-2,4.025535310E-1
5.580278917E0,-1.340744805E-1,-4.222993630E-1,-8.779725865E-2,4.516869236E-1
5.590304917E0,-1.134925189E-1,-4.180227095E-1,-1.271624686E-1,4.514353009E-1
5.600330917E0,-5.196020382E-2,-4.006430304E-1,-1.727027768E-1,4.393642563E-1
5.610356917E0,-6.436194722E-3,-4.003594404E-1,-2.324240448E-1,4.629795273E-1
5.620383917E0,5.006166771E-3,-3.864401436E-1,-1.932709426E-1,4.321049682E-1
5.630409625E0,-2.263183091E-3,-3.746702832E-1,-4.821087778E-2,3.777661073E-1
5.640435625E0,-2.089949277E-2,-3.666069728E-1,6.284148842E-3,3.672559759E-1
5.650461625E0,-3.440875364E-2,-3.618490934E-1,3.756324425E-2,3.654171945E-1
5.660487625E0,-1.351529080E-3,-3.512416595E-1,7.242755994E-2,3.586339101E-1
5.670514625E0,3.308601296E-3,-3.690341520E-1,5.362642273E-2,3.729248522E-1
5.680540625E0,-5.792863956E-3,-3.720092154E-1,2.135461628E-2,3.726666516E-1
5.690566625E0,-3.457415675E-2,-3.826336062E-1,4.539193511E-3,3.842192775E-1
5.700592625E0,-7.574509651E-2,-4.289423847E-1,-2.619143307E-2,4.363655351E-1
5.710618625E0,-4.143740835E-2,-4.632357198E-1,-8.849000752E-2,4.734288461E-1
5.720645625E0,-8.414115915E-3,-4.915333200E-1,-1.129892564E-1,5.044228128E-1
5.730671625E0,3.084345957E-2,-5.204665124E-1,-1.198894094E-1,5.349861494E-1
5.740697625E0,7.071227923E-2,-5.516491288E-1,-1.485928063E-1,5.756707478E-1
5.750723625E0,6.305196078E-2,-5.755396825E-1,-2.563793564E-1,6.332075886E-1
5.760749625E0,4.894105797E-2,-5.828837854E-1,-3.023924120E-1,6.584754401E-1
5.770776625E0,3.635356497E-2,-6.171782899E-1,-3.015226386E-1,6.878564711E-1
5.780802625E0,8.336996622E-3,-6.229839903E-1,-2.210101336E-1,6.610779355E-1
5.790828625E0,4.260884319E-3,-6.028374088E-1,-1.339608800E-1,6.175569722E-1
5.800854625E0,6.917173890E-3,-5.887128747E-1,-6.111115113E-2,5.919166063E-1
5.810880625E0,-8.776360061E-3,-5.865809798E-1,-1.027297318E-1,5.955733945E-1
5.820907625E0,5.862729046E-3,-5.584237128E-1,-1.475955637E-1,5.776295223E-1
5.830933625E0,2.984426178E-2,-5.503750205E-1,-1.501408567E-1,5.712666803E-1
5.840959625E0,3.412061381E-2,-5.664384913E-1,-1.232711466E-1,5.807000571E-1
5.850985625E0,1.334263349E-2,-5.538085055E-1,-4.429865196E-2,5.557375795E-1
5.861011625E0,3.719161715E-2,-5.280561984E-1,4.068931192E-3,5.293799403E-1
5.871038625E0,3.204764795E-2,-5.024547493E-1,6.915794313E-2,5.082033530E-1
5.881064625E0,3.308857111E-3,-5.032178110E-1,9.713555440E-2,5.125177360E-1
5.891090625E0,-3.997618916E-2,-4.917555141E-1,-2.466940284E-3,4.933838943E-1
5.901116625E0,-2.937193466E-2,-4.788319981E-1,-1.523560743E-1,5.033439841E-1
5.911142625E0,3.316732580E-2,-4.563061845E-1,-2.253288871E-1,5.099887380E-1
5.921169625E0,6.179541240E-2,-4.534995210E-1,-2.127627821E-1,5.047261535E-1
5.931195625E0,8.429303144E-2,-4.433353060E-1,-1.941528489E-1,4.912706357E-1
5.941221625E0,7.819501592E-2,-4.289271820E-1,-1.361367752E-1,4.567561817E-1
5.951247625E0,2.855785606E-2,-4.208317119E-1,-1.027998984E-1,4.341459432E-1
5.961273625E0,-8.535911590E-3,-4.063545907E-1,-9.219611898E-2,4.167697680E-1
5.971300625E0,7.138390504E-3,-3.821868789E-1,-1.912524837E-1,4.274286836E-1
5.981326625E0,7.175218826E-3,-3.797766566E-1,-2.310340154E-1,4.445880216E-1
5.991352625E0,2.204382028E-3,-3.258635741E-1,-3.253653914E-1,4.604938286E-1
6.001378625E0,3.042359294E-2,-2.892459708E-1,-3.947882134E-1,4.903535052E-1
6.011404625E0,2.403375568E-2,-1.982942855E-1,-3.463207890E-1,3.997953651E-1
6.021431625E0,-1.151606382E-2,-1.417306602E-1,-2.453275341E-1,2.835591627E-1
6.031457625E0,1.386344681E-2,-7.351177990E-2,-1.506739765E-1,1.682225435E-1
6.041483625E0,4.600687033E-2,6.008481860E-2,-9.697782576E-2,1.230102282E-1
6.051509625E0,2.572927463E-2,1.080395883E-1,-1.157837869E-1,1.604382546E-1
6.061535625E0,-4.080585424E-2,1.331878781E-1,-1.026807614E-1,1.730533657E-1
6.071562625E0,-2.272661976E-2,2.083310312E-1,-3.073311165E-2,2.118085030E-1
6.081588625E0,2.345262467E-2,3.238667500E-1,1.008445895E-1,3.400137182E-1
6.091614625E0,3.191175501E-2,3.889257950E-1,2.806714676E-1,4.806850391E-1
6.101640625E0,6.803732425E-2,3.989689726E-1,4.269641255E-1,5.883057734E-1
6.111666625E0,1.953804170E-2,4.538579553E-1,5.011788869E-1,6.764237247E-1
6.121693625E0,5.374687538E-4,4.644583726E-1,4.754657561E-1,6.646725163E-1
6.131719625E0,-4.419016784E-2,4.654102993E-1,4.346176922E-1,6.383197130E-1
6.141745625E0,-2.328653634E-2,4.716486937E-1,2.397323334E-1,5.295907332E-1
6.151771625E0,-6.668129099E-2,4.444889617E-1,8.762651995E-2,4.579249269E-1
6.161797625E0,-3.829181646E-2,3.841696697E-1,9.282294050E-2,3.970751776E-1
6.171824625E0,1.538091805E-2,3.436893958E-1,1.363506371E-1,3.700681959E-1
6.181850625E0,8.638781472E-2,2.991558319E-1,1.312862174E-1,3.379247508E-1
6.191876625E0,1.235104165E-1,2.544790113E-1,1.430462837E-2,2.832296110E-1
6.201902625E0,1.081929407E-1,2.106968147E-1,-6.716111898E-2,2.461899186E-1
6.211928625E0,9.941868198E-2,1.520211750E-1,-4.506741464E-2,1.871512326E-1
6.221955625E0,7.444650301E-2,9.788882196E-2,2.759198740E-2,1.260389664E-1
6.231981625E0,4.025177574E-3,6.796745002E-2,8.135991275E-2,1.060905826E-1
6.242007625E0,-5.796374112E-2,3.593230963E-2,1.201251984E-1,1.381339547E-1
6.252033625E0,-9.174448553E-2,3.932837248E-3,1.299735175E-1,1.591402937E-1
6.262059625E0,-4.998987487E-2,-2.324151278E-2,1.686139651E-1,1.773973639E-1
6.272086625E0,1.860904704E-2,-5.207296371E-2,1.957823217E-1,2.034419024E-1
6.282112625E0,2.327929127E-2,-1.005031121E-1,2.166453333E-1,2.399541652E-1
6.292138625E0,1.539449455E-2,-1.048645502E-1,1.487198371E-1,1.826229840E-1
6.302164625E0,-2.036154893E-2,-1.312816858E-1,4.031962171E-2,1.388349581E-1
6.312190625E0,-5.111128860E-2,-1.760058689E-1,-9.001715407E-2,2.041899061E-1
6.322217625E0,-9.415441546E-2,-1.771834981E-1,-2.058313465E-1,2.874466719E-1
6.332243625E0,-1.080555494E-1,-2.123404670E-1,-2.292428671E-1,3.306308633E-1
6.342269625E0,-1.193421466E-1,-2.025680155E-1,-2.297445582E-1,3.287231523E-1
6.352295625E0,-9.534803317E-2,-1.594483083E-1,-1.637670618E-1,2.476583554E-1
6.362321625E0,-4.374268225E-2,-1.320359766E-1,-4.080888748E-2,1.449561543E-1
6.372348625E0,-3.242955336E-2,-1.365488577E-1,-2.524769247E-2,1.425998332E-1
6.382374625E0,1.231313981E-3,-8.676566362E-2,-5.986101642E-2,1.054188684E-1
6.392400625E0,5.513904260E-2,-3.936053216E-2,-7.775393486E-2,1.031272995E-1
6.402426625E0,3.001351126E-2,-5.553685427E-3,-9.635217369E-2,1.010712405E-1
6.412452625E0,-3.691630466E-3,1.069280326E-2,-1.113343482E-1,1.119075568E-1
6.422479625E0,3.501440641E-3,2.649782717E-2,-1.420399779E-1,1.445328691E-1
6.432505625E0,-4.294783551E-2,6.767567396E-3,-4.797114193E-2,6.474215784E-2
6.442531625E0,-5.317324525E-2,1.702709198E-2,1.853991285E-2,5.883064032E-2
6.452557625E0,-2.501500069E-2,4.570885420E-2,5.064200386E-2,7.266128383E-2
6.462583625E0,2.912965894E-2,9.708190620E-2,1.255578464E-1,1.613635843E-1
6.472609625E0,7.935006942E-2,1.244644171E-1,1.150258416E-1,1.871330245E-1
6.482636625E0,3.518806871E-2,1.236042917E-1,8.894097403E-2,1.562904922E-1
6.492662625E0,-1.516026788E-2,9.095987141E-2,9.476757824E-2,1.322286876E-1
6.502688625E0,-3.756519028E-2,1.453383923E-2,9.938512444E-2,1.072370224E-1
6.512714625E0,-4.917956955E-2,9.651998878E-3,3.207534000E-2,5.950309723E-2
6.522740625E0,-1.705047171E-2,3.260875225E-2,-9.372458115E-2,1.006893560E-1
6.532767625E0,1.864138031E-2,5.908786833E-2,-1.116479051E-1,1.276876343E-1
6.542793625E0,3.441824622E-2,5.932760417E-2,-9.953481317E-2,1.208782831E-1
6.552819625E0,1.532075568E-2,6.517949760E-2,-3.507978559E-2,7.558891333E-2
6.562845625E0,-1.700876461E-2,4.505279660E-2,5.171145961E-2,7.066206627E-2
6.572871625E0,8.412142480E-3,3.942309737E-2,5.437135801E-2,6.768448359E-2
6.582898625E0,-5.230699852E-3,1.196808100E-2,-3.218599856E-2,3.473519378E-2
6.592924625E0,-1.542943167E-2,-1.778606057E-2,-8.306832299E-2,8.634093812E-2
6.602950625E0,-3.455594815E-2,-2.626920104E-2,-7.985557035E-2,9.089057482E-2
6.612976625E0,-6.842721476E-2,-5.046790302E-2,-6.096789435E-2,1.046249353E-1
6.623002625E0,-9.182380666E-2,-7.558169425E-2,-5.576898873E-2,1.313559442E-1
6.633030167E0,-4.397318132E-2,-7.623015046E-2,-5.693243846E-2,1.048140213E-1
6.643056167E0,1.028016343E-2,-3.990373850E-2,-7.960326299E-2,8.963631845E-2
6.653082167E0,3.221678780E-2,-2.471033335E-3,-1.129155815E-2,3.422757233E-2
6.663108167E0,4.954532202E-2,7.821235657E-3,1.025269796E-1,1.141389163E-1
6.673134167E0,6.966697066E-2,2.642239809E-2,1.367114103E-1,1.556972692E-1
6.683161167E0,1.563124283E-2,1.497822762E-2,1.031435685E-1,1.053910754E-1
6.693187167E0,-9.003139752E-2,-1.427831590E-2,4.632792816E-2,1.022536052E-1
6.703213167E0,-1.433050870E-1,-3.035465062E-2,-4.171988368E-3,1.465440488E-1
6.713239167E0,-1.363563747E-1,2.088625431E-3,-9.680065513E-3,1.367154963E-1
6.723265167E0,-7.986443253E-2,9.823322296E-4,2.877414823E-2,8.489548967E-2
6.733292167E0,-6.067399867E-5,-6.525492668E-4,5.892955497E-2,5.893319905E-2
6.743318167E0,3.943115557E-3,-7.355797291E-3,4.559497967E-2,4.635254131E-2
6.753344167E0,-2.443637302E-2,-3.520374656E-2,-4.007491574E-2,5.867230155E-2
6.763370167E0,1.005905645E-2,-2.607390404E-2,-7.422148570E-2,7.930865040E-2
6.773396167E0,2.199740801E-3,-4.947329164E-2,-1.010257070E-1,1.125106169E-1
6.783423167E0,6.092625121E-3,-2.355550826E-2,-1.767531431E-1,1.784198858E-1
6.793449167E0,6.831439091E-3,-1.411517859E-3,-1.418370795E-1,1.420085141E-1
6.803475167E0,4.563103141E-3,3.705965281E-3,-7.321006358E-2,7.344569081E-2
6.813501167E0,9.874467161E-3,-1.555417836E-2,-5.862988517E-2,6.145649681E-2
6.823527167E0,1.727656709E-2,-9.770697355E-4,-7.239189193E-2,7.443131365E-2
6.833554167E0,2.533013821E-2,4.400906861E-2,-5.271513417E-2,7.319357480E-2
6.843580167E0,-5.165832303E-3,5.680570006E-3,4.174093366E-2,4.244125636E-2
6.853606167E0,9.764393326E-3,3.931083083E-2,3.842833981E-2,5.583387948E-2
6.863632167E0,-6.881323149E-3,-3.553352952E-3,-1.456482947E-2,1.649585351E-2
6.873658167E0,2.987846799E-2,-2.843968749E-2,-9.594988525E-2,1.044409841E-1
6.883685167E0,2.350699464E-3,-1.874909699E-2,-7.925038353E-2,8.147194434E-2
6.893711167E0,2.578475922E-2,2.518103421E-2,9.983886838E-2,1.061448912E-1
6.903737167E0,4.760043760E-2,1.343631685E-2,1.003971313E-1,1.119192577E-1
6.913763167E0,-9.731785962E-2,3.970084012E-2,-1.407424808E-3,1.051137639E-1
6.923789167E0,-4.387008760E-2,-3.119080245E-2,-1.515203610E-2,5.591989755E-2
6.933815167E0,-9.551309824E-2,-2.456239879E-2,-8.012205720E-2,1.270653667E-1
6.943842167E0,-7.930100762E-2,1.311764359E-2,-1.635729343E-1,1.822548414E-1
6.953868167E0,2.597780870E-2,-9.450269938E-3,-8.119882196E-3,2.881122409E-2
6.963894167E0,5.946143232E-3,6.251316726E-2,1.451881188E-1,1.581861010E-1
6.973920167E0,6.676655984E-2,1.460926831E-2,1.758665590E-1,1.886802873E-1
6.983946167E0,1.286514164E-1,1.623420954E-2,3.970259428E-3,1.297324148E-1
6.993973167E0,4.999641644E-2,-2.163645208E-2,-1.450974870E-1,1.549872848E-1
7.003999167E0,2.528752662E-2,3.600247622E-2,-1.486878236E-1,1.550603308E-1
7.014025167E0,-8.787524588E-3,8.756205440E-3,2.292634785E-2,2.606739626E-2
7.024051167E0,-2.086511297E-2,-5.481589258E-2,7.929306820E-2,9.862821951E-2
7.034077167E0,2.620979698E-2,-3.286427557E-2,6.654833078E-2,7.871273339E-2
7.044104167E0,1.021114801E-1,-3.872727871E-2,-4.865234256E-2,1.195558736E-1
7.054130167E0,-1.329685162E-2,1.682103610E-1,1.325037539E-1,2.145431812E-1
7.064156167E0,5.217327087E-2,1.023046392E-1,2.268042858E-1,2.542213080E-1
7.074182167E0,-1.601602617E-2,-6.715644121E-2,7.239203811E-2,1.000355330E-1
7.084208167E0,-8.868818245E-2,3.298882127E-2,-8.249076426E-2,1.255331917E-1
7.094235167E0,-1.362210299E-2,1.036009669E-1,-1.097848360E-1,1.515632946E-1
7.104261167E0,-7.661325272E-2,8.387772381E-2,-8.267027378E-2,1.404971075E-1
7.114287167E0,-5.754798582E-2,2.364906371E-2,3.480145812E-2,7.128948291E-2
7.124313167E0,-1.213982468E-3,3.294672132E-2,5.824016824E-2,6.692441554E-2
7.134339167E0,7.925537193E-2,2.997048855E-2,-7.105653405E-2,1.105833405E-1
7.144366167E0,7.435027977E-2,6.690618038E-2,-3.800500140E-2,1.069989776E-1
7.154392167E0,1.540781524E-1,1.299502748E-1,3.926873088E-2,2.053513677E-1
7.164418167E0,1.094912327E-1,1.743423361E-1,1.758145188E-1,2.707292470E-1
7.174444167E0,-1.381765581E-3,6.723070085E-2,2.438937968E-1,2.529941907E-1
7.184470167E0,-1.222114484E-1,-1.910694659E-2,1.241008665E-1,1.752191159E-1
7.194497167E0,-8.057244812E-2,3.720875680E-2,7.111983016E-2,1.137296849E-1
7.204523167E0,7.244014973E-3,2.234454989E-2,1.433509237E-1,1.452626655E-1
7.214549167E0,4.616985234E-2,-5.304243207E-2,1.500186498E-1,1.656826791E-1
7.224575167E0,5.530429954E-2,-3.972890675E-2,2.931223825E-2,7.413608359E-2
7.234601167E0,3.430507062E-2,-6.423809588E-2,-8.805248961E-2,1.142655318E-1
7.244628167E0,-7.814629217E-2,-6.307859302E-2,-1.272463761E-1,1.621030293E-1
7.254654167E0,-7.778523574E-2,-3.403079510E-2,-3.395478129E-2,9.144159385E-2
7.264680167E0,-4.901338528E-2,1.856374025E-2,5.471283540E-2,7.576555119E-2
7.274706167E0,-2.704401650E-2,-2.233694851E-2,-1.925195754E-2,4.001194779E-2
7.284732167E0,-7.952967944E-2,-4.433475852E-2,3.828025907E-3,9.113283989E-2
7.294758167E0,1.352207449E-2,1.317903936E-2,8.665281236E-2,8.868620787E-2
7.304785167E0,2.474472228E-2,1.202187538E-2,6.913967058E-2,7.441183250E-2
7.314811167E0,4.646269277E-2,2.377536356E-2,-1.923514679E-2,5.562410093E-2
7.324837167E0,1.198780621E-2,2.106225550E-2,-3.245730937E-2,4.050682703E-2
7.334863167E0,-9.183773948E-2,-2.461151540E-2,-8.535063744E-2,1.277678692E-1
7.344889167E0,-3.627285055E-2,-6.987773538E-2,-1.177928902E-1,1.416819769E-1
7.354916167E0,1.469270990E-2,-6.974792719E-2,-1.287901872E-1,1.471990537E-1
7.364942167E0,3.906105879E-2,-4.233150244E-2,-1.293953741E-1,1.416364545E-1
7.374968167E0,5.453209705E-2,-5.475917459E-3,-9.397703469E-2,1.087907088E-1
7.384994167E0,1.502071129E-2,1.290538967E-2,-4.409677684E-2,4.833938951E-2
7.395020167E0,1.202166525E-2,4.727473855E-3,-4.037502408E-2,4.239117849E-2
7.405047167E0,2.037805818E-2,2.012670100E-2,-6.192903042E-2,6.823162138E-2
7.415073167E0,3.488944958E-2,9.079556465E-3,-2.880119160E-2,4.614347923E-2
7.425099167E0,3.723259334E-2,-1.821524620E-2,4.566543862E-2,6.167165869E-2
7.435125167E0,-3.118892495E-2,-6.673602641E-2,5.019249916E-2,8.913884244E-2
7.445151167E0,-7.986796827E-2,-1.221892655E-2,5.169289470E-2,9.591845434E-2
7.455178167E0,-7.876003968E-2,-1.816437542E-2,1.359976114E-1,1.582037885E-1
7.465204167E0,-2.325345845E-2,-3.184452116E-2,2.944058463E-2,4.920919509E-2
7.475230167E0,-3.098601743E-2,1.266857743E-2,-2.839685664E-2,4.389769467E-2
7.485256167E0,-2.887508122E-2,-9.117563367E-3,4.647089258E-2,5.546570232E-2
7.495282167E0,2.752201268E-2,1.828131974E-2,1.308139086E-2,3.553576536E-2
7.505309167E0,8.146092340E-2,3.944414735E-2,4.006921470E-2,9.898113340E-2
7.515335167E0,1.190400830E-1,3.536162138E-2,3.850406125E-2,1.300136469E-1
7.525361167E0,1.154203094E-1,3.262395501E-2,5.732785642E-2,1.329385323E-1
7.535387167E0,8.421487975E-2,2.978747070E-2,9.397601143E-2,1.296569709E-1
7.545413167E0,8.744269811E-2,2.580668628E-2,6.324012235E-2,1.109573052E-1
7.555439167E0,4.428424406E-2,1.099627376E-2,-2.154158100E-2,5.045841873E-2
7.565466167E0,-3.982434427E-2,-3.273972988E-2,-1.158998542E-1,1.268489042E-1
7.575492167E0,-3.860471559E-2,-5.470654964E-3,-9.760640144E-2,1.051059548E-1
7.585518167E0,-3.044111632E-2,1.566761434E-2,-6.978417993E-2,7.773009372E-2
7.595544167E0,9.432728291E-3,2.305907965E-2,2.559764832E-3,2.504495784E-2
7.605570167E0,4.243987693E-2,2.315497398E-2,6.263537407E-2,7.912323337E-2
7.615597167E0,6.952872969E-2,-7.718324661E-5,5.647708654E-2,8.957628880E-2
7.625623167E0,4.889401529E-2,-7.565712333E-3,-1.960439846E-2,5.321839131E-2
7.635648750E0,-1.701850388E-3,-2.004074693E-2,-4.908284381E-2,5.304388173E-2
7.645674750E0,-3.778047745E-2,-1.961506963E-2,-1.452360660E-1,1.513460614E-1
7.655700750E0,-3.905876102E-3,-2.843910277E-2,-1.347865069E-1,1.378094368E-1
7.665727750E0,-4.167528952E-2,4.634503126E-3,-4.877688825E-2,6.432334882E-2
7.675753750E0,3.757614467E-2,5.122336328E-2,8.953899801E-2,1.097863004E-1
7.685779750E0,-6.024101235E-2,-1.127635539E-2,1.023444003E-1,1.192917098E-1
7.695805750E0,-5.542473391E-2,2.235390544E-3,8.305531293E-3,5.608814447E-2
7.705831750E0,-1.037515327E-4,1.017240107E-2,5.521935046E-2,5.614859903E-2
7.715858750E0,2.927614083E-2,-8.584882021E-3,6.147250906E-2,6.862697713E-2
7.725884750E0,4.795794915E-3,-1.120677352E-2,9.264913201E-3,1.531110833E-2
7.735910750E0,1.618806222E-2,-5.832480669E-2,-3.705322087E-2,7.097025863E-2
7.745936750E0,1.222503872E-2,-3.716607213E-2,-9.098150611E-2,9.903738154E-2
7.755962750E0,3.311607130E-2,-2.984828174E-2,-1.263331872E-1,1.339689079E-1
7.765989750E0,-3.219274113E-2,-2.480739713E-2,-1.347397292E-1,1.407358311E-1
7.776015750E0,-7.622330739E-2,-3.255905092E-2,-6.787827998E-2,1.071333061E-1
7.786041750E0,-6.014864461E-2,3.025173962E-2,3.051237926E-2,7.391909420E-2
7.796067750E0,-6.627402328E-2,5.246706605E-3,7.681238696E-2,1.015869917E-1
7.806093750E0,5.127907628E-3,1.291240633E-2,6.438471481E-2,6.586666209E-2
7.816119750E0,4.360660658E-2,2.160136878E-2,8.495989725E-2,9.790985350E-2
7.826146750E0,6.589818436E-2,2.494773030E-2,8.764800847E-2,1.124594742E-1
7.836172750E0,1.311101066E-2,1.203824759E-2,-1.571965456E-2,2.374711656E-2
7.846198750E0,-4.778677192E-2,-1.286738276E-2,-8.710699484E-2,1.001836996E-1
7.856224750E0,-4.185595022E-2,1.413213551E-2,-6.461114824E-2,7.827029002E-2
7.866250750E0,-4.840779190E-2,1.915197015E-2,-9.665228203E-2,1.097805807E-1
7.876277750E0,-6.647270984E-2,1.828482807E-2,-1.018218054E-1,1.229659959E-1
7.886303750E0,-4.181427053E-2,4.431897104E-2,-7.129203066E-2,9.378250396E-2
7.896329750E0,1.470608541E-2,7.281946957E-2,3.338760138E-2,8.144738192E-2
7.906355750E0,8.745067407E-2,1.140423399E-1,1.028707959E-1,1.767361772E-1
7.916381750E0,1.031648012E-1,8.855023384E-2,9.019797921E-2,1.631557402E-1
7.926408750E0,6.357440949E-2,6.281371415E-2,4.612795338E-2,1.005736363E-1
7.936434750E0,-1.551283672E-2,1.023613572E-2,-2.031498134E-2,2.753407061E-2
7.946460750E0,-4.455641367E-2,-1.090154886E-2,-1.112770455E-1,1.203607021E-1
7.956486750E0,-3.470310613E-2,-3.261986196E-2,-1.407799029E-1,1.486181080E-1
7.966512750E0,-6.194880132E-2,-3.928042531E-2,-9.168887302E-2,1.174199950E-1
7.976539750E0,1.714761771E-2,-4.618715644E-2,-1.058575536E-1,1.167609347E-1
7.986565750E0,6.790170539E-2,-4.350913167E-3,-9.290290117E-2,1.151543359E-1
7.996591750E0,4.254380205E-2,-1.987994850E-2,-2.134292185E-2,5.158204880E-2
8.006617750E0,2.577545850E-2,-3.496459544E-2,2.007466078E-2,4.785278675E-2
8.016643750E0,5.069492117E-2,8.280242085E-3,8.391514599E-2,9.838846054E-2
8.026670750E0,8.455587292E-2,-4.911661148E-4,7.459921584E-2,1.127607196E-1
8.036696750E0,4.078702438E-2,-3.133698285E-2,-1.487882495E-2,5.354406861E-2
8.046722750E0,5.519378716E-2,-4.613920927E-2,-4.738992870E-2,8.614514563E-2
8.056748750E0,3.861912349E-2,-3.333848476E-2,-6.070930123E-2,7.930012939E-2
8.066774750E0,1.852013282E-2,-5.288748085E-2,-5.703037933E-2,7.995339340E-2
8.076800750E0,1.052152553E-2,-7.601380348E-3,-6.005748287E-2,6.144415945E-2
8.086827750E0,-2.783529553E-2,-3.258594811E-2,-1.143632059E-1,1.221294008E-1
8.096853750E0,-1.143147105E-2,-9.013482928E-3,-9.074162409E-2,9.190192461E-2
8.106879750E0,1.258318981E-2,9.853727818E-3,-3.600715399E-2,3.939476813E-2
8.116905750E0,1.242147775E-2,-2.300002277E-2,-5.036426112E-2,5.674374816E-2
8.126931750E0,-4.593718797E-4,-2.248488307E-2,8.102925271E-3,2.390477750E-2
8.136958750E0,1.511611227E-2,-1.041973829E-2,-1.168098271E-2,2.176035738E-2
8.146984750E0,1.223896240E-2,-3.223803878E-2,-7.085144296E-2,7.879727352E-2
8.157010750E0,-4.409144126E-2,-3.797064900E-2,-1.051738679E-1,1.201972041E-1
8.167036750E0,-9.796644375E-3,-4.460256100E-3,-9.237650558E-2,9.300154251E-2
8.177062750E0,6.023408705E-3,-2.642298281E-2,-5.440015554E-2,6.077690677E-2
8.187089750E0,1.537339889E-2,1.114537776E-2,4.152400196E-2,4.565964933E-2
8.197115750E0,7.422610866E-3,5.302079737E-2,9.058871940E-2,1.052264995E-1
8.207141750E0,6.380472584E-3,5.271557271E-2,1.324927904E-1,1.427374567E-1
8.217167750E0,1.269113489E-2,7.250781298E-2,1.466842751E-1,1.641180198E-1
8.227193750E0,-2.387503118E-2,4.464349151E-2,4.609944820E-2,6.847055990E-2
8.237220750E0,-3.063624887E-2,2.700828910E-2,-2.472100452E-2,4.774050156E-2
8.247246750E0,-3.440627770E-2,9.291225672E-3,-2.549678385E-2,4.382014157E-2
8.257272750E0,-5.170962322E-2,-4.290686846E-3,-1.052050044E-1,1.173046805E-1
8.267298750E0,-6.095617251E-2,-2.704161823E-2,-1.129128040E-1,1.311343029E-1
8.277324750E0,-3.945051533E-2,-8.092546463E-4,-5.768117443E-2,6.988645031E-2
8.287350750E0,9.646809474E-3,1.809420884E-2,-2.909574509E-2,3.559527649E-2
8.297377750E0,3.713537425E-2,9.180128574E-4,-5.670775920E-3,3.757707370E-2
8.307403750E0,9.320722134E-2,1.079805315E-2,-1.402893215E-3,9.384110065E-2
8.317429750E0,7.215158050E-2,7.371000051E-3,-2.791987002E-2,7.771551552E-2
8.327455750E0,3.230044867E-2,-1.265922189E-2,-2.728837073E-2,4.413875916E-2
8.337481750E0,1.960613435E-2,-3.828172088E-2,-3.412946686E-2,5.490638547E-2
8.347508750E0,-5.208102191E-2,-1.664526880E-2,-5.561637640E-2,7.799153249E-2
8.357534750E0,-8.632426280E-2,2.711353898E-3,-8.205704704E-2,1.191326519E-1
8.367560750E0,-6.460636997E-2,2.079854608E-2,1.317129180E-2,6.913787303E-2
8.377586750E0,-4.749600998E-2,2.776901186E-2,5.774227783E-2,7.975687828E-2
8.387612750E0,-1.362583973E-4,3.932310998E-2,7.200246736E-2,8.204072679E-2
8.397639750E0,1.351644197E-2,2.003080666E-2,1.437327468E-1,1.457498883E-1
8.407665750E0,1.976034553E-2,1.520276070E-2,1.047500910E-1,1.076762590E-1
8.417691750E0,1.109740318E-2,1.278552175E-2,4.004041716E-2,4.347248475E-2
8.427717750E0,-2.397083416E-2,1.088225305E-2,-1.894644052E-3,2.639344611E-2
8.437743750E0,-3.174278875E-2,-7.098519802E-4,3.526455760E-3,3.194596090E-2
8.447770750E0,6.869208449E-3,-1.070040464E-3,3.634322271E-2,3.700217356E-2
8.457796750E0,8.034962352E-2,3.307652950E-2,9.019081637E-2,1.252377825E-1
8.467822750E0,9.386644922E-2,2.574178219E-2,3.117574587E-2,1.022031153E-1
8.477848750E0,3.592571324E-2,1.285685778E-2,-3.122880936E-2,4.930714144E-2
8.487874750E0,3.044645190E-3,-4.334540963E-3,-5.209693730E-2,5.236553242E-2
8.497900750E0,-2.665667044E-2,7.784398198E-3,-7.343693554E-2,7.851215470E-2
8.507927750E0,-6.149061715E-2,-1.540039659E-2,-9.214407876E-2,1.118427443E-1
8.517953750E0,-1.150508384E-1,6.720204949E-3,-7.891051412E-2,1.396736404E-1
8.527979750E0,-1.232903145E-1,-6.039004326E-3,-1.091514364E-2,1.239197788E-1
8.538005750E0,-4.611915515E-2,2.454661131E-3,1.013461344E-1,1.113734295E-1
8.548031750E0,7.297777380E-2,2.802687407E-2,1.189101470E-1,1.423056014E-1
8.558058750E0,9.092454144E-2,1.575473785E-2,5.107703671E-2,1.054720232E-1
8.568084750E0,9.286894164E-2,3.121068299E-2,1.570971429E-2,9.922470548E-2
8.578110750E0,7.636738644E-2,1.441221714E-2,5.206009984E-2,9.354113379E-2
8.588136750E0,3.592094410E-2,1.297847986E-2,6.075257063E-2,7.176092253E-2
8.598162750E0,-2.587553725E-2,9.600543380E-3,1.041389108E-2,2.949852519E-2
8.608189750E0,-8.174066699E-2,-1.867893040E-2,-5.425572932E-2,9.987053242E-2
8.618215750E0,-8.362790152E-2,-3.963301241E-2,-7.412339866E-2,1.185693039E-1
8.628241500E0,-9.228732641E-2,-2.414549232E-2,-1.012217349E-1,1.390891621E-1
8.638267500E0,-3.710756343E-2,-2.330700159E-3,-6.762246430E-2,7.716994949E-2
8.648293500E0,6.602551661E-2,2.816077530E-2,-6.215736419E-3,7.204882712E-2
8.658320500E0,1.520816023E-1,6.248510063E-2,5.775879622E-2,1.742678402E-1
8.668346500E0,1.377607114E-1,2.783917844E-2,8.674212858E-2,1.651581979E-1
8.678372500E0,9.363655315E-2,1.878184140E-2,1.184176652E-1,1.521292381E-1
8.688398500E0,7.282496047E-2,2.975589573E-2,6.749967277E-2,1.036585453E-1
8.698424500E0,5.842464790E-3,1.607633471E-2,-2.013488710E-2,2.641962549E-2
8.708450500E0,-7.191315114E-2,-1.880932331E-2,-2.179418072E-2,7.746146309E-2
8.718477500E0,-3.382684604E-2,-1.206689894E-2,1.487897113E-2,3.887479061E-2
8.728503500E0,2.863489313E-2,7.807202339E-3,3.623928845E-2,4.684224098E-2
8.738529500E0,1.562524944E-2,-1.546822429E-2,4.333605409E-2,4.859452609E-2
8.748555500E0,2.586397072E-2,1.191136301E-2,3.062888503E-2,4.182049914E-2
8.758581500E0,5.592761273E-2,2.128854275E-2,-2.691604927E-2,6.561686998E-2
8.768608500E0,3.843759486E-2,2.951031268E-2,-3.502847627E-2,5.979382411E-2
8.778634500E0,-3.312895345E-3,2.563360870E-2,-1.731828332E-2,3.111237869E-2
8.788660500E0,2.173878749E-2,2.254160106E-2,4.026275754E-2,5.100772789E-2
8.798686500E0,2.615991293E-2,3.825833201E-2,4.176242217E-2,6.238702524E-2
8.808712500E0,9.323769081E-3,1.956302941E-2,2.427676231E-2,3.254237203E-2
8.818739500E0,-4.195071165E-2,6.360016465E-3,-1.424513295E-2,4.475752261E-2
8.828765500E0,-9.794020437E-2,-1.964313626E-2,-6.287408665E-2,1.180308740E-1
8.838791500E0,-1.148723339E-1,-2.458461821E-2,-4.231688440E-2,1.248630260E-1
8.848817500E0,-9.109655921E-2,-5.913873911E-3,-1.363629162E-2,9.230116713E-2
8.858843500E0,-2.807473901E-2,1.122723877E-2,2.111663461E-2,3.688026732E-2
8.868870500E0,2.651934310E-2,5.765354633E-4,-8.348069787E-3,2.780824016E-2
8.878896500E0,5.219812154E-2,1.025893986E-2,-2.927598551E-2,6.072045015E-2
8.888922500E0,3.830845362E-2,1.259139419E-2,-5.294653773E-2,6.655386303E-2
8.898948500E0,1.702641590E-2,2.280940354E-2,6.800750345E-3,2.926461914E-2
8.908974500E0,-2.031388499E-2,1.815794349E-2,7.068757474E-2,7.575683506E-2
8.919000500E0,-4.993277315E-2,1.395145655E-2,6.756501541E-2,8.516428994E-2
8.929027500E0,-8.196054057E-2,-1.738903463E-2,7.158015221E-3,8.409010595E-2
8.939053500E0,-8.400682851E-2,-3.384368420E-2,-7.906561151E-2,1.202244281E-1
8.949079500E0,-4.893006703E-2,-2.502900660E-2,-1.164205487E-1,1.287413950E-1
8.959105500E0,-6.974622784E-3,-4.226776779E-2,-9.735307083E-2,1.063617880E-1
8.969131500E0,2.334989640E-2,-4.091706097E-2,-5.683961391E-2,7.382523451E-2
8.979158500E0,5.375051161E-2,-2.806429625E-2,3.122340068E-2,6.820280766E-2
8.989184500E0,7.613318718E-2,-9.127503633E-3,5.711721048E-2,9.561354112E-2
8.999210500E0,2.788322442E-2,-9.257896543E-3,2.187794209E-2,3.663095962E-2
9.009236500E0,1.852645512E-2,-1.961623907E-2,-1.250017762E-2,2.973685954E-2
9.019262500E0,-4.663839703E-3,-1.656867027E-2,-5.340671360E-2,5.611193539E-2
9.029289500E0,-1.459082217E-2,1.549453676E-2,4.100359976E-4,2.128710620E-2
9.039315500E0,-1.493363346E-2,-5.315703750E-3,6.114433408E-3,1.698989142E-2
9.049341500E0,-1.260981292E-2,-7.497884631E-3,1.437947273E-2,2.054251425E-2
9.059367500E0,1.869018629E-2,5.343770385E-3,4.505615875E-2,4.907072841E-2
9.069393500E0,2.103109167E-2,-2.647034526E-3,6.081089661E-2,6.439936921E-2
9.079420500E0,3.395877385E-2,1.040687442E-2,2.135286212E-2,4.144208099E-2
9.089446500E0,3.085995055E-2,8.063310385E-4,-1.938468933E-2,3.645206301E-2
9.099472500E0,3.435146006E-2,-1.757906914E-2,-5.366399109E-2,6.609743127E-2
9.109498500E0,6.134147661E-2,2.157037854E-3,-6.763181984E-2,9.133177224E-2
9.119524500E0,3.985479548E-2,2.364380121E-2,-2.125404418E-2,5.098204049E-2
9.129550500E0,2.462055118E-2,-5.096433163E-3,2.114353180E-3,2.523124374E-2
9.139577500E0,-1.726695573E-2,-7.634709477E-3,-2.734640434E-2,3.323044356E-2
9.149603500E0,-2.486006775E-2,-1.524953842E-3,-9.833964229E-2,1.014447322E-1
9.159629500E0,-4.948669455E-2,-2.735561371E-2,-1.225143707E-1,1.349334412E-1
9.169655500E0,-7.946515907E-2,-3.651176870E-2,-1.085975589E-1,1.394318850E-1
9.179681500E0,-4.471671875E-2,-4.445871949E-2,-6.655023113E-2,9.167931030E-2
9.189708500E0,2.429513535E-2,-2.306141853E-2,8.168560266E-3,3.447909517E-2
9.199734500E0,7.281322950E-2,3.913482964E-2,4.656020880E-2,9.487441343E-2
9.209760500E0,4.610342248E-2,4.098605812E-2,1.057176590E-1,1.223993707E-1
9.219786500E0,2.776300932E-2,2.711236954E-2,1.116933672E-1,1.182424355E-1
9.229812500E0,-3.476109406E-2,-1.116759717E-2,3.894698784E-2,5.338461153E-2
9.239839500E0,-3.600617641E-2,1.812636852E-4,-6.971781403E-3,3.667537773E-2
9.249865500E0,8.438034682E-3,-3.809694886E-2,-2.353211939E-2,4.556685841E-2
9.259891500E0,4.399603114E-2,-2.372332335E-2,-3.571230814E-2,6.143139083E-2
9.269917500E0,8.978573224E-3,-1.383685112E-2,-9.981723368E-2,1.011709117E-1
9.279943500E0,-1.855809404E-2,-3.492834270E-2,-1.331305754E-1,1.388817558E-1
9.289970500E0,-7.822852777E-3,-3.570368350E-2,-1.348391318E-1,1.397051950E-1
9.299996500E0,-6.516703572E-3,3.959734440E-3,-7.379960909E-2,7.419251461E-2
9.310022500E0,1.343099040E-2,2.173936307E-2,-3.401091456E-2,4.254096519E-2
9.320048500E0,5.356666236E-2,5.655894756E-2,-2.796957135E-2,8.276834412E-2
9.330074500E0,7.892325008E-3,6.159281552E-2,6.190447211E-3,6.240420943E-2
9.340100500E0,-1.067397066E-1,9.516694307E-2,5.347790346E-2,1.526761218E-1
9.350127500E0,-1.158740259E-1,7.205173016E-2,3.465279266E-2,1.407801752E-1
9.360153500E0,-1.128076912E-1,7.402165711E-2,3.984131947E-2,1.406844400E-1
9.370179500E0,-5.299931799E-2,9.010617793E-2,7.863701060E-2,1.308121953E-1
9.380205500E0,7.681432385E-3,1.014433444E-1,8.387713909E-2,1.318526867E-1
9.390231500E0,2.085979566E-2,8.237674356E-2,1.089365512E-1,1.381601648E-1
9.400258500E0,5.114303716E-4,6.796277225E-2,1.219045061E-1,1.395704431E-1
9.410284500E0,5.455849632E-2,7.570740938E-2,5.814047322E-2,1.099479694E-1
9.420310500E0,-2.552922676E-2,1.969751537E-2,-1.468469739E-2,3.543125553E-2
9.430336500E0,-6.107588511E-2,-2.076755583E-2,-6.981210038E-2,9.505411341E-2
9.440362500E0,-5.935105699E-2,-1.048639655E-2,-8.404320002E-2,1.034203652E-1
9.450389500E0,-2.642698450E-2,-1.224640846E-2,-6.280275062E-2,6.922821329E-2
9.460415500E0,2.638936132E-2,-2.371806085E-2,-1.051168576E-2,3.700595005E-2
9.470441500E0,5.362657805E-2,-3.162466586E-2,1.046482033E-1,1.217668913E-1
9.480467500E0,7.043439031E-2,-4.117492318E-2,9.654761687E-2,1.264034017E-1
9.490493500E0,4.357864045E-2,-4.992118835E-2,2.462043241E-2,7.069221062E-2
9.500519500E0,3.261995332E-2,-4.297294199E-2,-2.223886147E-2,5.835496601E-2
9.510546500E0,2.747999495E-2,-1.083781421E-2,-1.550096869E-2,3.335998156E-2
9.520572500E0,1.258640578E-2,-1.620029569E-2,-1.149387181E-2,2.351544769E-2
9.530598500E0,-8.807414258E-3,-1.131143868E-2,-2.117876127E-2,2.557457957E-2
9.540624500E0,-4.904607031E-2,-2.602010965E-2,-3.717016518E-2,6.681455155E-2
9.550650500E0,-4.461522387E-2,-7.289255977E-2,-1.135950279E-1,1.421536979E-1
9.560677500E0,-7.741032871E-2,-5.935450137E-2,-1.023338753E-1,1.413772890E-1
9.570703500E0,2.188158746E-2,3.117852330E-2,-8.289012909E-3,3.898220004E-2
9.580729500E0,-5.182286734E-2,-6.300433338E-2,2.790876031E-2,8.622096326E-2
9.590755500E0,-1.059366007E-1,-4.549835443E-2,-4.798736796E-2,1.248817485E-1
9.600781500E0,-5.205729500E-2,1.133775115E-3,-6.561160684E-2,8.376234453E-2
9.610808500E0,1.515343395E-2,-6.952924132E-3,-8.260727003E-2,8.427295400E-2
9.620834500E0,5.427065799E-2,2.419811726E-2,-9.555285931E-2,1.125220073E-1
9.630861292E0,4.619177939E-2,5.397447824E-2,-5.565803781E-2,9.024822413E-2
9.640887292E0,3.502349700E-2,7.106413543E-2,-6.228819564E-2,1.007798393E-1
9.650913292E0,2.741290729E-2,8.548863173E-2,-7.156407237E-3,9.006102267E-2
9.660939292E0,3.962433295E-2,8.064421356E-2,5.684078336E-3,9.003269233E-2
9.670966292E0,7.712833760E-3,4.360268712E-2,1.628230289E-2,4.717833736E-2
9.680992292E0,-2.469069036E-3,4.016861737E-2,7.184239984E-2,8.234649074E-2
9.691018292E0,5.717115104E-3,3.359693170E-2,1.090739608E-1,1.142740922E-1
9.701044292E0,3.194628099E-2,-4.360268712E-3,7.439587891E-2,8.108220280E-2
9.711070292E0,9.891844355E-5,3.186732531E-4,3.448921680E-2,3.449083086E-2
9.721097292E0,-6.867531943E-2,-4.874882162E-2,-5.487421855E-2,1.005182917E-1
9.731123292E0,-9.132931494E-2,-6.316980958E-2,-1.083420356E-1,1.551433701E-1
9.741149292E0,-8.209430477E-2,-4.430142939E-2,-1.281639504E-1,1.585184207E-1
9.751175292E0,1.888065934E-3,-4.343604147E-2,-1.319400823E-1,1.389188245E-1
9.761201292E0,3.580806543E-2,-3.182288647E-2,-1.108996077E-1,1.208041251E-1
9.771228292E0,3.018351906E-2,-3.591125965E-2,-1.055596380E-1,1.155140709E-1
9.781254292E0,1.163479884E-2,-2.709599733E-3,-6.778443217E-2,6.882906159E-2
9.791280292E0,-3.309958032E-2,-2.041379929E-2,-1.717517272E-2,4.251225678E-2
9.801306292E0,-3.463339635E-2,-3.474707901E-2,7.878976911E-3,4.968812655E-2
9.811332292E0,2.168988101E-3,-3.839866519E-3,4.653316543E-2,4.674167914E-2
9.821358292E0,1.667044837E-2,-1.941158652E-2,4.523230612E-2,5.196801956E-2
9.831385292E0,5.646759395E-2,-1.547933400E-2,-3.834457844E-3,5.867624745E-2
9.841411292E0,3.868816632E-2,-2.194810867E-2,-8.214168549E-3,4.523235847E-2
9.851437292E0,3.138656541E-2,-2.204517245E-2,-7.678709775E-3,3.911609260E-2
9.861463292E0,4.246086295E-2,5.716238022E-3,4.352521151E-3,4.306442499E-2
9.871489292E0,1.605965188E-3,2.044595897E-2,5.481793910E-2,5.852882034E-2
9.881516292E0,-2.726930332E-2,6.568645120E-2,3.736546218E-2,8.033991871E-2
9.891542292E0,-2.900553351E-2,6.916028202E-2,4.368513286E-2,8.679202968E-2
9.901568292E0,-2.061286043E-2,8.076232731E-2,1.051346916E-1,1.341668622E-1
9.911594292E0,-7.772265226E-3,8.647213340E-2,1.147627169E-1,1.439038538E-1
9.921620292E0,-4.662922421E-2,4.775537968E-2,5.552472129E-2,8.682082419E-2
9.931647292E0,-5.687292477E-2,1.998636782E-2,2.726103500E-2,6.616002191E-2
9.941673292E0,-1.662572631E-2,2.746437192E-2,-8.498854861E-2,9.085020580E-2
9.951699292E0,-3.275912619E-2,-2.888641477E-2,-1.142826605E-1,1.223442348E-1
9.961725292E0,-1.902271927E-2,-4.344832063E-2,-8.845770165E-2,1.003712379E-1
9.971751292E0,5.602389992E-2,-2.635223150E-2,-8.353376135E-2,1.039759912E-1
9.981777292E0,5.906878266E-2,-1.075244486E-2,-7.608630896E-2,9.692194058E-2
9.991804292E0,2.284299762E-2,-1.571205318E-2,-6.506328419E-2,7.072412675E-2
1.000183029E1,-2.697421080E-3,9.419864416E-4,-2.257025242E-3,3.641096247E-3
1.001185629E1,-5.771275853E-2,2.300002277E-2,6.897024751E-2,9.282595858E-2
1.002188229E1,-7.286678634E-2,3.222283602E-2,8.154746220E-2,1.140081940E-1
1.003190829E1,-4.661043090E-2,2.637737453E-2,9.879528657E-2,1.123779640E-1
1.004193529E1,-1.415337735E-2,4.722562194E-2,9.141478479E-2,1.038616403E-1
1.005196129E1,-1.776639931E-4,2.517401755E-2,7.313463449E-2,7.734621831E-2
1.006198729E1,3.709870124E-2,1.307145059E-2,-5.819002837E-3,3.976225910E-2
1.007201329E1,4.484574121E-2,4.699991941E-3,-1.003124928E-1,1.099810286E-1
1.008203929E1,-9.523935718E-3,-2.041672289E-2,-1.547616188E-1,1.563927958E-1
1.009206629E1,-4.417898504E-2,-3.282217562E-2,-1.116525829E-1,1.244804290E-1
1.010209229E1,-6.206445741E-2,-1.974663198E-2,-9.888007119E-2,1.184026808E-1
1.011211829E1,-3.157535738E-2,-9.097682834E-3,-5.691211939E-2,6.571727596E-2
1.012214429E1,-7.222252367E-3,1.136757195E-2,6.098499745E-3,1.478425921E-2
1.013217029E1,-3.287131051E-3,6.275231838E-3,4.586950645E-2,4.641331045E-2
1.014219629E1,4.101631746E-2,-2.283922434E-3,8.410868883E-2,9.360462668E-2
1.015222329E1,5.952668360E-2,-5.412182808E-3,8.401571810E-2,1.031084801E-1
1.016224929E1,4.246811715E-2,5.517432690E-3,3.943713069E-2,5.821743995E-2
1.017227529E1,4.011812118E-2,-3.360979557E-3,-2.324122041E-3,4.032569124E-2
1.018230129E1,3.638524957E-2,-1.006539702E-2,-3.278168365E-2,4.999837384E-2
1.019232729E1,2.529275257E-2,-2.252932191E-2,-1.993432760E-2,3.930230394E-2
1.020235429E1,3.656711625E-2,6.278155446E-3,-3.441729605E-2,5.060750433E-2
1.021238029E1,5.603870982E-2,4.761972427E-3,-1.548752010E-2,5.833418088E-2
1.022240629E1,3.539725285E-2,-2.117335260E-2,3.710350692E-2,5.547924473E-2
1.023243229E1,2.336370131E-2,-2.994300663E-2,6.489473820E-2,7.519157686E-2
1.024245829E1,1.011936500E-2,-3.743445933E-2,1.979911074E-2,4.354015479E-2
1.025248529E1,-2.428311202E-2,-5.761378527E-2,-2.722931385E-2,6.819423227E-2
1.026251129E1,-3.521493849E-2,-3.700878203E-2,-7.043322086E-2,8.700908252E-2
1.027253729E1,4.867213173E-3,-1.124887347E-2,-5.244426191E-2,5.385747419E-2
1.028256329E1,-1.187821660E-2,3.434829891E-2,2.362786755E-2,4.334943820E-2
1.029258929E1,-2.757837435E-2,5.348857462E-2,4.371086061E-2,7.437898683E-2
1.030261529E1,-3.019437295E-2,2.962140977E-2,4.303448394E-2,6.034148559E-2
1.031264229E1,-1.034723282E-2,4.647483945E-2,2.637108877E-2,5.442802818E-2
1.032266829E1,2.307056394E-2,2.290646732E-2,-5.608064532E-3,3.299102232E-2
1.033269429E1,2.815497377E-2,3.586097360E-3,-3.489896044E-2,4.498333116E-2
1.034272029E1,1.728586782E-2,1.453910172E-2,-6.936142623E-2,7.294651571E-2
1.035274629E1,1.103826407E-3,-3.382614255E-3,-7.598866045E-2,7.607192011E-2
1.036277329E1,-1.653477469E-2,1.497238040E-2,-3.944473207E-2,4.531509502E-2
1.037279929E1,1.855676928E-2,3.128143430E-2,-6.027996942E-2,7.040281622E-2
1.038282529E1,2.721609366E-2,2.951499045E-2,-5.367743969E-2,6.703072390E-2
1.039285129E1,1.839734129E-2,2.113709986E-2,-2.340947405E-2,3.651359517E-2
1.040287729E1,-1.727660364E-2,-7.346441746E-3,7.473911047E-3,2.020669656E-2
1.041290429E1,-9.149156604E-3,-5.227410793E-3,3.754555643E-2,3.899617542E-2
1.042293029E1,-3.798424378E-3,-1.484783471E-2,5.382990584E-2,5.596914316E-2
1.043295629E1,-1.732474267E-2,9.177789688E-3,4.775757238E-2,5.162522883E-2
1.044298229E1,-2.372387152E-2,1.603306532E-3,2.189533755E-2,3.232334262E-2
1.045300829E1,-5.310223812E-2,-1.762935519E-3,1.733114719E-3,5.315975284E-2
1.046303429E1,-6.960626012E-3,1.465721548E-2,6.776922941E-4,1.624018309E-2
1.047306129E1,-6.916305944E-3,2.626101494E-2,2.074299753E-4,2.715730511E-2
1.048308729E1,-2.387045391E-2,-5.342600942E-3,-5.321609437E-2,5.856871738E-2
1.049311329E1,-3.652223887E-2,-5.593446493E-3,-8.019573212E-2,8.829788234E-2
1.050313929E1,-1.107333823E-2,1.872219980E-2,-2.823752001E-2,3.564403346E-2
1.051316529E1,3.052435691E-2,3.472544432E-2,3.614675626E-2,5.868714371E-2
1.052319229E1,4.088665545E-2,1.215285301E-2,5.924676642E-2,7.300403935E-2
1.053321829E1,3.650799542E-2,1.321470737E-2,4.630527020E-2,6.042880330E-2
1.054324429E1,4.093246473E-2,-1.313869357E-3,-3.799930036E-2,5.586716164E-2
1.055327029E1,1.580846828E-2,-4.899966717E-4,-3.877069429E-2,4.187259846E-2
1.056329629E1,-2.291690094E-2,2.289769650E-2,-5.979508907E-3,3.294303235E-2
1.057332229E1,-3.439267379E-2,1.024081349E-2,2.289828122E-2,4.256831632E-2
1.058334929E1,-1.915463794E-2,1.727267504E-2,3.484765112E-2,4.335440285E-2
1.059337529E1,-2.083299897E-2,2.964479864E-2,4.517427251E-2,5.790978181E-2
1.060340129E1,2.497908600E-2,2.916123390E-2,3.836869821E-2,5.428157424E-2
1.061342729E1,3.352060726E-2,2.119849563E-2,-1.183125615E-2,4.138823444E-2
1.062345329E1,1.817827170E-2,1.709959745E-2,-2.124819696E-2,3.277699909E-2
1.063348013E1,3.419040581E-2,3.486051500E-2,5.867242366E-3,4.917991347E-2
1.064350613E1,2.562700317E-2,5.351371765E-3,-1.572784066E-2,3.054088151E-2
1.065353213E1,5.782137970E-3,-1.392280519E-2,-6.139693379E-2,6.322073317E-2
1.066355813E1,-2.774192280E-2,-3.684330583E-2,-7.931689560E-2,9.175082230E-2
1.067358413E1,1.169029257E-2,-1.181488395E-2,-4.948893294E-2,5.220544901E-2
1.068361112E1,-3.641581041E-2,-3.612409830E-2,-2.236282244E-2,5.595674717E-2
1.069363712E1,-3.526178931E-2,-5.247232854E-2,1.068564042E-2,6.411647183E-2
1.070366312E1,-2.734137939E-2,-2.279244661E-2,-2.860823348E-2,4.566703048E-2
1.071368913E1,-6.954614343E-3,-1.208327115E-2,-1.121275230E-1,1.129909444E-1
1.072371513E1,-2.772695758E-2,-4.563167095E-3,-1.043125731E-1,1.080311047E-1
1.073374213E1,-2.594584088E-2,5.872358680E-3,1.088239923E-2,2.874191831E-2
1.074376813E1,3.365458159E-2,3.565105855E-2,7.942740798E-2,9.333992702E-2
1.075379413E1,4.588877485E-2,3.329170704E-2,1.208848979E-1,1.335188224E-1
1.076382013E1,6.185901001E-2,2.015242875E-2,4.761051491E-2,8.061897192E-2
1.077384612E1,3.567189840E-2,2.444720864E-3,-1.623201683E-2,3.926753577E-2
1.078387212E1,-8.065694952E-3,-2.157739520E-2,-7.640922144E-2,7.980606831E-2
1.079389912E1,-7.702653210E-2,-3.475818872E-2,-8.869539097E-2,1.225075129E-1
1.080392512E1,-8.066545540E-2,-4.752675354E-2,-6.320123836E-2,1.129606326E-1
1.081395113E1,-4.606251938E-2,-1.984311104E-2,-1.148904786E-2,5.145389167E-2
1.082397713E1,1.792929908E-3,9.674218297E-3,-1.273684368E-2,1.609447993E-2
1.083400313E1,4.610366916E-2,3.636968136E-2,1.672435239E-2,6.105739918E-2
1.084403013E1,8.338748960E-2,4.236424685E-2,5.894738898E-2,1.105576659E-1
1.085405613E1,8.724381055E-2,6.607236743E-2,8.377539754E-2,1.378236462E-1
1.086408213E1,5.072387402E-2,7.497592270E-2,9.905987307E-2,1.341907554E-1
1.087410812E1,2.892147979E-2,4.099190533E-2,6.006800786E-2,7.826208446E-2
1.088413412E1,-5.635005578E-2,2.952259183E-3,2.289711177E-2,6.089599616E-2
1.089416112E1,-6.559831356E-2,-4.080771804E-3,1.035132587E-2,6.653526424E-2
1.090418713E1,-3.140375074E-2,3.995987177E-3,-1.402600855E-3,3.168802239E-2
1.091421313E1,2.685091677E-2,-1.692125738E-2,9.314029813E-3,3.307645437E-2
1.092423913E1,4.350302864E-2,-5.614788830E-2,-4.512705624E-2,8.415194630E-2
1.093426513E1,9.830793028E-2,-3.421088934E-2,-6.494955584E-2,1.226918046E-1
1.094429113E1,6.386384667E-2,-2.512723982E-2,-2.947274432E-2,7.469010477E-2
1.095431813E1,4.602732645E-2,-3.854543030E-2,-5.935508609E-3,6.032822921E-2
1.096434413E1,3.340463139E-2,-1.417891324E-2,2.015169784E-2,4.150905811E-2
1.097437012E1,5.266696773E-4,-3.232984006E-2,-3.397817016E-2,4.690428538E-2
1.098439612E1,-3.144834490E-2,-5.484980643E-2,-1.171198757E-1,1.330960741E-1
1.099442212E1,-1.562948867E-2,-5.388267696E-2,-1.502015215E-1,1.603375217E-1
1.100444913E1,2.262954684E-2,-3.437636554E-2,-1.150340277E-1,1.221747045E-1
1.101447513E1,4.400403452E-2,-2.222234309E-2,-6.865318224E-2,8.451891515E-2
1.102450113E1,2.132421990E-2,-3.419744074E-2,-1.146631680E-1,1.215394151E-1
1.103452713E1,-2.811369608E-2,-2.646274388E-2,-9.815530881E-2,1.054756909E-1
1.104455313E1,-2.343209546E-2,8.686623573E-3,-2.969201490E-2,3.880897159E-2
1.105457913E1,-3.258841490E-2,2.877297878E-2,4.255355045E-2,6.083332763E-2
1.106460613E1,-1.409410120E-2,4.844301224E-2,6.918293998E-2,8.562504486E-2
1.107463212E1,-2.379128809E-2,4.500075638E-2,9.649353012E-2,1.090967223E-1
1.108465812E1,1.164585373E-2,5.108127594E-2,7.775086507E-2,9.375563813E-2
1.109468412E1,4.771548157E-2,6.609692574E-2,1.073769526E-1,1.348160997E-1
1.110471013E1,8.859728565E-2,4.974635661E-2,8.624043748E-2,1.332726231E-1
1.111473713E1,6.490709044E-2,5.862535357E-2,4.969417021E-2,1.005950944E-1
1.112476313E1,3.793566621E-2,5.293367386E-2,3.771863401E-2,7.525811551E-2
1.113478913E1,3.112988178E-2,5.472876906E-2,1.002548978E-2,6.375592638E-2
1.114481513E1,2.956382384E-2,4.955749154E-2,-5.569750652E-2,8.020085336E-2
1.115484113E1,2.746340347E-2,1.993257344E-2,-8.431684971E-2,9.088936769E-2
1.116486812E1,1.600912828E-2,-8.419405818E-3,-6.910868034E-2,7.143660323E-2
1.117489412E1,-1.988226911E-2,-3.016052306E-2,-4.290628374E-2,5.608842091E-2
1.118492012E1,-3.913864860E-2,-1.200550318E-2,-5.334414840E-3,4.128464488E-2
1.119494613E1,-2.469655585E-2,2.587977648E-3,2.583299875E-2,3.583240605E-2
1.120497213E1,1.450315962E-2,-1.591378212E-2,-7.548609227E-3,2.281603825E-2
1.121499813E1,9.092091434E-3,-1.726916671E-2,-4.639049336E-2,5.032860141E-2
1.122502513E1,1.892807661E-3,-7.200846076E-3,-3.297581121E-2,3.380590230E-2
1.123505113E1,-4.649550570E-3,-1.167630494E-2,1.290246606E-2,1.801188629E-2
1.124507713E1,2.843217747E-3,-1.481859863E-2,4.057499886E-2,4.328978268E-2
1.125510313E1,-4.736569016E-2,1.020514548E-2,3.677138507E-2,6.082588560E-2
1.126512912E1,-8.330419418E-2,-2.465770841E-3,-9.899482280E-3,8.392656638E-2
1.127515612E1,-8.874092616E-2,-2.120785117E-2,-7.201664686E-2,1.162373535E-1
1.128518212E1,-5.648946620E-2,-3.124752045E-3,-1.024109124E-1,1.169992258E-1
1.129520813E1,-1.568687361E-2,-1.762935519E-3,-5.635195613E-2,5.852118339E-2
1.130523413E1,2.217006532E-2,-1.335094750E-2,-6.076718867E-4,2.588684725E-2
1.131526013E1,3.894157003E-2,2.000624835E-2,-6.288402691E-2,7.662308197E-2
1.132528713E1,3.374655646E-2,1.457476974E-2,-8.258899748E-2,9.040020183E-2
1.133531313E1,3.561330747E-2,1.468060434E-2,-1.154953730E-1,1.217497803E-1
1.134533913E1,-1.572474346E-2,9.911030531E-3,-1.016515052E-1,1.033369469E-1
1.135536512E1,-4.967817259E-2,2.067575455E-3,-2.216971815E-2,5.443980256E-2
1.136539112E1,-9.376340118E-2,-8.108918667E-3,4.389504790E-3,9.421569782E-2
1.137541712E1,-5.049481848E-2,-2.607741237E-2,-1.291123688E-2,5.827914007E-2
1.138544412E1,-1.727376225E-2,7.420116663E-4,2.420981169E-2,2.974976346E-2
1.139547013E1,-2.533012907E-2,2.656682432E-2,5.521628067E-2,6.630421739E-2
1.140549613E1,5.819688058E-3,1.055480897E-2,2.639769360E-2,2.901914866E-2
1.141552213E1,3.658829413E-2,2.936062396E-2,-6.139722615E-3,4.731221513E-2
1.142554813E1,4.718162164E-2,3.244736910E-2,1.353352681E-2,5.883955753E-2
1.143557513E1,3.276160212E-2,3.764963686E-2,4.027167454E-2,6.412975519E-2
1.144560113E1,7.515042555E-3,4.016686320E-2,1.159913631E-1,1.229790595E-1
1.145562712E1,-4.940689833E-2,3.410563946E-2,1.417435241E-1,1.539333065E-1
1.146565312E1,-7.909611753E-2,2.565582812E-2,1.626905894E-1,1.827091821E-1
1.147567912E1,-6.563913443E-2,3.208542645E-2,1.297368515E-1,1.488946647E-1
1.148570613E1,-7.860711671E-2,7.805448174E-3,4.515219927E-2,9.098749869E-2
1.149573213E1,-3.092410547E-2,-8.013024330E-3,-2.855546236E-2,4.284767542E-2
1.150575813E1,-2.183766025E-2,-1.247211099E-2,-4.949668050E-2,5.551899079E-2
1.151578413E1,-1.267977851E-2,1.025601625E-3,-1.149270236E-1,1.156289298E-1
1.152581013E1,-1.307743485E-2,-4.023235202E-2,-1.580414683E-1,1.636055230E-1
1.153583613E1,2.985356251E-2,-3.972656786E-2,-1.495839094E-1,1.576222742E-1
1.154586313E1,7.818655573E-2,-1.083898365E-2,-1.156352676E-1,1.400076290E-1
1.155588912E1,2.795723738E-2,3.134283006E-2,-3.492249548E-2,5.462198101E-2
1.156591512E1,-1.898901556E-3,3.988210380E-2,7.879123092E-2,8.833032379E-2
1.157594112E1,-3.038724884E-4,3.554463923E-2,1.456613047E-1,1.499357510E-1
1.158596713E1,1.080581898E-2,2.666681170E-2,8.514715433E-2,8.987726331E-2
1.159599413E1,-1.281507759E-2,2.140256345E-2,3.645271182E-2,4.417121387E-2
1.160602013E1,-4.724655314E-2,8.560323715E-3,2.716601774E-2,5.516800201E-2
1.161604613E1,-2.354565022E-2,-2.292108536E-3,7.675639987E-3,2.487100430E-2
1.162607213E1,2.404250823E-2,-3.056924343E-3,2.433260322E-2,3.434330455E-2
1.163609813E1,3.203452826E-2,-2.653466463E-3,-2.114060819E-2,3.847307110E-2
1.164612513E1,6.128366226E-2,-1.379124284E-2,-2.435584590E-2,6.737279027E-2
1.165615112E1,7.592885440E-2,-1.320008934E-2,-9.601128101E-4,7.707369918E-2
1.166617712E1,5.598628588E-2,1.958583355E-2,6.585353538E-2,8.862706813E-2
1.167620313E1,6.507158906E-2,-1.911688685E-2,4.121570751E-2,7.936309981E-2
1.168622913E1,9.836666739E-2,3.401325345E-3,5.149759769E-2,1.110836299E-1
1.169625513E1,6.388197304E-2,1.479696393E-2,4.349261329E-2,7.868585661E-2
1.170628213E1,3.387605402E-2,8.058632612E-3,2.122641608E-2,4.078099232E-2
1.171630813E1,-1.862768504E-2,1.898941755E-2,-3.194333911E-2,4.156880492E-2
1.172633413E1,-2.953292496E-2,1.302116454E-2,-5.936400309E-2,6.757092012E-2
1.173636013E1,-3.756552832E-3,2.543948114E-2,-4.229349554E-2,4.949766312E-2
1.174638612E1,3.210608357E-2,6.600921750E-3,2.498515248E-3,3.287271434E-2
1.175641312E1,4.147276573E-2,1.904028833E-2,1.446718097E-2,4.787297987E-2
1.176643912E1,3.694103655E-2,5.879375339E-3,2.333214462E-2,4.408623604E-2
1.177646513E1,2.531671702E-2,-7.110798955E-3,1.126568422E-2,2.860795804E-2
1.178649113E1,-1.186443910E-2,-2.904019654E-2,-2.714642957E-2,4.148525724E-2
1.179651713E1,-2.847912879E-2,-3.043592691E-2,-2.175047278E-2,4.701584297E-2
1.180654413E1,-3.625396131E-2,-2.254452467E-2,-2.379948333E-2,4.887760949E-2
1.181657013E1,-4.481760149E-2,4.256772995E-4,-1.082509652E-2,4.610836496E-2
1.182659613E1,-4.705185913E-2,-1.823688090E-2,4.297937393E-2,6.628489916E-2
1.183662213E1,2.136572599E-3,-2.132771909E-2,2.136338711E-2,3.026269738E-2
1.184664812E1,4.862172690E-2,-1.484315693E-2,5.958064243E-2,7.832141845E-2
1.185667412E1,3.541826628E-2,1.520276070E-3,7.361746833E-2,8.170860707E-2
1.186670112E1,1.061100620E-2,1.029811621E-2,1.055773258E-2,1.816893963E-2
1.187672713E1,1.012728615E-3,-3.902431726E-3,-2.530514136E-2,2.562430042E-2
1.188675313E1,1.772513989E-2,2.740823865E-2,1.032793701E-2,3.423533866E-2
1.189677913E1,1.131378670E-2,2.126573861E-2,4.916163504E-2,5.474577397E-2
1.190680513E1,9.976811707E-3,1.120384991E-2,3.891044274E-2,4.170234500E-2
1.191683213E1,-3.122136329E-2,9.326308966E-4,1.956346795E-2,3.685610675E-2
1.192685813E1,-1.126157289E-2,-5.040299892E-4,2.037462294E-2,2.328523846E-2
1.193688412E1,-1.718858477E-2,-5.817979574E-3,-1.321763098E-2,2.244999112E-2
1.194691012E1,8.241878869E-3,-1.309016168E-2,-8.861016780E-3,1.782690434E-2
1.195693612E1,-1.100171898E-2,4.356760383E-3,-2.467364207E-2,2.736435262E-2
1.196696312E1,-6.506799851E-3,-1.404208839E-2,-6.539409041E-2,6.720048922E-2
1.197698913E1,2.220084543E-2,6.864631176E-4,-1.192671195E-2,2.521101401E-2
1.198701513E1,2.322241796E-2,4.737063289E-2,1.016640767E-2,5.372721285E-2
1.199704113E1,1.432823651E-3,3.740463853E-2,2.073188782E-2,4.278984856E-2
1.200706713E1,-4.774169354E-3,3.251051903E-2,1.908531189E-3,3.291457172E-2
1.201709313E1,3.815838117E-2,3.942426682E-2,4.276361167E-2,6.956336213E-2
1.202712013E1,3.777356129E-3,2.671358943E-2,4.926264569E-2,5.616664971E-2
1.203714612E1,1.276187707E-2,1.828541279E-2,6.045611680E-2,6.443728645E-2
1.204717212E1,-1.770600853E-3,7.329484820E-3,1.109411229E-1,1.111970734E-1
1.205719812E1,3.289287211E-2,3.331801951E-2,1.027730012E-1,1.129350310E-1
1.206722413E1,1.039909945E-2,1.963378072E-2,5.257757843E-2,5.707914127E-2
1.207725113E1,-9.534725659E-3,6.554728746E-3,2.948750854E-3,1.194029287E-2
1.208727713E1,-7.806133395E-3,4.397106171E-3,7.743467689E-3,1.184194043E-2
1.209730313E1,-2.621899721E-2,-1.328545868E-2,-8.111842275E-3,3.049165808E-2
1.210732913E1,-3.594656222E-2,-2.899166465E-2,-8.013068184E-2,9.248566444E-2
1.211735513E1,1.291841799E-3,-2.634170651E-2,-8.553438619E-2,8.950801963E-2
1.212738112E1,2.993524994E-2,-7.309019566E-5,-1.093272914E-1,1.133515821E-1
1.213740812E1,3.591186265E-3,-9.263159037E-3,-8.026662961E-2,8.087913552E-2
1.214743412E1,-3.641691590E-3,-1.251713455E-2,-3.186191663E-2,3.442560539E-2
1.215746012E1,8.174252165E-3,1.595822096E-2,-2.445714891E-2,3.032549006E-2
1.216748613E1,-1.803934551E-2,5.370082855E-3,1.462154746E-2,2.383370358E-2
1.217751213E1,-3.429108756E-3,4.781268239E-3,8.384614885E-2,8.405234077E-2
1.218753913E1,8.493619775E-3,1.959343493E-2,1.399718177E-1,1.415915041E-1
1.219756513E1,1.243081503E-4,5.692264438E-3,1.557739180E-1,1.558779358E-1
1.220759113E1,-3.065222821E-2,1.482386112E-2,9.371200964E-2,9.970580075E-2
1.221761713E1,-6.105079690E-2,-6.681028605E-3,2.265737593E-2,6.546138273E-2
1.222764312E1,-2.831303132E-2,3.184393644E-3,-1.138409033E-2,3.068168212E-2
1.223767012E1,-2.989875966E-2,1.073724210E-2,-7.024567142E-2,7.709525634E-2
1.224769612E1,-2.760923669E-2,-1.499284565E-2,-9.774337247E-2,1.026685065E-1
1.225772213E1,1.545653899E-2,-2.473956943E-3,-9.403565302E-2,9.532958146E-2
1.226774813E1,6.615351582E-2,6.204714417E-2,-6.005514398E-2,1.087784725E-1
1.227777413E1,7.623292789E-2,6.862175345E-2,5.035622120E-3,1.026925598E-1
1.228780013E1,4.350264492E-2,8.778541803E-2,2.757605374E-2,1.017801477E-1
1.229782713E1,-1.672275354E-2,5.532576978E-2,3.195269465E-2,6.604215308E-2
1.230785313E1,-5.562588726E-2,-1.890404820E-3,3.623826519E-2,6.641554658E-2
1.231787913E1,-2.843487267E-2,-2.473606110E-2,3.225660369E-2,4.960749121E-2
1.232790512E1,4.107454293E-2,-3.158315063E-2,5.227220759E-2,7.360025249E-2
1.233793112E1,5.171548870E-2,-3.226902902E-2,3.027088925E-2,6.805959699E-2
1.234795812E1,4.909928910E-2,-4.702506244E-2,-5.664314747E-2,8.849035452E-2
1.235798413E1,7.104175156E-3,-5.346109271E-2,-4.849929169E-2,7.253095224E-2
1.236801013E1,2.370264796E-2,-4.046273232E-2,3.552768230E-2,5.883251173E-2
1.237803613E1,2.020525469E-2,-1.399998844E-2,1.570328236E-2,2.916924870E-2
1.238806213E1,2.296021602E-2,-1.516299963E-2,-3.075766996E-2,4.126890280E-2
1.239808813E1,1.494551975E-2,3.323557377E-3,-1.058462977E-2,1.861314003E-2
1.240811513E1,-4.903539000E-3,4.087496102E-2,6.182553470E-2,7.427788281E-2
1.241814113E1,-8.858394669E-3,2.744449139E-2,4.694729447E-2,5.509736584E-2
1.242816712E1,-3.753638361E-3,8.697733283E-3,4.571499377E-3,1.051850616E-2
1.243819312E1,-3.400419940E-2,-1.707211554E-2,-1.256040394E-2,4.006877155E-2
1.244821912E1,1.152720094E-2,-4.622808695E-2,-2.838121533E-2,5.545634110E-2
1.245824613E1,5.544982212E-2,-4.374769807E-2,-4.028614640E-2,8.131123816E-2
1.246827213E1,4.427400229E-2,-7.147987247E-2,-3.515053689E-2,9.113242941E-2
1.247829813E1,-1.142034307E-4,-6.695822060E-2,-3.753503144E-2,7.676128538E-2
1.248832413E1,-2.418723595E-2,-6.447139978E-2,-1.939243689E-2,7.153775494E-2
1.249835013E1,-2.519385240E-2,-5.167184472E-2,-2.918476894E-2,6.447061714E-2
1.250837713E1,-2.988308181E-2,-3.507043004E-2,-6.558646381E-2,8.015309025E-2
1.251840312E1,-2.333866792E-2,1.673473120E-3,-3.113861606E-2,3.895006216E-2
1.252842912E1,9.175596982E-3,2.775965631E-2,3.091890693E-2,4.255313037E-2
1.253845512E1,5.768762464E-3,4.607138157E-2,9.092113361E-2,1.020906624E-1
1.254848113E1,-2.847156395E-2,4.435814738E-2,1.445332307E-1,1.538444993E-1
1.255850713E1,-3.442435839E-2,3.570368350E-2,1.024223144E-1,1.137985938E-1
1.256853413E1,-3.023185909E-2,4.543461978E-2,5.552530602E-2,7.785454121E-2
1.257856013E1,-2.855160685E-2,4.379330635E-2,4.135735631E-2,6.665942436E-2
1.258858613E1,-3.401791295E-2,4.990013838E-2,4.823485136E-2,7.729064043E-2
1.259861213E1,-1.858380351E-2,3.204449594E-2,4.787290871E-2,6.053117264E-2
1.260863813E1,-2.172294519E-2,4.609535515E-2,4.731318399E-2,6.953564190E-2
1.261866512E1,-4.446982920E-2,5.517198801E-2,2.706442237E-2,7.585510483E-2
1.262869112E1,-1.285341340E-2,5.089358032E-2,5.930056080E-2,7.919547503E-2
1.263871754E1,7.670633309E-3,4.585620403E-2,3.457312435E-3,4.662170174E-2
1.264874354E1,-1.074529116E-2,8.024134040E-3,-4.751447439E-2,4.937077360E-2
1.265876954E1,-4.445482744E-3,-9.002373219E-3,-7.303581655E-2,7.372269352E-2
1.266879554E1,3.103737700E-2,-2.107161105E-2,-1.072076757E-1,1.135817648E-1
1.267882254E1,3.779235461E-2,-6.632730603E-2,-1.207157671E-1,1.428281136E-1
1.268884854E1,3.809214318E-3,-9.061313152E-2,-1.460875668E-1,1.719500709E-1
1.269887454E1,8.952589659E-3,-5.954395115E-2,-1.334398931E-1,1.463961614E-1
1.270890054E1,1.060447376E-4,-4.956509292E-2,-5.905921698E-2,7.710188579E-2
1.271892654E1,-9.311499065E-3,-2.892032862E-2,8.572018147E-3,3.156847981E-2
1.272895354E1,-2.250699285E-2,-3.560135722E-2,3.693803072E-2,5.602177681E-2
1.273897954E1,-9.319557259E-3,-2.073130310E-2,-1.757234484E-3,2.279756453E-2
1.274900554E1,2.117898054E-3,-1.066298246E-2,8.863648027E-3,1.402672248E-2
1.275903154E1,-7.065254627E-3,-1.224699318E-2,2.304431543E-2,2.703603408E-2
1.276905754E1,-9.468231853E-3,-3.607790530E-2,-3.263287202E-2,4.955973165E-2
1.277908454E1,4.602434803E-3,-4.096149981E-2,-8.681726530E-2,9.610548594E-2
1.278911054E1,-3.522827745E-2,-4.692156672E-2,-8.687149823E-2,1.048299679E-1
1.279913654E1,-4.167475048E-2,-3.007690787E-2,-8.457193449E-2,9.896371718E-2
1.280916254E1,-1.736722634E-2,-7.100858688E-3,-5.660060897E-2,5.962945314E-2
1.281918854E1,1.464225939E-2,2.681591570E-2,-9.053185523E-2,9.554844795E-2
1.282921454E1,1.832778683E-2,4.693910837E-2,-5.932453439E-2,7.783693240E-2
1.283924154E1,3.977506321E-2,4.978085518E-2,3.132835820E-2,7.100461410E-2
1.284926754E1,3.128518017E-2,4.401550055E-2,3.192521274E-2,6.273233612E-2
1.285929354E1,1.686382676E-2,1.980334997E-2,3.782096028E-2,4.590192109E-2
1.286931954E1,3.474257483E-2,1.027589679E-2,4.139258578E-2,5.500896944E-2
1.287934554E1,-8.393952157E-4,-1.933674216E-3,2.796723247E-3,3.502190917E-3
1.288937254E1,-3.242060895E-2,-5.612566888E-2,-6.451393828E-2,9.145072348E-2
1.289939854E1,-4.066456175E-2,-6.512511849E-2,-1.131173104E-1,1.367128873E-1
1.290942454E1,-4.418259387E-2,-3.648136318E-2,-6.935426340E-2,8.996113223E-2
1.291945054E1,-5.954203254E-2,-5.080236375E-2,-2.603180408E-2,8.248508123E-2
1.292947654E1,-1.012755201E-1,-4.380090773E-2,-1.330095381E-3,1.103495340E-1
1.293950254E1,-4.501332790E-2,-1.182657838E-2,4.584743321E-2,6.533035111E-2
1.294952954E1,3.696932246E-2,8.940392733E-3,1.597576261E-2,4.125392607E-2
1.295955554E1,5.552430103E-2,3.681114614E-2,-3.960085273E-2,7.749990982E-2
1.296958154E1,7.936342665E-2,7.029347241E-2,-4.993054390E-2,1.171869659E-1
1.297960754E1,6.130314994E-2,5.371076882E-2,-4.168874726E-2,9.154711643E-2
1.298963354E1,-4.943601564E-3,3.898981869E-2,1.754749417E-3,3.934112738E-2
1.299966054E1,-4.811790705E-2,3.465878606E-2,4.378468171E-2,7.371338265E-2
1.300968654E1,-7.340916127E-2,2.023136616E-2,7.725560591E-2,1.084741526E-1
1.301971254E1,-2.890275956E-2,2.174228668E-2,9.115575314E-2,9.806868955E-2
1.302973854E1,1.615547312E-2,3.516749382E-2,9.678413674E-2,1.042349320E-1
1.303976454E1,2.084240933E-2,5.919136405E-2,6.086483717E-2,8.742169072E-2
1.304979054E1,1.307526955E-2,4.858217597E-2,6.243817672E-2,8.018551246E-2
1.305981754E1,2.413696817E-2,3.197199047E-2,3.104462206E-2,5.068106122E-2
1.306984354E1,3.817633395E-2,1.078285038E-2,-2.672820747E-2,4.783408211E-2
1.307986954E1,2.138269206E-2,-1.901689947E-2,-4.136261880E-2,5.029640364E-2
1.308989554E1,-2.461306857E-2,-2.926706851E-2,-6.153960586E-2,7.245334728E-2
1.309992154E1,-2.778592310E-2,-3.931960166E-2,-4.479610384E-2,6.576305586E-2
1.310994854E1,-1.997550479E-2,-3.322446406E-2,-3.097445548E-2,4.962159505E-2
1.311997454E1,-5.128103144E-2,-2.335085571E-2,-1.465034500E-2,5.822060852E-2
1.313000054E1,-6.724597670E-2,-2.456356823E-2,-2.988219559E-2,7.757793424E-2
1.314002654E1,-3.872364247E-2,-4.726772189E-2,-8.251649201E-2,1.026777944E-1
1.315005254E1,-5.222659931E-3,-3.161531031E-2,-7.008589625E-2,7.706384935E-2
1.316007954E1,-7.308343481E-3,-7.745221853E-3,-5.201741517E-2,5.309625059E-2
1.317010554E1,-5.970171634E-2,-2.623587191E-2,-4.235313714E-2,7.775862739E-2
1.318013154E1,-5.480913173E-2,-3.704912782E-2,-5.783174023E-2,8.787029630E-2
1.319015754E1,-8.317371905E-3,7.293816805E-3,-4.427584782E-2,4.563692737E-2
1.320018354E1,2.057349223E-2,3.080664039E-2,-4.782583863E-3,3.735225271E-2
1.321020954E1,3.938507220E-2,3.119723439E-2,1.920167148E-2,5.378806125E-2
1.322023654E1,6.502010616E-2,6.057949305E-2,3.501722038E-2,9.551803445E-2
1.323026254E1,5.775151460E-2,7.399300575E-2,2.256674409E-2,9.653735173E-2
1.324028854E1,1.307889665E-2,6.525960445E-2,-9.222813249E-3,6.719325707E-2
1.325031454E1,1.180826928E-3,7.500340462E-2,2.748819932E-2,7.989058867E-2
1.326034054E1,6.918078382E-3,8.555353582E-2,4.186591789E-2,9.549880827E-2
1.327036754E1,-1.964637050E-3,6.849954665E-2,4.250399530E-2,8.063893170E-2
1.328039354E1,-4.183150155E-2,5.096725523E-2,1.931379184E-2,6.870631836E-2
1.329041954E1,-3.920119554E-2,4.706189990E-2,5.955827683E-3,6.153883357E-2
1.330044554E1,-1.140249993E-2,2.512665510E-2,3.493535936E-2,4.451791925E-2
1.331047154E1,-5.227091024E-3,-2.806663513E-3,-3.210647643E-2,3.265004853E-2
1.332049754E1,2.261441717E-2,-1.612077355E-2,-1.112989725E-1,1.147116057E-1
1.333052454E1,4.775859565E-2,-3.931024611E-2,-1.067537856E-1,1.233796971E-1
1.334055054E1,4.749414618E-2,-2.185455322E-2,-1.094440895E-1,1.212902476E-1
1.335057654E1,3.792722429E-2,-2.883437455E-2,-4.904059768E-2,6.837306281E-2
1.336060254E1,-3.596858064E-2,-2.259305656E-2,1.393844649E-2,4.470419766E-2
1.337062854E1,-3.972965593E-2,-1.194176853E-2,4.102216467E-2,5.834268926E-2
1.338065554E1,-2.772851989E-2,-4.845587611E-3,3.729061782E-2,4.672195107E-2
1.339068154E1,1.469754299E-2,-1.927183807E-2,1.796615481E-2,3.016959117E-2
1.340070754E1,4.140599784E-2,-1.120911241E-2,1.015076637E-3,4.290840522E-2
1.341073354E1,3.614730444E-2,-1.137400389E-2,6.964033842E-3,3.852912340E-2
1.342075954E1,3.169714392E-2,2.683871984E-4,2.415484786E-2,3.985269928E-2
1.343078554E1,2.350982688E-2,4.043934345E-3,-3.290052831E-2,4.063877617E-2
1.344081254E1,-2.365848321E-2,-9.243278503E-3,-1.663474381E-2,3.036242294E-2
1.345083854E1,-1.657973430E-2,8.368535042E-3,3.906232417E-2,4.325257377E-2
1.346086454E1,-1.311647415E-2,3.922896981E-3,2.410807014E-2,2.772417827E-2
1.347089054E1,-3.074006435E-2,-7.100273967E-3,-3.449447930E-2,4.674649237E-2
1.348091654E1,-4.508598869E-2,9.964824915E-3,6.274062395E-4,4.617832554E-2
1.349094354E1,-1.155152170E-2,1.506301224E-2,-1.759602606E-2,2.588343340E-2
1.350096954E1,2.019558851E-2,3.467398882E-2,-1.048415999E-1,1.122582218E-1
1.351099554E1,-4.089094950E-3,1.362050414E-2,-8.254061177E-2,8.375673956E-2
1.352102154E1,-2.115970301E-3,7.985542417E-3,-6.870478392E-3,1.074475180E-2
1.353104754E1,-3.958126456E-3,8.286089301E-3,6.109039351E-2,6.177671261E-2
1.354107354E1,-4.589530729E-2,-1.576526284E-2,1.394746582E-1,1.476756684E-1
1.355110054E1,-1.692704977E-3,-3.905940056E-3,1.170407921E-1,1.171181823E-1
1.356112654E1,2.313798051E-2,-1.842633069E-2,8.391280711E-2,8.897333871E-2
1.357115254E1,3.398584463E-3,-4.409326851E-2,-7.562204003E-3,4.486595183E-2
1.358117854E1,-9.311133614E-3,-3.854133725E-2,-7.177851900E-2,8.200175411E-2
1.359120454E1,1.552046550E-2,-5.503516316E-2,-7.342304841E-2,9.306287160E-2
1.360123154E1,1.020698187E-2,-5.840082049E-2,-6.335560486E-2,8.676849071E-2
1.361125754E1,-1.478131349E-2,-5.256997705E-2,-7.006148413E-2,8.882961935E-2
1.362128354E1,2.339436265E-2,-4.801908910E-2,-3.902300164E-2,6.615076552E-2
1.363130913E1,3.064947819E-2,-3.104228318E-2,-4.710516930E-2,6.420210926E-2
1.364133513E1,4.101885734E-2,-9.982366562E-3,-5.186363339E-2,6.687324404E-2
1.365136113E1,9.064323555E-2,-1.899292588E-2,-7.077411354E-2,1.165585798E-1
1.366138813E1,1.178604621E-1,-1.157047033E-2,-6.323632166E-2,1.342527344E-1
1.367141413E1,1.402153269E-1,-1.148159266E-2,-3.264149666E-2,1.444217164E-1
1.368144012E1,9.711264976E-2,-3.307009757E-2,-5.953927338E-2,1.186145993E-1
1.369146612E1,6.992755548E-2,-3.331685007E-2,-8.130363330E-2,1.122949523E-1
1.370149212E1,2.806065087E-2,-9.959562421E-3,-1.166290019E-1,1.203699178E-1
1.371151913E1,2.001080736E-2,2.184519768E-2,-1.516438834E-1,1.545105578E-1
1.372154513E1,-7.315533729E-3,3.335895002E-2,-1.147796738E-1,1.197527039E-1
1.373157113E1,-4.735384041E-2,7.372754216E-2,-5.164187774E-2,1.017104725E-1
1.374159713E1,-6.872004149E-2,5.959599137E-2,7.046479583E-2,1.150626514E-1
1.375162313E1,-4.054976447E-2,8.319301486E-2,1.614511259E-1,1.860962847E-1
1.376164913E1,-4.056093813E-2,1.118285841E-1,2.084918296E-1,2.400409651E-1
1.377167613E1,-7.516379192E-2,1.062965333E-1,2.654062879E-1,2.956163836E-1
1.378170212E1,-3.109807841E-2,8.118917406E-2,2.454001857E-1,2.603459691E-1
1.379172812E1,-1.540460841E-2,5.810144305E-2,2.392347354E-1,2.466705054E-1
1.380175412E1,-3.134041809E-2,8.256443918E-2,1.600938410E-1,1.828363923E-1
1.381178013E1,-6.405687788E-2,4.367870092E-2,8.039278328E-2,1.116875648E-1
1.382180713E1,-8.179751289E-2,8.665573597E-3,-2.904545903E-2,8.723281476E-2
1.383183313E1,-7.207116301E-2,1.329364479E-2,-6.607295215E-2,9.867425467E-2
1.384185913E1,-8.449805858E-2,-7.832345366E-3,-6.587473154E-3,8.511558224E-2
1.385188513E1,-7.024181591E-2,-5.477086902E-3,3.739762187E-2,7.976523870E-2
1.386191113E1,-4.046354544E-2,2.292167008E-2,-1.944345385E-3,4.654548257E-2
1.387193712E1,-8.081704446E-2,-1.628566504E-2,-1.053609788E-2,8.311213461E-2
1.388196412E1,-1.392271200E-1,-1.581671834E-2,-4.245370924E-2,1.464126940E-1
1.389199012E1,-1.277687518E-1,-4.207013190E-2,-1.006446147E-1,1.680002631E-1
1.390201613E1,-1.162365533E-1,-4.632982850E-2,-7.558008626E-2,1.461839210E-1
1.391204213E1,-4.387117482E-2,-5.047901273E-2,-4.785010457E-2,8.223407574E-2
1.392206813E1,-4.155600633E-2,-4.357111216E-2,-2.592026845E-2,6.555306089E-2
1.393209513E1,-3.694342112E-2,-5.038896561E-2,-3.777374402E-2,7.301177957E-2
1.394212113E1,4.727884987E-3,-5.920481265E-2,-1.185109283E-1,1.325609402E-1
1.395214713E1,6.533989403E-3,-2.285384238E-2,-6.897741035E-2,7.295803086E-2
1.396217313E1,-6.726728249E-3,6.264122128E-3,2.667309746E-2,2.821244809E-2
1.397219912E1,7.278413046E-3,2.116107345E-3,8.430106223E-2,8.464113834E-2
1.398222512E1,4.183351153E-2,-4.497093558E-3,1.085529739E-1,1.164217105E-1
1.399225212E1,9.115892342E-2,1.214700580E-2,2.885030821E-2,9.638381271E-2
1.400227813E1,5.059488810E-2,-1.662187994E-2,-1.417891324E-2,5.511053597E-2
1.401230413E1,-9.221844804E-3,-2.427354634E-2,2.154260427E-3,2.605548525E-2
1.402233013E1,-2.967069997E-2,3.345776796E-3,-3.133581340E-2,4.328369047E-2
1.403235613E1,-6.409382497E-2,-4.364069402E-2,-1.288828656E-2,7.860430335E-2
1.404238313E1,-3.070089715E-3,1.218735158E-1,-1.618490289E-1,2.026269663E-1
1.405240913E1,2.429096921E-2,6.638051569E-2,-9.147603437E-2,1.156040177E-1
1.406243513E1,2.098978657E-2,7.123253524E-2,-2.769533694E-2,7.925703064E-2
1.407246112E1,4.647303047E-2,1.334726375E-1,2.754330933E-2,1.439906991E-1
1.408248712E1,2.022485199E-2,1.063836569E-1,1.035932194E-1,1.498602088E-1
1.409251312E1,4.357554325E-2,1.260320556E-1,1.458418375E-1,1.976176829E-1
1.410254013E1,3.326785223E-2,1.428685284E-1,2.271023476E-1,2.703583597E-1
1.411256613E1,4.364304204E-2,1.490379256E-1,2.159195477E-1,2.659666698E-1
1.412259213E1,3.178374667E-2,1.055931133E-1,1.173413390E-1,1.610251594E-1
1.413261813E1,2.130655948E-2,6.890358925E-2,3.794024348E-2,8.149316636E-2
1.414264413E1,3.433871496E-2,4.363543153E-2,-3.199771821E-2,6.408628715E-2
1.415267113E1,4.352034188E-2,-2.725971937E-3,-9.287615016E-2,1.026032668E-1
1.416269712E1,7.861617076E-2,-3.339637220E-2,-1.500471550E-1,1.726556362E-1
1.417272312E1,7.330716390E-2,-5.760910749E-2,-1.699863066E-1,1.938764915E-1
1.418274912E1,2.637919265E-2,-6.786336958E-2,-1.703475183E-1,1.852554338E-1
1.419277513E1,-2.502254725E-2,-9.141712368E-2,-1.093604743E-1,1.447167292E-1
1.420280113E1,-3.449266118E-2,-1.009486699E-1,-5.254702672E-2,1.189183234E-1
1.421282813E1,-2.659896573E-2,-9.717078388E-2,-4.803487659E-2,1.116110012E-1
1.422285413E1,-2.993963535E-2,-1.246462655E-1,-6.200460568E-2,1.423995941E-1
1.423288013E1,-3.275242930E-2,-1.559347165E-1,-6.992772907E-2,1.740064502E-1
1.424290613E1,-3.752047735E-2,-1.643652320E-1,-9.532847241E-2,1.936781695E-1
1.425293213E1,1.285998238E-2,-1.635893065E-1,-9.086821631E-2,1.875736471E-1
1.426295912E1,3.765330051E-2,-1.521100527E-1,-1.111514765E-1,1.921194678E-1
1.427298512E1,3.534629985E-2,-1.319289726E-1,-1.081395757E-1,1.742090197E-1
1.428301112E1,2.018196632E-2,-1.023373836E-1,-1.208175087E-1,1.596155452E-1
1.429303713E1,-6.613593763E-3,-4.761095345E-2,-5.783407912E-2,7.520188308E-2
1.430306313E1,5.208133254E-3,-7.376262546E-3,-2.003884658E-2,2.197929192E-2
1.431308913E1,1.527396882E-2,2.484832764E-2,-4.286710739E-2,5.184903476E-2
1.432311613E1,2.005540151E-2,8.111783803E-2,2.600622252E-2,8.751369256E-2
1.433314213E1,3.400926090E-2,1.369207406E-1,1.013686462E-1,1.737225416E-1
1.434316813E1,6.607043968E-2,1.672987801E-1,1.042244263E-1,2.078867861E-1
1.435319412E1,7.816209792E-2,1.685553467E-1,1.065836316E-1,2.141968464E-1
1.436322012E1,2.105547639E-2,1.543846196E-1,1.279458493E-1,2.016137004E-1
1.437324712E1,-3.895844473E-3,9.068095922E-2,1.161619556E-1,1.474171425E-1
1.438327312E1,8.261311725E-3,7.662834585E-2,6.065316796E-2,9.807629399E-2
1.439329913E1,5.713614997E-2,7.280309737E-2,1.396724403E-2,9.359441504E-2
1.440332513E1,4.871177402E-2,6.423400283E-2,4.594011158E-3,8.074620106E-2
1.441335113E1,1.988662711E-2,2.342628479E-2,4.696015835E-2,5.612063105E-2
1.442337713E1,-1.302670112E-2,4.346469283E-2,7.681238696E-2,8.921332443E-2
1.443340413E1,-5.632676742E-2,5.271966577E-2,9.715148807E-2,1.240583714E-1
1.444343013E1,-6.023157458E-2,3.807706833E-2,5.909210756E-2,9.257204160E-2
1.445345612E1,-5.521956973E-2,4.126029253E-2,6.672842503E-2,9.593901879E-2
1.446348212E1,-4.325504274E-2,3.776424229E-2,1.090711834E-1,1.232625643E-1
1.447350812E1,-2.548921902E-2,9.459040761E-3,1.115023094E-1,1.147690670E-1
1.448353513E1,1.025133848E-2,3.364487886E-3,1.031612563E-1,1.037239342E-1
1.449356113E1,4.381514205E-2,-2.105406940E-2,9.748638734E-2,1.089340912E-1
1.450358713E1,3.764211771E-2,-3.496225655E-2,-2.184110463E-2,5.582402942E-2
1.451361313E1,-2.870763615E-3,-7.655467093E-2,-1.463786119E-1,1.652136706E-1
1.452363913E1,-6.548659519E-2,-1.160344863E-1,-2.295184171E-1,2.653887713E-1
1.453366513E1,-7.890944517E-2,-1.254648757E-1,-2.164237238E-1,2.623115777E-1
1.454369213E1,-5.155809810E-2,-1.041447580E-1,-1.170700282E-1,1.649538105E-1
1.455371812E1,-2.710088524E-2,-9.935179532E-2,-1.098687436E-1,1.505867791E-1
1.456374412E1,9.262400726E-3,-7.108927846E-2,-1.183599240E-1,1.383782829E-1
1.457377012E1,5.299870586E-3,-3.031372011E-2,-5.541347802E-2,6.338504398E-2
1.458379613E1,-1.792491367E-2,-1.175758123E-2,-3.575294629E-2,4.168712529E-2
1.459382313E1,-1.725959189E-2,-2.342745423E-2,2.746539518E-2,4.001358590E-2
1.460384913E1,-5.769584728E-3,2.389523149E-2,9.634501085E-2,9.943154082E-2
1.461387513E1,9.769738046E-3,1.017532468E-2,1.459358315E-1,1.466160016E-1
1.462390113E1,1.527500122E-2,-1.420288682E-3,9.430330932E-2,9.554295909E-2
1.463392687E1,3.770175017E-2,-2.297955751E-3,-2.197968364E-3,3.783561327E-2
1.464395287E1,4.447963242E-2,1.282879114E-3,-4.361598954E-2,6.230921298E-2
1.465397988E1,2.350272800E-2,1.020046771E-2,-5.632491276E-2,6.187829637E-2
1.466400588E1,1.795913815E-2,1.416955769E-2,-2.168381453E-2,3.151975287E-2
1.467403188E1,4.505243115E-3,3.372966349E-2,-6.216613501E-3,3.459239365E-2
1.468405788E1,-1.180443205E-3,4.086443603E-2,3.050024629E-2,5.100549580E-2
1.469408388E1,-2.108050064E-2,6.366565347E-2,4.538374901E-2,8.097769824E-2
1.470411088E1,-1.103140273E-2,6.598115087E-2,4.924393460E-2,8.306725715E-2
1.471413688E1,3.934691912E-3,6.999818802E-2,4.995086297E-2,8.608319719E-2
1.472416287E1,3.986892929E-2,1.080933827E-1,4.845514521E-2,1.249864473E-1
1.473418887E1,4.379403725E-2,9.421384692E-2,4.090653598E-2,1.116580106E-1
1.474421487E1,4.959911641E-2,6.696172893E-2,6.918542504E-2,1.083077492E-1
1.475424088E1,7.279815464E-2,5.079710126E-2,5.162623644E-2,1.026897517E-1
1.476426788E1,5.549855500E-2,3.138785362E-2,-3.015774563E-2,7.053209613E-2
1.477429388E1,2.760235707E-2,-1.147223711E-3,-3.737204030E-2,4.647446218E-2
1.478431988E1,1.488760491E-2,-2.699191689E-2,-2.075323015E-3,3.089516666E-2
1.479434588E1,-3.012584176E-2,-4.196371257E-2,8.877242804E-3,5.241493064E-2
1.480437188E1,8.585603787E-3,-5.167359889E-2,-4.425421312E-2,6.857338254E-2
1.481439787E1,5.273896158E-3,-3.154338956E-2,-4.369931236E-2,5.415190953E-2
1.482442487E1,-1.128773005E-2,-5.203729570E-2,-7.297339752E-2,9.033498624E-2
1.483445087E1,-4.900003262E-2,-3.674975038E-2,-8.167902455E-2,1.020931457E-1
1.484447688E1,-1.564693895E-2,-2.686327815E-2,-5.351488709E-2,6.188946237E-2
1.485450288E1,8.306983961E-3,-1.513259411E-2,-5.169713393E-2,5.450316544E-2
1.486452888E1,1.369442574E-2,-3.190767109E-2,-4.605749443E-2,5.767954199E-2
1.487455588E1,1.753269341E-2,-2.647092998E-2,-2.259364128E-3,3.183096289E-2
1.488458188E1,1.802532133E-2,-1.254754007E-2,3.469445407E-2,4.106163799E-2
1.489460788E1,8.859070754E-3,-3.159016728E-2,4.389855623E-2,5.480424293E-2
1.490463388E1,-1.754719268E-2,-3.632582724E-2,4.646709189E-2,6.153584585E-2
1.491465987E1,-1.331542566E-2,-1.370002627E-2,2.406304657E-2,3.072493273E-2
1.492468587E1,1.213299075E-2,-1.848655701E-2,3.765124485E-2,4.366438472E-2
1.493471287E1,1.687406852E-2,7.658683062E-3,2.686196253E-2,3.263364285E-2
1.494473888E1,1.333139587E-2,1.100796819E-2,-7.028499395E-3,1.866283160E-2
1.495476488E1,-5.673014307E-3,1.744575262E-2,-8.899199098E-2,9.086314894E-2
1.496479088E1,-1.575314814E-2,9.359638095E-3,-1.361091471E-1,1.373370468E-1
1.497481688E1,-2.313219725E-2,-9.574230909E-3,-1.243470342E-1,1.268422224E-1
1.498484388E1,-3.170810745E-2,-7.806032896E-4,-7.689103201E-2,8.317598345E-2
1.499486988E1,-1.506560694E-2,2.238781929E-2,-4.457522526E-2,5.210698295E-2
1.500489587E1,1.334188432E-2,3.028448403E-2,3.497658223E-3,3.327746179E-2
1.501492187E1,8.901999366E-2,4.216661096E-2,6.559742734E-2,1.183452780E-1
1.502494787E1,9.151294492E-2,6.828086078E-2,1.148393154E-1,1.619412344E-1
1.503497388E1,5.043982725E-2,4.457098603E-2,1.044382882E-1,1.242501711E-1
1.504500088E1,1.201484045E-2,3.272452712E-2,4.623700395E-2,5.790605841E-2
1.505502688E1,-2.973795209E-2,-8.536934853E-3,8.398472786E-2,8.950228804E-2
1.506505288E1,-8.654401761E-2,-1.340181828E-2,5.627535760E-2,1.040979903E-1
1.507507888E1,-7.535176163E-2,-2.386307180E-2,9.399399161E-3,7.959700296E-2
1.508510488E1,-9.109377265E-3,-1.446250319E-2,-2.270356894E-2,2.841824757E-2
1.509513088E1,5.000425536E-2,6.376388669E-3,-8.909402490E-3,5.119044188E-2
1.510515787E1,6.641019945E-2,1.616930544E-2,2.748483717E-2,7.366937833E-2
1.511518387E1,2.120216841E-2,2.386599541E-2,2.962316394E-2,4.355053988E-2
1.512520987E1,-2.924902436E-2,1.851286948E-2,3.188486695E-3,3.476202252E-2
1.513523588E1,-9.124760924E-2,4.488322735E-3,2.709424317E-2,9.529097148E-2
1.514526188E1,-1.042042900E-1,1.078694344E-2,3.563877940E-2,1.106571949E-1
1.515528888E1,-3.183923126E-2,4.180817664E-2,4.155484602E-2,6.699601114E-2
1.516531488E1,2.379813116E-2,2.615167201E-2,7.165587366E-2,7.990510137E-2
1.517534088E1,3.572093278E-2,2.741584003E-2,1.009960324E-3,4.504035239E-2
1.518536688E1,1.684428426E-2,-1.013030112E-2,-9.638784170E-2,9.837158604E-2
1.519539288E1,-2.020858943E-2,-2.089151680E-2,-1.457301557E-1,1.486005412E-1
1.520541887E1,-1.737831778E-2,-3.445764184E-2,-1.448780702E-1,1.499299511E-1
1.521544587E1,-5.141835879E-2,-3.347063184E-2,-1.192820299E-1,1.341355041E-1
1.522547187E1,-7.332528113E-2,-5.084914148E-2,-9.475354493E-2,1.301555466E-1
1.523549788E1,-6.330657047E-2,-5.913523078E-2,-3.345703706E-2,9.286587486E-2
1.524552388E1,-5.856514553E-2,-6.170157373E-2,3.751208112E-2,9.297374200E-2
1.525554988E1,-9.456336424E-3,-2.894781053E-2,4.690154001E-2,5.592094857E-2
1.526557588E1,1.938920265E-2,1.600733757E-2,9.257063314E-2,9.592443983E-2
1.527560288E1,2.158146998E-2,3.615684271E-2,9.958919227E-2,1.081253177E-1
1.528562888E1,5.062153861E-3,3.053708375E-2,8.039132148E-2,8.614466585E-2
1.529565487E1,-1.938197586E-2,3.224739432E-2,6.853872299E-2,7.818639254E-2
1.530568087E1,2.210294112E-2,3.004299402E-2,4.304310858E-2,5.695463714E-2
1.531570687E1,1.740972829E-2,1.949461699E-2,6.521399617E-3,2.693821419E-2
1.532573387E1,-1.633154741E-3,8.104240894E-4,-5.127540350E-2,5.130780628E-2
1.533575988E1,-1.020978671E-2,-6.901468635E-3,-6.864178017E-2,6.973925723E-2
1.534578588E1,1.987909882E-2,-8.098978400E-3,-7.136760592E-2,7.452588273E-2
1.535581188E1,1.346918916E-2,-2.593240142E-3,-2.374203444E-2,2.741948487E-2
1.536583788E1,-1.116273668E-2,1.291299105E-2,7.742882967E-3,1.874311246E-2
1.537586388E1,-3.981290566E-2,-2.935302258E-4,-1.836610436E-3,3.985632641E-2
1.538589088E1,-1.021619123E-2,4.357345104E-3,9.647905827E-5,1.110703956E-2
1.539591687E1,9.791217428E-3,3.399688125E-2,3.935117662E-2,5.291664175E-2
1.540594287E1,-1.360920257E-2,1.509224832E-2,8.083644077E-2,8.335176369E-2
1.541596887E1,2.756779455E-3,3.350571513E-2,1.092144401E-1,1.142717232E-1
1.542599488E1,1.884916660E-2,9.670709968E-3,1.320576113E-1,1.337461268E-1
1.543602088E1,6.923916461E-2,2.370695114E-2,8.623356700E-2,1.131030925E-1
1.544604788E1,7.093244517E-2,4.062645435E-3,-2.712976500E-2,7.605222558E-2
1.545607388E1,5.529916495E-2,-1.002095819E-2,-4.392545342E-2,7.132925561E-2
1.546609988E1,6.041556087E-2,6.235470772E-3,4.258380979E-3,6.088558861E-2
1.547612588E1,2.471627193E-2,3.503651619E-3,-3.557928398E-2,4.346326174E-2
1.548615187E1,-6.720104450E-3,-1.727442920E-2,-8.902488157E-2,9.093401590E-2
1.549617887E1,-1.064897656E-2,5.294653773E-3,-6.355572581E-2,6.465883036E-2
1.550620487E1,2.342705224E-3,1.205111146E-2,-8.738766119E-2,8.824579811E-2
1.551623087E1,-1.013761014E-3,-1.023730516E-2,-6.315095231E-2,6.398337992E-2
1.552625688E1,-3.496132465E-3,-1.640085518E-2,-6.711668015E-2,6.917990855E-2
1.553628288E1,1.664537843E-4,-1.669204652E-2,-5.857609078E-2,6.090821402E-2
1.554630888E1,2.416601239E-2,-2.000332475E-3,-3.067376241E-2,3.910085914E-2
1.555633588E1,-2.434488237E-3,1.384620667E-2,2.012553155E-2,2.454956603E-2
1.556636188E1,1.850168668E-3,5.408674479E-4,6.089173436E-2,6.092223712E-2
1.557638788E1,3.198485434E-2,3.627027869E-2,1.086605626E-1,1.189356208E-1
1.558641387E1,2.318715194E-2,2.094063342E-2,6.329917923E-2,7.058994428E-2
1.559643987E1,-3.610061808E-2,4.924525023E-3,1.588410750E-2,3.974682935E-2
1.560646587E1,-4.259639044E-2,-1.858128190E-2,3.732920945E-2,5.960861006E-2
1.561649288E1,-1.020624183E-2,-2.072779477E-2,3.076980293E-2,3.847843059E-2
1.562651888E1,-7.590946723E-3,-2.645221889E-2,-7.939349413E-3,2.864220008E-2
1.563654492E1,2.179622725E-3,-4.929261267E-2,-5.221037328E-2,7.183617123E-2
1.564657092E1,2.363289250E-3,-6.467137456E-2,-8.873734474E-2,1.098284488E-1
1.565659692E1,-4.702623188E-3,-6.766924202E-2,-9.078226224E-2,1.133254610E-1
1.566662392E1,-4.783818173E-2,-5.024921715E-2,-8.724645093E-2,1.114693620E-1
1.567664992E1,-5.780747429E-2,-1.556119502E-2,-8.930803299E-2,1.075164156E-1
1.568667592E1,-4.134080138E-2,-8.797720671E-3,-5.769915462E-2,7.152380157E-2
1.569670192E1,-6.958899256E-3,3.489501357E-2,2.928344071E-2,4.608262309E-2
1.570672792E1,6.833643674E-2,7.304634154E-2,7.355256423E-2,1.241596404E-1
1.571675392E1,9.187879790E-2,6.584315658E-2,8.690833569E-2,1.425836371E-1
1.572678092E1,7.277310298E-2,7.488821447E-2,9.683398426E-2,1.424113398E-1
1.573680692E1,6.248313633E-2,5.783305585E-2,7.283715740E-2,1.120448846E-1
1.574683292E1,1.237233373E-2,3.440033913E-2,5.433115840E-2,6.548536285E-2
1.575685892E1,-2.694806278E-2,1.366435826E-2,2.158792019E-2,3.713423046E-2
1.576688492E1,-2.231661117E-2,6.183430552E-3,-3.891263545E-2,4.528199581E-2
1.577691092E1,2.431303332E-2,1.661135495E-2,-3.355132341E-2,4.464025095E-2
1.578693792E1,-1.123134096E-2,7.577991486E-3,6.555167288E-3,1.505121898E-2
1.579696392E1,-2.929521737E-2,-5.674722791E-3,1.377604008E-2,3.286626720E-2
1.580698992E1,-1.079705729E-2,-1.699902534E-2,1.106921777E-2,2.297979310E-2
1.581701592E1,-1.145959251E-2,8.805906773E-4,-3.548675179E-3,1.202874872E-2
1.582704192E1,4.742959840E-3,9.993476272E-3,-2.828941405E-2,3.037525610E-2
1.583706892E1,-4.034682954E-2,-1.495308459E-2,-8.178091228E-2,9.240984258E-2
1.584709492E1,-4.509519805E-2,-3.318353355E-2,-4.177133918E-2,6.985390872E-2
1.585712092E1,-3.889345841E-2,2.700244188E-3,6.244943261E-2,7.362013352E-2
1.586714692E1,-5.135167312E-2,1.579332948E-2,6.632906020E-2,8.535788080E-2
1.587717292E1,-6.161340868E-2,1.132956505E-2,6.077405915E-2,8.728148394E-2
1.588719892E1,-1.035936579E-2,1.031682730E-2,3.498564541E-2,3.791765776E-2
