"Time (s)","Linear Acceleration x (m/s^2)","Linear Acceleration y (m/s^2)","Linear Acceleration z (m/s^2)","Absolute acceleration (m/s^2)"
6.947041722E-3,-5.525265035E-1,1.489812076E-2,-1.451653512E-1,5.714721955E-1
1.697304170E-2,-3.998292442E-1,-6.535900712E-2,-1.450401843E-1,4.303160227E-1
2.699904167E-2,-1.407653032E-1,-8.377188921E-2,-1.114508539E-1,1.981259520E-1
3.702504165E-2,1.197306940E-2,-3.945584178E-2,-2.066698372E-2,4.612203441E-2
4.705104162E-2,1.235502963E-1,-1.773694396E-2,1.385263860E-2,1.255833209E-1
5.707704159E-2,1.184108404E-1,-5.862769246E-2,4.436388496E-2,1.393789358E-1
6.710304157E-2,1.045968757E-1,-9.177614272E-2,5.561221026E-2,1.498535442E-1
7.712904178E-2,6.908287036E-2,-5.311552227E-2,1.401650682E-3,8.715311990E-2
8.715504175E-2,-7.547284467E-3,-9.519851804E-3,-1.880457245E-2,2.238751943E-2
9.718104172E-2,-9.074886002E-2,8.553190112E-2,1.038909888E-1,1.623095785E-1
1.072070417E-1,-3.057562055E-2,1.206947172E-1,2.233735782E-1,2.557300115E-1
1.172330417E-1,-1.419808114E-2,1.674970007E-1,2.385272223E-1,2.918082701E-1
1.272590416E-1,-6.301993813E-2,1.338451052E-1,2.402908156E-1,2.821802630E-1
1.372850416E-1,-4.097308461E-2,2.574587524E-2,2.162446529E-1,2.215928556E-1
1.473110416E-1,-1.421570501E-2,-6.796394169E-2,1.214017186E-1,1.398555002E-1
1.573370416E-1,-2.827362657E-2,-1.571848512E-1,1.125187017E-2,1.601033416E-1
1.673630418E-1,-2.804144642E-2,-1.627163172E-1,-2.619143307E-2,1.671792863E-1
1.773890418E-1,2.796856179E-2,-1.135698849E-1,-2.378647327E-2,1.193572600E-1
1.874150417E-1,1.092712860E-1,-7.693649411E-2,-2.967111111E-2,1.368934363E-1
1.974400417E-1,1.038957762E-1,-1.568047822E-2,-3.878282726E-2,1.120014170E-1
2.074660417E-1,8.821131460E-2,2.872210801E-2,-5.525436066E-2,1.079779602E-1
2.174920416E-1,6.679133284E-2,4.095155954E-2,1.446191847E-2,7.966968971E-2
2.275180416E-1,2.286077224E-2,5.210512340E-2,4.744438089E-2,7.408460077E-2
2.375440416E-1,-3.393493274E-2,4.625147581E-2,1.133395777E-1,1.270300695E-1
2.475700416E-1,-1.361306265E-1,5.195426524E-2,1.568608423E-1,2.140937108E-1
2.575960418E-1,-5.595092393E-2,1.644763291E-2,1.335485782E-1,1.457266388E-1
2.676220417E-1,1.185509726E-1,-3.686435580E-2,2.478049994E-2,1.265993168E-1
2.776480417E-1,1.888321202E-1,-3.852730393E-2,-2.631897546E-2,1.945112111E-1
2.876740417E-1,1.131707393E-1,-6.933862209E-2,-9.689187169E-2,1.643274035E-1
2.977000417E-1,6.157099809E-2,-5.770734072E-2,-1.116087288E-1,1.399200962E-1
3.077260416E-1,5.815647083E-2,-5.713138998E-2,-3.539027274E-2,8.887430576E-2
3.177520416E-1,-6.705166642E-3,-3.623519540E-2,1.655814528E-2,4.039951510E-2
3.277780416E-1,-2.619428359E-2,7.671546936E-3,7.981332421E-2,8.435140691E-2
3.378040416E-1,1.870172541E-2,1.399531066E-2,2.441512205E-2,3.378936872E-2
3.478300418E-1,-1.145495128E-2,1.847661674E-2,-3.512539387E-2,4.130852901E-2
3.578560418E-1,-9.720074172E-2,5.565906107E-2,2.529096186E-2,1.148283415E-1
3.678820417E-1,-6.159371544E-2,5.277112126E-2,9.628551543E-2,1.258947080E-1
3.779080417E-1,2.722709830E-2,9.977513373E-2,1.595710999E-1,1.901560625E-1
3.879340417E-1,1.113080722E-1,7.672131658E-2,1.079080991E-1,1.729734234E-1
3.979600416E-1,1.472662923E-1,3.936930299E-2,-5.391892970E-2,1.616927762E-1
4.079856668E-1,9.711765644E-2,-3.234211922E-2,-8.448810004E-2,1.327256227E-1
4.180116667E-1,5.641074806E-2,-9.876356542E-2,-1.181411650E-1,1.639931377E-1
4.280376667E-1,-1.471389692E-2,-1.459628749E-1,-2.094174439E-1,2.556899009E-1
4.380636667E-1,-5.830907859E-2,-1.332001573E-1,-1.692535043E-1,2.231344421E-1
4.480896667E-1,-4.087034720E-3,-1.266746646E-1,-1.549015865E-1,2.001441381E-1
4.581156666E-1,1.052264563E-1,-1.049294543E-1,-2.108372209E-1,2.579440467E-1
4.681416666E-1,6.512235020E-2,-4.556735158E-2,-2.363831214E-1,2.493878187E-1
4.781676666E-1,-2.612861662E-2,-5.419784188E-3,-1.363565574E-1,1.389431157E-1
4.881936666E-1,8.624506043E-3,6.240148544E-3,-3.336187363E-2,3.501908294E-2
4.982196668E-1,7.133733745E-2,2.711529315E-2,3.576157093E-3,7.640054801E-2
5.082456667E-1,5.828023081E-2,4.673971832E-2,-5.038472638E-3,7.487705108E-2
5.182716667E-1,6.656264733E-3,9.047981501E-3,-4.257825494E-2,4.403498181E-2
5.282976667E-1,-4.941754209E-2,-1.442625046E-2,-4.603922188E-2,6.906388434E-2
5.383236667E-1,-8.221197085E-2,-2.561606705E-2,-5.535500586E-2,1.023678060E-1
5.483496666E-1,-6.571578777E-2,-4.509021878E-2,-1.641078814E-1,1.824365351E-1
5.583756666E-1,-8.841814158E-2,-2.431506157E-2,-2.253640435E-1,2.433062722E-1
5.684016666E-1,-1.124725452E-1,2.430395186E-2,-8.751936972E-2,1.445696911E-1
5.784276666E-1,-2.380240694E-2,8.061848581E-2,7.417894721E-2,1.121089249E-1
5.884536668E-1,2.034851512E-1,7.856318951E-2,1.524982347E-1,2.661467511E-1
5.984796667E-1,2.551351603E-1,6.333587050E-2,1.510440322E-1,3.031825888E-1
6.085056667E-1,8.926783338E-2,5.302255154E-3,4.758339845E-2,1.012967906E-1
6.185316667E-1,4.013568567E-2,-7.311767757E-2,-9.772568464E-2,1.284810394E-1
6.285576667E-1,-7.522552115E-2,-6.253597140E-2,-1.570877874E-1,1.850572876E-1
6.385836666E-1,-1.993466382E-1,-2.946821272E-2,-9.571014941E-2,2.230871812E-1
6.486096666E-1,-2.059833924E-1,-1.967120290E-2,-6.314868651E-2,2.163420227E-1
6.586356666E-1,-1.536325763E-1,-1.149738014E-2,-4.617714308E-2,1.608337241E-1
6.686616666E-1,-5.915135630E-2,3.505756617E-2,3.239247836E-2,7.600781902E-2
6.786876668E-1,-5.682939042E-2,1.025268334E-1,1.183762231E-1,1.665961025E-1
6.887136668E-1,-1.366566475E-2,8.286381662E-2,1.543835232E-1,1.757482141E-1
6.987396667E-1,9.402330078E-2,-1.079045177E-2,7.317790389E-2,1.196320215E-1
7.087656667E-1,1.015990265E-1,-7.577874541E-2,-5.820435405E-2,1.394723172E-1
7.187916667E-1,3.738220898E-3,-4.393013120E-2,-1.543197155E-1,1.604942532E-1
7.288176666E-1,-1.295778072E-1,-2.977402210E-3,-1.925674494E-1,2.321238799E-1
7.388436666E-1,-1.947510008E-1,3.194041550E-2,-2.132977293E-1,2.905926079E-1
7.488696666E-1,-1.288726147E-1,3.861150384E-2,-1.363523912E-1,1.915488806E-1
7.588946666E-1,-1.042156920E-1,2.835548759E-2,-4.791800536E-2,1.181570115E-1
7.689206668E-1,-2.850085942E-2,3.271517158E-2,2.250585996E-2,4.887837120E-2
7.789466667E-1,3.257055120E-2,-9.247371554E-3,2.347423196E-2,4.119944481E-2
7.889726667E-1,7.342955343E-2,1.711421549E-2,1.268845797E-2,7.645778348E-2
7.989986667E-1,1.508576887E-1,4.700635135E-2,7.638970636E-2,1.755079102E-1
8.090246667E-1,1.539673842E-1,6.140687406E-2,1.409307611E-1,2.175735255E-1
8.190506666E-1,9.322911185E-2,2.275502443E-2,1.302525759E-1,1.617874901E-1
8.290766666E-1,-3.937142717E-3,-1.333574474E-2,4.863538563E-2,5.058402827E-2
8.391026666E-1,-8.500378791E-2,-4.321677089E-2,-3.546862543E-2,1.017416170E-1
8.491286666E-1,-6.825263883E-2,-8.185283303E-2,-7.823231019E-2,1.322066690E-1
8.591546668E-1,-4.852885667E-2,-9.830514371E-2,-6.068247713E-2,1.253048851E-1
8.691806667E-1,-4.101875684E-2,-5.619525075E-2,-5.965504825E-2,9.164698250E-2
8.792066667E-1,-2.697514041E-2,-2.857651234E-2,-5.159510002E-3,3.963452789E-2
8.892326667E-1,4.325062078E-3,1.592196822E-3,3.907109499E-2,3.934198414E-2
8.992586667E-1,3.926074577E-2,6.616124511E-3,6.174593948E-2,7.346931539E-2
9.092846666E-1,5.664859269E-2,3.063765585E-2,1.021969043E-2,6.520867337E-2
9.193106666E-1,3.200072862E-2,5.744597018E-2,-5.419199467E-3,6.598070812E-2
9.293366666E-1,3.512458988E-2,9.407409847E-2,3.326422513E-2,1.057836542E-1
9.393626666E-1,2.636700943E-2,6.288095713E-2,5.377684236E-3,6.839702803E-2
9.493886668E-1,-1.649329144E-2,6.326745808E-2,2.442213871E-2,6.979427465E-2
9.594146668E-1,-1.979789562E-2,7.621436298E-2,6.012984216E-2,9.907665574E-2
9.694406667E-1,-3.628221523E-2,1.366318882E-2,1.492039865E-1,1.541587217E-1
9.794666667E-1,-6.076653542E-2,-1.079162121E-2,1.828004066E-1,1.929378645E-1
9.894926667E-1,-4.984112261E-2,-1.927066863E-2,1.132822019E-1,1.252531574E-1
9.995186666E-1,2.560496648E-2,-4.818222642E-2,-3.669003569E-2,6.575180583E-2
1.009544667E0,4.371310357E-2,-3.803613782E-2,-1.444425257E-1,1.556317013E-1
1.019570667E0,7.346398348E-3,-2.915889502E-2,-1.611673898E-1,1.639485842E-1
1.029596667E0,1.354900480E-2,-3.235907614E-2,-1.242726284E-1,1.291292822E-1
1.039622667E0,9.515314501E-3,-1.821173787E-2,-6.107124388E-2,6.443528099E-2
1.049648667E0,-7.238580032E-3,-3.500143290E-3,-7.820724025E-3,1.121658452E-2
1.059674667E0,-5.326425168E-3,1.879938304E-2,4.807171404E-2,5.189101366E-2
1.069700667E0,2.486372683E-2,8.700656891E-3,8.625271663E-2,9.018557240E-2
1.079726667E0,1.031207278E-1,-3.551598787E-3,9.239178143E-2,1.385017676E-1
1.089752667E0,7.220838985E-2,-3.678658783E-2,5.745824933E-2,9.934160773E-2
1.099778667E0,4.448407265E-2,-3.186030865E-2,2.193064012E-2,5.894798523E-2
1.109804667E0,1.206501230E-2,-2.618558586E-2,5.077670909E-2,5.839112617E-2
1.119830667E0,-5.313903904E-3,-2.167679787E-2,9.104187861E-3,2.410409461E-2
1.129856667E0,-4.008947896E-2,1.208619475E-2,-8.281711198E-2,9.280041198E-2
1.139882667E0,-5.142862796E-2,2.154698968E-3,-4.786406480E-2,7.028879854E-2
1.149908667E0,-3.378405859E-3,8.617626429E-3,7.292654671E-2,7.351162035E-2
1.159934667E0,1.948182392E-2,1.675870478E-2,1.755223042E-1,1.773935594E-1
1.169960667E0,5.563316887E-2,4.740279257E-2,2.021774215E-1,2.149832179E-1
1.179986667E0,9.417019380E-2,8.133476973E-4,1.496104411E-1,1.767822701E-1
1.190012667E0,8.699291931E-2,-1.020163715E-2,3.595160544E-2,9.468030072E-2
1.200038667E0,5.534493769E-2,3.471608877E-2,-6.141389072E-2,8.966568418E-2
1.210064667E0,1.997531293E-2,2.999621630E-4,-3.437110305E-2,3.975519876E-2
1.220090667E0,1.196118996E-2,2.437061012E-2,2.806780457E-2,3.904866651E-2
1.230116667E0,-9.097194043E-3,3.212928057E-2,4.018849790E-2,5.225098059E-2
1.240142667E0,3.342479743E-2,3.559960306E-2,-2.090383250E-2,5.311797280E-2
1.250168667E0,6.290209390E-2,2.953487098E-2,-4.831265587E-2,8.463506802E-2
1.260194667E0,2.717599455E-2,1.195053935E-2,-5.785286330E-2,6.502540936E-2
1.270220667E0,-1.301483995E-2,-8.525240421E-3,-1.121262074E-2,1.917781653E-2
1.280246667E0,-2.635657123E-2,-3.221289575E-2,4.135384798E-2,5.867265328E-2
1.290272667E0,8.479120508E-3,-5.489541471E-2,7.219973780E-2,9.109447941E-2
1.300298667E0,1.717976369E-2,-3.434245169E-2,4.116494637E-2,5.629476955E-2
1.310324667E0,4.571021094E-2,2.664400756E-2,1.752995253E-3,5.293769465E-2
1.320350667E0,4.398657510E-2,1.120735824E-2,-3.417748712E-2,5.682010466E-2
1.330376667E0,-1.615315251E-2,4.958555818E-2,-3.488266133E-2,6.274115059E-2
1.340402667E0,-8.088822518E-2,6.623842835E-2,9.323261105E-2,1.400812412E-1
1.350428667E0,-8.643164143E-2,6.152849615E-2,2.732064370E-1,2.930835064E-1
1.360454667E0,-2.155442204E-2,4.339218736E-2,3.304179704E-1,3.339513590E-1
1.370480667E0,6.709588598E-4,3.300811708E-2,2.192238823E-1,2.216959552E-1
1.380505667E0,8.783632535E-3,7.095362306E-2,1.069164113E-1,1.286183806E-1
1.390531667E0,2.917836898E-2,3.955933750E-2,7.355325859E-2,8.846694439E-2
1.400557667E0,5.678504295E-2,1.490513742E-2,3.362149000E-2,6.765433330E-2
1.410583667E0,7.431043647E-2,-3.959617496E-2,-1.014374971E-1,1.318311946E-1
1.420609667E0,6.169908409E-2,-4.785127401E-2,-1.850485879E-1,2.008469599E-1
1.430635667E0,-8.675015937E-3,-3.039382696E-2,-1.709339941E-1,1.738317317E-1
1.440661667E0,-4.210827128E-2,-2.308948517E-2,-1.081571174E-1,1.183393125E-1
1.450687667E0,-9.242571356E-2,-4.021831870E-2,-9.160957016E-2,1.362069713E-1
1.460713667E0,-1.168860236E-1,-2.010038853E-2,-9.282992061E-2,1.506112954E-1
1.470739667E0,-8.813893704E-2,-1.658562720E-2,-3.766838450E-2,9.727518924E-2
1.480765667E0,-4.450067326E-2,-4.661985040E-3,-4.570772130E-2,6.396280022E-2
1.490791667E0,9.426396852E-4,-5.116313696E-4,-6.560517490E-2,6.561394143E-2
1.500817667E0,6.707619275E-2,7.934671640E-4,-3.151064515E-3,6.715485411E-2
1.510843667E0,3.873367867E-2,4.778636992E-2,-8.958299831E-4,6.151940771E-2
1.520869667E0,-3.898971819E-2,1.456225669E-1,-7.036415063E-2,1.663647914E-1
1.530895667E0,-1.003081074E-1,2.175450736E-1,-1.962974979E-1,3.097099985E-1
1.540921667E0,-7.335894831E-2,3.788574743E-1,-2.623791844E-1,4.666447873E-1
1.550947667E0,-2.213906366E-2,5.713910830E-1,-2.954703319E-1,6.436463508E-1
1.560973667E0,2.539978174E-2,7.536546421E-1,-2.776328524E-1,8.035673396E-1
1.570999667E0,7.538255087E-2,9.147214597E-1,-2.355737206E-1,9.475720847E-1
1.581025667E0,1.271131327E-1,1.099776480E0,-1.539085831E-1,1.117745009E0
1.591051667E0,1.060984955E-1,1.262328490E0,-5.838517919E-3,1.266792878E0
1.601077667E0,5.111306104E-2,1.379898455E0,9.316127501E-2,1.383983856E0
1.611103667E0,-1.452785268E-2,1.456843720E0,1.327252903E-1,1.462949311E0
1.621129667E0,-5.594661618E-2,1.506940910E0,1.481976076E-1,1.515243697E0
1.631155667E0,-8.142280687E-2,1.566633965E0,2.595900625E-1,1.590081336E0
1.641181667E0,-7.490509830E-2,1.646316896E0,4.312187789E-1,1.703502196E0
1.651207667E0,-5.404612948E-2,1.605678747E0,6.174091818E-1,1.721138961E0
1.661233667E0,2.612508545E-2,1.600029168E0,6.687086320E-1,1.734343418E0
1.671259667E0,7.450059432E-2,1.539215201E0,6.263590763E-1,1.663448065E0
1.681285667E0,8.694610504E-2,1.414361944E0,4.816171000E-1,1.496641028E0
1.691311667E0,7.055159957E-2,1.280668867E0,1.358975510E-1,1.289790068E0
1.701337667E0,7.043131138E-2,1.153377905E0,-1.164701039E-1,1.161381267E0
1.711363667E0,3.315119571E-2,1.082349438E0,-2.531615605E-1,1.112056691E0
1.721389667E0,5.500182490E-2,9.984313685E-1,-2.950499902E-1,1.042566494E0
1.731415667E0,1.323059353E-1,8.896947920E-1,-2.971870744E-1,9.473024019E-1
1.741441667E0,2.115047902E-1,7.676055139E-1,-3.418427720E-1,8.664923439E-1
1.751467667E0,2.145804439E-1,6.655967438E-1,-3.211232364E-1,7.695348759E-1
1.761493667E0,2.059816930E-1,5.914335841E-1,-2.271789461E-1,6.662074871E-1
1.771519667E0,1.900603278E-1,5.379806775E-1,1.999806225E-2,5.709168591E-1
1.781545667E0,1.416881217E-1,5.455288482E-1,2.611512691E-1,6.211901749E-1
1.791571667E0,4.459311409E-2,5.455949217E-1,4.374266946E-1,7.007171167E-1
1.801597667E0,2.835097883E-3,5.099134576E-1,4.829666374E-1,7.023364898E-1
1.811623667E0,-6.917616086E-2,4.574949235E-1,2.677989686E-1,5.346056807E-1
1.821649667E0,-1.360213109E-1,4.225969863E-1,-7.801939845E-3,4.440167566E-1
1.831675667E0,-1.767225548E-1,4.490532982E-1,-1.203375254E-1,4.973538439E-1
1.841701667E0,-1.494874029E-1,4.712224317E-1,-8.816380598E-2,5.021652322E-1
1.851727667E0,-5.105630650E-2,5.365410930E-1,-1.026987416E-1,5.486621205E-1
1.861753667E0,4.762217280E-2,5.954541296E-1,-1.197018600E-1,6.092306846E-1
1.871779667E0,2.365787107E-2,6.018919140E-1,-1.160145327E-1,6.134272107E-1
1.881805667E0,2.669276786E-3,6.186289841E-1,-1.852643502E-1,6.457800124E-1
1.891831667E0,-6.566539665E-2,6.580509120E-1,-1.405952771E-1,6.760990897E-1
1.901857667E0,-1.184721174E-1,7.393962067E-1,-6.978724971E-3,7.488598639E-1
1.911883667E0,-8.688032387E-2,8.361407286E-1,1.173683093E-1,8.487961055E-1
1.921909667E0,-1.269092019E-2,8.782155383E-1,1.439871007E-1,8.900313906E-1
1.931935667E0,1.117633602E-3,9.195834196E-1,1.790885210E-1,9.368605088E-1
1.941961667E0,2.006133552E-2,9.265556395E-1,1.990140778E-1,9.479000018E-1
1.951987667E0,2.290872398E-2,8.990579385E-1,1.200241146E-1,9.073234123E-1
1.962013667E0,1.527501035E-2,8.913156402E-1,4.946985640E-2,8.928181019E-1
1.972039667E0,-1.075143759E-2,8.723349935E-1,5.994156182E-2,8.744580751E-1
1.982065667E0,-3.409882837E-2,8.567971873E-1,6.399777532E-2,8.598603756E-1
1.992091667E0,-4.773008590E-2,8.554698694E-1,9.560965039E-2,8.621183583E-1
2.002117667E0,-1.325627857E-2,8.506494248E-1,1.169098876E-1,8.587479809E-1
2.012143667E0,2.036511208E-2,8.628326833E-1,1.415516623E-1,8.746038248E-1
2.022169667E0,2.432187951E-2,8.209017152E-1,1.498519311E-1,8.348214067E-1
2.032194667E0,1.126260415E-2,7.631774175E-1,1.631056686E-1,7.804934824E-1
2.042220667E0,-2.219885829E-2,7.047941387E-1,1.799176562E-1,7.277347939E-1
2.052246667E0,-3.738748061E-2,6.248831660E-1,9.746131741E-2,6.335420295E-1
2.062272667E0,-6.807844662E-2,5.605164313E-1,-6.521227855E-2,5.683889390E-1
2.072298667E0,-9.559783719E-2,5.302553362E-1,-9.019447088E-2,5.463009341E-1
2.082324667E0,-3.525521119E-2,5.075406575E-1,-3.517626464E-2,5.099782530E-1
2.092350667E0,2.085673501E-2,5.313709849E-1,6.245060205E-2,5.354345942E-1
2.102376667E0,-4.176508540E-3,5.560614377E-1,1.528865629E-1,5.767114243E-1
2.112402667E0,1.705952575E-2,5.813494760E-1,1.036606085E-1,5.907654039E-1
2.122428667E0,6.693549869E-3,5.790959591E-1,6.997187555E-2,5.833463781E-1
2.132454667E0,-2.726798313E-2,5.823680609E-1,5.372947991E-2,5.854766932E-1
2.142480667E0,-8.318689356E-2,5.468678606E-1,5.675190568E-2,5.560623121E-1
2.152506667E0,-1.095422679E-1,4.989639616E-1,2.760287784E-2,5.115920859E-1
2.162532667E0,-1.322924684E-1,4.620323628E-1,-2.349593975E-2,4.811727971E-1
2.172558667E0,-1.467699094E-1,4.889348173E-1,-3.373784959E-2,5.116022912E-1
2.182584667E0,-8.638485457E-2,4.953708476E-1,-4.901311576E-2,5.052295570E-1
2.192610667E0,-3.183244758E-3,5.286157769E-1,-5.832129836E-2,5.318328182E-1
2.202636667E0,8.974249025E-2,5.430046052E-1,-6.258786544E-3,5.504061121E-1
2.212662667E0,1.470915246E-1,5.127780086E-1,3.432498313E-2,5.345609480E-1
2.222688667E0,1.192902891E-1,4.789501119E-1,5.632337786E-2,4.967853718E-1
2.232714667E0,6.786257016E-2,4.596607322E-1,5.949549235E-2,4.684367948E-1
2.242740667E0,4.628333857E-2,4.432388270E-1,3.431738175E-2,4.469681061E-1
2.252766667E0,-1.078007067E-2,4.479516828E-1,2.907173496E-2,4.490234803E-1
2.262792667E0,-6.531146195E-2,4.764983743E-1,3.259311095E-3,4.809645631E-1
2.272818667E0,-8.298373022E-2,5.141912806E-1,3.661526442E-2,5.221299169E-1
2.282844667E0,-5.493922315E-2,5.297659242E-1,-1.844833083E-3,5.326102291E-1
2.292870667E0,1.191827003E-2,5.344378495E-1,-2.067228276E-2,5.349702828E-1
2.302896667E0,6.310458572E-2,5.428648567E-1,3.073296547E-3,5.465289439E-1
2.312922667E0,1.015909043E-1,5.458738339E-1,6.649742346E-2,5.592145042E-1
2.322948667E0,1.062628753E-1,5.242900068E-1,1.117607198E-1,5.465000168E-1
2.332974667E0,8.321149754E-2,5.302249306E-1,7.882858001E-2,5.424726495E-1
2.343000667E0,2.200864563E-2,5.063671213E-1,2.637145422E-2,5.075307830E-1
2.353026667E0,-6.830222139E-2,4.547981876E-1,1.886662602E-2,4.602852751E-1
2.363052667E0,-1.043504429E-1,4.307538521E-1,-2.275502443E-2,4.437968986E-1
2.373078667E0,-1.036852217E-1,4.212708378E-1,-1.037829615E-1,4.460836772E-1
2.383104667E0,-5.616704707E-2,4.115200210E-1,-9.190185785E-2,4.253814950E-1
2.393130667E0,6.353251054E-5,4.107259691E-1,-4.928544983E-3,4.107555432E-1
2.403156667E0,2.681828657E-2,4.345913798E-1,7.306037486E-2,4.415050467E-1
2.413183417E0,3.538897082E-2,4.340434957E-1,9.527504347E-2,4.457841061E-1
2.423209417E0,1.267878037E-2,4.456127965E-1,6.866553448E-2,4.510504091E-1
2.433235417E0,-2.181039076E-2,4.276922500E-1,6.858082294E-2,4.337046036E-1
2.443261417E0,-2.233928283E-2,3.916821724E-1,1.321697317E-2,3.925412795E-1
2.453287417E0,-1.367238448E-2,3.957799011E-1,-1.656158052E-2,3.963621453E-1
2.463313417E0,8.807454229E-3,3.800947452E-1,1.525655508E-2,3.805027582E-1
2.473339417E0,5.649448658E-2,3.745738041E-1,1.929698110E-2,3.793013779E-1
2.483365417E0,8.790630922E-2,3.461364555E-1,8.592995033E-3,3.572279449E-1
2.493391417E0,8.582139311E-2,3.450734317E-1,4.532644629E-2,3.584626501E-1
2.503417417E0,3.750746958E-2,3.356184840E-1,4.073923253E-2,3.401562320E-1
2.513443417E0,-2.255954014E-2,2.772439760E-1,1.685752273E-2,2.786706500E-1
2.523469417E0,-6.879717906E-2,3.073588908E-1,-5.292387977E-3,3.150088077E-1
2.533495417E0,-9.664357516E-2,3.156040496E-1,3.074634098E-2,3.314984679E-1
2.543521417E0,-9.504248874E-2,3.371124476E-1,1.129231098E-1,3.680074805E-1
2.553547417E0,-4.223643151E-3,3.360774904E-1,1.513043064E-1,3.685904392E-1
2.563573417E0,5.664598885E-2,2.909521884E-1,1.360535254E-1,3.261479814E-1
2.573599417E0,1.211100339E-1,2.411695790E-1,9.309461676E-2,2.854768184E-1
2.583625417E0,1.237155715E-1,1.535502219E-1,-8.774916530E-3,1.973834148E-1
2.593651417E0,9.046881493E-2,1.069742256E-1,-6.124556400E-2,1.529022908E-1
2.603677417E0,1.886363732E-2,6.699447334E-2,-4.529772185E-2,8.304203680E-2
2.613703417E0,-4.641081244E-2,2.581487238E-2,-1.912266098E-2,5.644508225E-2
2.623729417E0,-5.230697568E-2,-3.230001926E-3,-6.278740168E-3,5.278139062E-2
2.633755417E0,-1.817032885E-2,-8.618211150E-3,-6.523190327E-3,2.114205349E-2
2.643781417E0,-1.831407100E-2,1.741768599E-2,1.885957282E-2,3.153513070E-2
2.653807417E0,-1.136174872E-2,2.288483262E-2,8.897298753E-2,9.256887927E-2
2.663832417E0,1.749770605E-2,-1.853567362E-4,1.558049814E-1,1.567845537E-1
2.673858417E0,3.646723850E-2,1.643067598E-4,1.756837604E-1,1.794287328E-1
2.683884417E0,3.631731680E-2,-7.480167568E-2,1.217805451E-1,1.474609757E-1
2.693910417E0,5.234115905E-2,-1.341953534E-1,3.360109784E-2,1.479088354E-1
2.703936417E0,7.950380551E-2,-2.188530958E-1,-5.192802586E-2,2.385666626E-1
2.713962417E0,3.983603414E-2,-2.844068152E-1,-1.851439341E-1,3.416905361E-1
2.723988417E0,-5.455778826E-3,-3.288871694E-1,-2.626043387E-1,4.209009081E-1
2.734014417E0,-1.289775174E-2,-3.610000777E-1,-2.326010692E-1,4.296401582E-1
2.744040417E0,-1.442123921E-2,-3.819459736E-1,-2.070417202E-1,4.346918136E-1
2.754066417E0,-2.385214482E-2,-3.456476283E-1,-1.933908105E-1,3.967886255E-1
2.764092417E0,-4.735830805E-2,-3.368387979E-1,-1.306794226E-1,3.643903081E-1
2.774118417E0,-3.226116497E-2,-3.195719701E-1,-6.929308690E-2,3.285856947E-1
2.784144417E0,-3.462775013E-2,-2.839238352E-1,-7.956540227E-2,2.968879898E-1
2.794170417E0,-2.389200638E-2,-2.622499609E-1,-2.334844373E-2,2.643690976E-1
2.804196417E0,-5.755300163E-2,-2.222602683E-1,4.461315908E-2,2.338852472E-1
2.814222417E0,-7.291483400E-2,-1.157871491E-1,9.256968297E-2,1.652040651E-1
2.824248417E0,-5.249605088E-2,-4.287003100E-2,1.150170708E-1,1.335013164E-1
2.834274417E0,-6.503106512E-2,3.416995883E-2,9.782691456E-2,1.223385905E-1
2.844300417E0,-1.146844282E-1,1.147428364E-1,1.430462837E-2,1.628590156E-1
2.854326417E0,-1.445345737E-1,1.492045712E-1,-1.158993425E-1,2.378758178E-1
2.864352417E0,-1.178332726E-1,1.666292739E-1,-2.252441025E-1,3.039488456E-1
2.874378417E0,-5.197083387E-2,1.602172172E-1,-3.256805563E-1,3.666583546E-1
2.884404417E0,-1.919267596E-3,1.753129739E-1,-2.684935447E-1,3.206666586E-1
2.894430417E0,-2.227766323E-2,1.948964685E-1,-1.090558344E-1,2.244417580E-1
2.904456417E0,-3.442200123E-2,1.997531658E-1,-3.260992169E-3,2.027235445E-1
2.914482417E0,-1.704610228E-2,2.386324722E-1,1.087382575E-1,2.627927606E-1
2.924508417E0,7.193161556E-2,3.036798227E-1,2.034913639E-1,3.725645276E-1
2.934534417E0,1.622565433E-1,2.756909555E-1,3.047878700E-1,4.418465056E-1
2.944560417E0,2.295205550E-1,2.476482940E-1,3.436560667E-1,4.817767687E-1
2.954586417E0,1.770840772E-1,1.838844073E-1,2.465864396E-1,3.549325539E-1
2.964612417E0,7.145217128E-2,9.335722983E-2,1.112046131E-1,1.618253723E-1
2.974638417E0,6.478199314E-3,8.605931997E-3,-1.648863651E-2,1.969528537E-2
2.984664417E0,-1.409699597E-3,-4.357228160E-2,-9.959803618E-2,1.087212021E-1
2.994690417E0,3.302146518E-2,-7.818078160E-2,-1.129079801E-1,1.412475265E-1
3.004716417E0,6.421141796E-2,-9.716669083E-2,-1.041441733E-1,1.562385382E-1
3.014742417E0,7.881669371E-2,-1.569357598E-1,-1.656428486E-1,2.414093147E-1
3.024768417E0,7.315249591E-2,-1.970114064E-1,-2.132806262E-1,2.994217885E-1
3.034794417E0,4.641618000E-2,-2.195752269E-1,-2.059576464E-1,3.046084275E-1
3.044820417E0,5.306285164E-2,-2.173603016E-1,-1.061059141E-1,2.476280112E-1
3.054846417E0,7.100886554E-2,-1.987193781E-1,-7.164176725E-2,2.228546455E-1
3.064872417E0,4.875945167E-3,-2.016523415E-1,-6.113271274E-2,2.107715594E-1
3.074898417E0,-2.652376049E-2,-1.707538998E-1,-4.107208528E-2,1.776156535E-1
3.084924417E0,-8.400603365E-2,-1.616749281E-1,-7.216107309E-2,1.959668761E-1
3.094950417E0,-1.388565070E-1,-1.479187685E-1,-8.465014100E-2,2.198334324E-1
3.104976417E0,-1.346269510E-1,-1.249947596E-1,-4.874122024E-2,1.900626539E-1
3.115002417E0,-8.423455928E-2,-1.093680757E-1,-2.910809733E-2,1.410819560E-1
3.125028417E0,-2.884084303E-2,-1.077969289E-1,3.838463187E-2,1.180057290E-1
3.135054417E0,1.139994908E-1,-3.350103736E-2,9.294858254E-2,1.508563635E-1
3.145080417E0,1.863540702E-1,-5.181217790E-3,7.901167095E-2,2.024784646E-1
3.155106417E0,1.363815999E-1,1.329306006E-2,-9.461306557E-3,1.373541501E-1
3.165132417E0,5.042301650E-2,2.510969818E-2,-1.328704474E-1,1.443174741E-1
3.175158417E0,-5.039865919E-2,3.445530295E-2,-1.414639541E-1,1.540754460E-1
3.185184417E0,-1.009812316E-1,6.190037906E-2,-3.634044528E-3,1.184992504E-1
3.195210417E0,-9.471338186E-2,1.194586158E-1,1.426884341E-1,2.088084644E-1
3.205236417E0,-5.910541912E-2,1.297736889E-1,2.274233598E-1,2.684325715E-1
3.215262417E0,-3.002606907E-2,1.330510533E-1,1.136897528E-1,1.775655020E-1
3.225288417E0,-3.238576777E-2,1.420604432E-1,9.350282550E-3,1.460049152E-1
3.235314417E0,-2.217012014E-2,1.439169341E-1,1.073197961E-2,1.460094981E-1
3.245340417E0,-9.355236695E-3,1.710304731E-1,5.237877309E-2,1.791158258E-1
3.255365417E0,1.018376888E-2,1.635021830E-1,9.045123674E-2,1.871312353E-1
3.265391417E0,-2.386489677E-3,2.087836057E-1,1.102487395E-1,2.361166532E-1
3.275417417E0,-6.516906854E-3,2.171995032E-1,1.249368721E-1,2.506537777E-1
3.285443417E0,4.188662069E-3,1.766227502E-1,4.816928945E-2,1.831213292E-1
3.295469417E0,-5.596070888E-3,1.407693779E-1,-5.389671028E-2,1.508382881E-1
3.305495417E0,8.243507410E-3,1.233014059E-1,-9.857996285E-2,1.580797305E-1
3.315521417E0,-6.153006759E-3,9.550374269E-2,-7.723937988E-2,1.229827068E-1
3.325547417E0,5.272697022E-3,7.009232819E-2,-3.360329054E-2,7.790967167E-2
3.335573417E0,4.549112764E-2,2.699893355E-2,-2.847769439E-2,6.007798420E-2
3.345599417E0,4.442565988E-2,-3.284673393E-2,-4.955924571E-2,7.422038817E-2
3.355625417E0,1.694624623E-2,-5.521818101E-2,-1.194041636E-1,1.326407820E-1
3.365651417E0,-5.757461806E-2,-6.051400423E-2,-1.011169966E-1,1.311542159E-1
3.375677417E0,-4.803050031E-2,-1.025613320E-1,1.181429923E-2,1.138654181E-1
3.385703417E0,5.345501252E-2,-9.978215039E-2,7.052158691E-2,1.333686999E-1
3.395729417E0,8.671814586E-2,-9.162820816E-2,7.646279655E-2,1.475205905E-1
3.405755417E0,7.560846353E-2,-1.124653459E-1,1.509093270E-3,1.355262747E-1
3.415781167E0,4.626329358E-2,-1.293626297E-1,-6.005090475E-2,1.499369649E-1
3.425807167E0,-1.356751718E-2,-1.322657722E-1,-1.213292132E-1,1.799974722E-1
3.435833167E0,-4.072170001E-2,-1.144744492E-1,-1.412318927E-1,1.863037946E-1
3.445859167E0,-7.150826344E-2,-7.646053076E-2,-8.336324193E-2,1.338247907E-1
3.455885167E0,-3.571880403E-2,-5.621396184E-2,-4.155740418E-2,7.850388722E-2
3.465911167E0,-1.979073734E-2,-1.601493895E-2,-5.983039163E-2,6.502174495E-2
3.475937167E0,-2.467316013E-2,-8.853269219E-3,-8.127395868E-2,8.539673042E-2
3.485963167E0,-1.313624619E-2,2.811341286E-3,-8.550200723E-2,8.655089742E-2
3.495989167E0,-5.304162351E-3,1.879295111E-3,-2.654694378E-2,2.713680366E-2
3.506015167E0,3.878623052E-2,1.239317358E-2,7.741830468E-2,8.747317491E-2
3.516041167E0,3.965874930E-2,3.017104805E-2,1.362822247E-1,1.451066962E-1
3.526067167E0,2.810209301E-2,4.314543486E-2,1.160162868E-1,1.269292519E-1
3.536093167E0,2.190316734E-2,5.703958869E-2,6.506079912E-2,8.925340890E-2
3.546119167E0,9.910705051E-3,6.227752447E-2,-2.547514915E-2,6.801246469E-2
3.556145167E0,7.634103057E-3,3.789054215E-2,-2.263866484E-2,4.479377032E-2
3.566171167E0,-1.859041817E-2,3.251636624E-2,2.419044279E-2,4.458806167E-2
3.576197167E0,-6.598306492E-2,3.234972060E-2,4.976207100E-2,8.874983374E-2
3.586223167E0,-6.327947685E-2,3.054877818E-2,5.673677601E-2,9.031379624E-2
3.596249167E0,-7.298081161E-2,8.327019811E-3,-6.852293551E-2,1.004536252E-1
3.606275167E0,-6.155384931E-2,1.360296249E-2,-1.254853410E-1,1.404296541E-1
3.616301167E0,-3.335193793E-2,3.570134461E-2,-9.611068368E-2,1.078155893E-1
3.626327167E0,-3.144645825E-2,3.350162208E-2,1.421406962E-2,4.809655075E-2
3.636353167E0,-4.165538158E-2,5.904693782E-2,1.580859802E-1,1.738185514E-1
3.646379167E0,-3.169060463E-2,6.831828296E-2,2.452673078E-1,2.565691612E-1
3.656405167E0,-1.136948600E-2,8.693172455E-2,2.045379424E-1,2.225357496E-1
3.666431167E0,-4.914277320E-2,6.074789286E-2,1.065830469E-1,1.321562126E-1
3.676457167E0,-5.768833727E-2,1.971330285E-2,-5.145549774E-4,6.096575541E-2
3.686483167E0,-6.403068874E-2,-3.313792527E-2,-8.561493158E-2,1.119284044E-1
3.696509167E0,-5.747321455E-2,-5.109297037E-2,-9.690298140E-2,1.237087297E-1
3.706535167E0,-3.053402766E-2,-6.596127033E-2,-1.452571160E-1,1.624279710E-1
3.716561167E0,-4.816573088E-3,-5.505621314E-2,-2.353189281E-1,2.417217076E-1
3.726587167E0,-8.158329923E-3,-4.627018690E-2,-2.124551455E-1,2.175883209E-1
3.736613167E0,-3.264847677E-2,-5.933520555E-2,-1.229973507E-1,1.404098926E-1
3.746639167E0,-3.477005218E-2,-5.226241350E-2,-1.771764815E-2,6.522446971E-2
3.756665167E0,-5.642500521E-2,-2.093887925E-3,1.500062976E-1,1.602811745E-1
3.766691167E0,-5.430967445E-2,1.121203601E-2,2.360843287E-1,2.425099188E-1
3.776717167E0,-5.013855403E-2,1.949052393E-2,1.928494314E-1,2.002115339E-1
3.786743167E0,-2.572856200E-2,2.249365389E-2,6.942742668E-2,7.738275611E-2
3.796769167E0,-2.519624610E-2,-8.766145706E-3,-6.012107134E-3,2.734669195E-2
3.806795167E0,-2.145726690E-2,-4.145208120E-2,-5.523053326E-2,7.231252411E-2
3.816821167E0,-3.407645820E-2,-1.164116317E-1,-6.950877607E-2,1.398010835E-1
3.826847167E0,-5.008322018E-2,-1.080185384E-1,-9.517922223E-2,1.524316828E-1
3.836872167E0,-4.567337804E-2,-1.153468537E-1,-8.997044943E-2,1.532502395E-1
3.846898167E0,3.584356899E-3,-8.596517980E-2,-3.047510326E-2,9.127755294E-2
3.856924167E0,1.919251693E-2,-3.087271392E-2,2.735853732E-2,4.549688710E-2
3.866950167E0,-1.829292281E-3,5.306348205E-3,4.452705882E-2,4.487942300E-2
3.876976167E0,-4.927223878E-2,3.278592288E-2,4.890837751E-2,7.677694735E-2
3.887002167E0,-3.923263803E-2,3.092709303E-2,4.844352387E-2,6.958778610E-2
3.897028167E0,-7.726404782E-2,6.239856184E-2,8.124596514E-2,1.283129785E-1
3.907054167E0,-9.400974255E-2,9.244447947E-2,1.183968345E-1,1.772050335E-1
3.917080167E0,-5.393773215E-2,8.578274667E-2,1.078309158E-1,1.479711627E-1
3.927106167E0,2.754183382E-2,6.716988981E-2,5.785878360E-2,9.283310588E-2
3.937132167E0,6.132552010E-2,2.420747280E-2,-6.408036724E-3,6.624110574E-2
3.947158167E0,7.899009107E-2,-7.190321088E-3,-6.385342218E-2,1.018253148E-1
3.957184167E0,7.861713007E-2,-3.587851524E-2,-5.665835023E-2,1.033348424E-1
3.967210167E0,3.263101507E-2,-4.103868306E-2,-3.023770630E-2,6.052499925E-2
3.977236167E0,-3.167739130E-2,2.520734668E-2,2.115120627E-2,4.567538694E-2
3.987262167E0,-5.819820534E-2,5.399026573E-2,8.341703631E-2,1.151537314E-1
3.997288167E0,-5.222231439E-2,5.309037924E-2,9.075821556E-2,1.174002222E-1
4.007314167E0,-6.980287731E-2,2.921444356E-2,1.173336645E-1,1.396177432E-1
4.017340167E0,-9.548036297E-2,3.104286790E-2,7.590679944E-2,1.258650133E-1
4.027366167E0,-7.006861956E-2,3.211758614E-2,4.189405762E-2,8.772834690E-2
4.037392167E0,-1.141708827E-2,1.048288822E-2,-1.608678661E-2,2.233887987E-2
4.047418167E0,5.234461713E-3,7.186228037E-4,-4.771912694E-3,7.119491479E-3
4.057444167E0,3.719496560E-2,-3.420855045E-2,7.343576610E-2,8.914315528E-2
4.067470167E0,5.561434815E-2,-2.531785905E-2,1.782862830E-1,1.884673670E-1
4.077496167E0,2.839928688E-2,-4.114393294E-2,1.373201785E-1,1.461375179E-1
4.087522167E0,1.042363035E-2,-6.023392260E-2,4.637836039E-2,7.673154380E-2
4.097548167E0,-2.062523095E-2,-5.775587261E-2,-2.709248900E-2,6.704583457E-2
4.107574167E0,-6.163193705E-2,-4.820444584E-2,-6.325941816E-2,1.006176836E-1
4.117600167E0,-4.351300545E-2,-2.725387216E-2,-7.506947815E-2,9.094823660E-2
4.127626167E0,-2.556352891E-2,-1.287615359E-2,-2.598509945E-2,3.865895413E-2
4.137652167E0,4.682766410E-2,-6.719035506E-3,1.740072906E-2,5.040596130E-2
4.147678167E0,7.474813711E-2,6.958186626E-5,3.561714470E-2,8.280018019E-2
4.157704167E0,5.956439814E-2,1.238557220E-2,4.444826759E-2,7.534565957E-2
4.167730167E0,3.615298606E-3,7.442336082E-3,4.896458387E-2,4.965872757E-2
4.177756167E0,-3.529262424E-2,7.671546936E-4,9.468798302E-2,1.010543021E-1
4.187782167E0,-5.191126536E-2,-3.295081437E-2,1.749160210E-1,1.854080636E-1
4.197808167E0,-1.703666565E-2,-6.074087620E-2,1.862507755E-1,1.966444847E-1
4.207834167E0,3.080205398E-2,-8.355203390E-2,9.284793735E-2,1.286485459E-1
4.217860167E0,6.054174196E-2,-9.340166867E-2,2.018575788E-2,1.131222306E-1
4.227886167E0,5.975319925E-2,-6.960817873E-2,-4.930664599E-2,1.041483975E-1
4.237912167E0,8.600985618E-2,-4.151815474E-2,-3.424823843E-2,1.014612949E-1
4.247938167E0,7.076531530E-2,-3.105163872E-2,2.946477748E-2,8.270494078E-2
4.257964167E0,5.949760055E-3,-3.493068159E-2,1.045037770E-1,1.103475943E-1
4.267990167E0,-6.658885930E-2,8.712351322E-4,1.289282546E-1,1.451114402E-1
4.278016167E0,-9.962809453E-2,5.084095538E-2,1.756662188E-1,2.082526840E-1
4.288042167E0,-6.095501677E-2,9.337535620E-2,2.212948930E-1,2.478021406E-1
4.298068167E0,7.106676782E-3,1.024379557E-1,2.198751891E-1,2.426708437E-1
4.308094167E0,4.977398927E-2,1.100732499E-1,1.980463636E-1,2.319826125E-1
4.318120167E0,6.326037747E-2,1.034501088E-1,1.694452929E-1,2.083638828E-1
4.328146167E0,7.058609358E-2,8.367482543E-2,7.066126227E-2,1.302953837E-1
4.338172167E0,-1.921752292E-2,5.571051657E-2,-3.938275158E-2,7.088001105E-2
4.348198167E0,-5.349471420E-2,2.004367054E-2,-1.283025295E-1,1.404456202E-1
4.358224167E0,-5.623798567E-2,1.230137229E-2,-1.531368238E-1,1.635998826E-1
4.368250167E0,-4.313881563E-2,2.983424842E-2,-4.651935138E-2,7.010770175E-2
4.378275167E0,5.289142316E-2,5.492523551E-2,8.393853486E-2,1.134017715E-1
4.388301167E0,1.141192765E-1,6.915911257E-2,1.227465782E-1,1.813088927E-1
4.398327167E0,1.231420236E-1,5.310558200E-2,1.106252271E-1,1.738450508E-1
4.408353167E0,9.150076627E-2,1.997467339E-2,4.498613834E-2,1.038996172E-1
4.418378792E0,1.082733125E-1,-4.463764429E-3,1.468228541E-2,1.093554064E-1
4.428404792E0,8.241924550E-2,-7.141029060E-2,2.444720864E-3,1.090795045E-1
4.438430792E0,6.476104253E-2,-9.076282024E-2,2.340764679E-2,1.139289256E-1
4.448456792E0,1.399530838E-2,-1.122829127E-1,-4.255493917E-2,1.208893874E-1
4.458482792E0,-4.999274822E-2,-1.461242580E-1,-1.176676136E-1,1.941577734E-1
4.468508792E0,-8.836876002E-2,-1.254221910E-1,-1.178688309E-1,1.934756446E-1
4.478534792E0,-9.655999652E-2,-1.121998823E-1,-8.640671767E-2,1.714023552E-1
4.488560792E0,-7.790170496E-2,-9.212229788E-2,-2.319890119E-2,1.228551278E-1
4.498586792E0,-6.708395401E-2,-6.877378106E-2,5.935267411E-2,1.129284276E-1
4.508612792E0,-1.720038998E-2,-3.932544887E-2,5.533973001E-2,7.003449194E-2
4.518638792E0,1.949982923E-2,-2.407707989E-2,4.877447627E-2,5.778320389E-2
4.528664792E0,6.111686130E-2,-4.007740080E-2,-4.301211834E-3,7.321181062E-2
4.538690792E0,5.060709873E-2,-3.985754550E-2,-5.116138279E-2,8.226292886E-2
4.548716792E0,9.626225447E-3,-2.851979434E-2,-1.971622646E-2,3.598294696E-2
4.558742792E0,-1.119475132E-2,-4.996855080E-2,1.778189443E-2,5.420677352E-2
4.568768792E0,-2.833433483E-2,-4.684613764E-2,-3.051435269E-2,6.267791367E-2
4.578794792E0,-3.484991235E-2,-4.128426611E-2,-1.019198924E-1,1.153541135E-1
4.588820792E0,-2.884331211E-2,-2.897529244E-2,-1.143417174E-1,1.214311844E-1
4.598846792E0,-3.631776448E-3,-3.241111636E-3,-3.164747000E-2,3.201963401E-2
4.608872792E0,3.201365873E-2,2.615868866E-2,5.859195136E-2,7.170891229E-2
4.618898792E0,4.477902814E-2,4.802259743E-2,9.973756537E-2,1.194106912E-1
4.628924792E0,4.315933113E-2,5.701912344E-2,9.783553921E-2,1.211845742E-1
4.638950792E0,4.986389478E-2,8.323686898E-2,8.835727572E-2,1.312318274E-1
4.648976792E0,1.027138118E-2,9.701232433E-2,2.945476413E-2,1.019042466E-1
4.659002792E0,-4.079525616E-2,7.782176256E-2,-1.786331691E-2,8.966369245E-2
4.669028792E0,-4.246940080E-2,6.791891813E-2,-8.054247200E-2,1.135945388E-1
4.679054792E0,-7.043820470E-2,3.814255714E-2,-9.925999403E-2,1.275497619E-1
4.689080792E0,-5.193656371E-2,3.157788813E-2,-6.976773463E-2,9.253165115E-2
4.699106792E0,-1.098945924E-3,5.540412247E-2,-5.548656821E-2,7.841928156E-2
4.709132792E0,-5.902729940E-3,6.606418133E-2,-5.610922359E-2,8.687671292E-2
4.719158792E0,-1.864058432E-2,6.935090125E-2,-2.220005058E-2,7.516555816E-2
4.729184792E0,1.665385690E-2,7.033030987E-2,3.480189666E-3,7.235893280E-2
4.739210792E0,2.602862238E-2,5.151747823E-2,7.968585491E-3,5.826695548E-2
4.749236792E0,2.014284708E-2,4.435171545E-2,-3.339110970E-2,5.905738869E-2
4.759262792E0,2.810571555E-2,3.299116015E-2,-7.228028320E-2,8.427803530E-2
4.769288792E0,-4.074516882E-3,1.175465763E-2,-8.502195083E-2,8.592732852E-2
4.779314792E0,-4.190246756E-2,-3.031196594E-3,-1.228166717E-1,1.298034660E-1
4.789340792E0,-4.893651267E-2,-4.308228493E-2,-1.887796962E-1,1.997214041E-1
4.799366792E0,-5.805657481E-2,-8.146340847E-2,-1.577672338E-1,1.868083319E-1
4.809392792E0,-5.432814343E-2,-1.072274101E-1,-1.597237122E-1,1.999022983E-1
4.819418792E0,-1.807113061E-2,-1.004563344E-1,-1.750200284E-1,2.026081222E-1
4.829444792E0,3.770346323E-2,-6.448192477E-2,-1.357507128E-1,1.549442667E-1
4.839470792E0,1.197510679E-1,1.454377949E-2,-1.107988894E-2,1.211387788E-1
4.849496792E0,1.497500434E-1,3.393490076E-2,6.384099685E-2,1.662898850E-1
4.859521792E0,1.198341441E-1,1.394443989E-2,4.764837563E-2,1.297113611E-1
4.869547792E0,4.672067375E-2,-2.489744425E-2,9.314614534E-3,5.375375457E-2
4.879573792E0,-2.909818676E-2,-5.172856271E-2,-1.109275281E-2,6.037878632E-2
4.889599792E0,-3.358348538E-2,-6.864514232E-2,-2.722997166E-2,8.112630530E-2
4.899625792E0,3.134005263E-2,-8.959454656E-2,-5.711209416E-2,1.107753265E-1
4.909651792E0,7.176202346E-2,-6.800954998E-2,-4.752858080E-2,1.096998309E-1
4.919677792E0,7.227759256E-2,-9.398814440E-3,-4.501720168E-2,8.566759333E-2
4.929703792E0,4.845342302E-2,1.019052744E-2,-6.506072603E-2,8.175866391E-2
4.939729792E0,1.417107660E-2,2.751992047E-2,-3.848878540E-2,4.939182155E-2
4.949755792E0,-2.111657065E-2,3.623811901E-2,4.030244552E-2,5.816698325E-2
4.959781792E0,-4.479776664E-2,5.792310297E-2,7.203711212E-2,1.027193812E-1
4.969807792E0,-3.061909551E-2,8.828184664E-2,2.700828910E-3,9.347998681E-2
4.979833792E0,2.114038435E-2,7.177749574E-2,-2.636684954E-2,7.933558786E-2
4.989859792E0,6.108518584E-2,7.488119781E-2,4.321092367E-3,9.673296002E-2
4.999885792E0,9.095435310E-2,5.058075428E-2,3.592003047E-2,1.100970283E-1
5.009911792E0,8.315934769E-2,8.712351322E-5,7.300248742E-3,8.347920897E-2
5.019937792E0,3.541888298E-2,4.705839157E-3,-3.578152455E-2,5.056638897E-2
5.029963792E0,-1.840292698E-2,-5.595200658E-3,-4.202635087E-2,4.621891560E-2
5.039989792E0,-6.347940138E-2,7.766271830E-3,-2.298196949E-2,6.795675315E-2
5.050015792E0,-3.877132469E-2,3.650709093E-2,1.399823427E-2,5.506299909E-2
5.060041792E0,1.872973037E-2,2.327601135E-2,4.496274948E-2,5.398355625E-2
5.070067792E0,2.579009024E-2,3.754497170E-3,1.371815264E-2,2.945187117E-2
5.080093792E0,9.359273786E-3,2.485008180E-2,-6.917848147E-2,7.409983043E-2
5.090119792E0,-3.263615422E-3,8.256268501E-3,-7.785107173E-2,7.835564131E-2
5.100145792E0,2.352606661E-2,1.993023455E-2,-1.029870093E-2,3.250774216E-2
5.110171792E0,4.063462218E-2,4.370033562E-2,2.307888709E-2,6.398067585E-2
5.120197792E0,2.735398745E-2,4.873654246E-3,5.622916460E-2,6.271931191E-2
5.130223792E0,-7.686507585E-4,-5.981701612E-4,3.781920612E-2,3.783174570E-2
5.140249792E0,-2.485962464E-2,-2.482727766E-3,1.696971618E-2,3.020159170E-2
5.150275792E0,-4.741136697E-2,-1.441455603E-2,-2.111319937E-2,5.386449973E-2
5.160301792E0,-4.896628322E-2,-5.837333858E-2,-5.311961532E-2,9.288076809E-2
5.170327792E0,4.222469711E-3,-5.828796923E-2,-7.158329509E-2,9.240933256E-2
5.180353792E0,4.740465180E-2,-4.931600153E-2,-2.605811656E-2,7.320037198E-2
5.190379792E0,9.592806783E-2,-2.058336854E-2,3.112187840E-2,1.029292989E-1
5.200405792E0,7.797977443E-2,-4.734490514E-3,6.298796117E-2,1.003530960E-1
5.210431792E0,5.109816434E-2,-1.015368998E-2,4.579597771E-2,6.936419389E-2
5.220457792E0,4.810658264E-2,-9.268421531E-3,-3.555764928E-3,4.912016281E-2
5.230483792E0,3.635060710E-2,1.359711528E-2,2.725153327E-2,4.742250780E-2
5.240509792E0,4.801768212E-2,1.243702769E-3,4.761219598E-2,6.763257942E-2
5.250535792E0,1.106120434E-1,-2.084883213E-2,4.685549319E-2,1.219226607E-1
5.260561792E0,1.120248678E-1,-2.796021581E-2,2.451730214E-2,1.180357691E-1
5.270587792E0,8.189451272E-2,-3.582062781E-2,-2.586808205E-3,8.942326412E-2
5.280613792E0,6.238570710E-2,-1.565299630E-2,-2.724809803E-2,6.985307144E-2
5.290639792E0,2.067381537E-2,-7.701367736E-3,-9.815720916E-2,1.006059413E-1
5.300665792E0,-2.478134047E-2,-7.957475781E-3,-7.798891984E-2,8.221744264E-2
5.310690792E0,-5.177418013E-2,-8.589559793E-4,-3.895181179E-2,6.479619723E-2
5.320716792E0,-5.179162128E-2,-2.247143447E-2,-1.828884803E-2,5.934491860E-2
5.330742792E0,-6.400188207E-2,-3.638722301E-3,-2.110318601E-2,6.748944857E-2
5.340768792E0,-4.222949593E-2,4.943002224E-2,4.483754598E-2,7.897507806E-2
5.350794792E0,2.796926072E-2,6.124607563E-2,1.436673311E-1,1.586621043E-1
5.360820792E0,1.303605118E-1,8.644289732E-2,1.773412999E-1,2.364660106E-1
5.370846792E0,1.386545497E-1,6.935382485E-2,1.650733298E-1,2.264602424E-1
5.380872792E0,4.849962516E-2,1.590676546E-2,1.022799347E-1,1.143084593E-1
5.390898792E0,-6.557508458E-2,-9.320461750E-3,-2.063657820E-2,6.937457088E-2
5.400924792E0,-1.351693899E-1,3.111888170E-3,-1.099657343E-1,1.742782560E-1
5.410950792E0,-1.456337771E-1,-1.238615692E-2,-1.165017519E-1,1.869097968E-1
5.420977083E0,-9.009977340E-2,-3.907167971E-2,-7.662432589E-2,1.245626454E-1
5.431003083E0,-3.169462003E-2,-3.882024944E-2,-2.971554995E-3,5.020349434E-2
5.441029083E0,4.291131782E-2,-4.638011456E-3,5.852485456E-2,7.271898616E-2
5.451055083E0,7.161437670E-2,9.314614534E-4,5.861548640E-2,9.254869970E-2
5.461081083E0,3.073158132E-2,9.049150944E-3,2.225508749E-2,3.900777029E-2
5.471107083E0,7.301269721E-3,6.191792071E-2,5.260155201E-3,6.256841597E-2
5.481133083E0,-4.699920679E-2,1.820472121E-2,3.488163806E-2,6.129490996E-2
5.491159083E0,-3.714692707E-2,6.739910066E-2,1.164297581E-1,1.395651157E-1
5.501185083E0,-7.905695032E-2,9.385950565E-3,8.609206438E-2,1.172601425E-1
5.511211083E0,-4.061871136E-2,1.545243680E-2,3.639891744E-3,4.361085103E-2
5.521237083E0,-1.918091843E-2,3.579665422E-3,-3.662235416E-2,4.149600536E-2
5.531263083E0,-7.791622707E-3,2.480798185E-2,-5.251092017E-2,5.859643406E-2
5.541289083E0,1.075380617E-3,1.745920122E-2,-4.692397870E-2,5.007833791E-2
5.551315083E0,-1.315500182E-3,5.884637833E-3,2.680648707E-2,2.747630347E-2
5.561341083E0,6.232480926E-3,-1.161081612E-2,1.435572573E-1,1.441608164E-1
5.571367083E0,2.660968715E-2,-2.734567344E-2,1.340935387E-1,1.394164210E-1
5.581393083E0,2.233184590E-2,-6.729911327E-2,3.899851643E-2,8.092444793E-2
5.591419083E0,4.036594719E-2,-9.923134267E-2,-8.570782922E-2,1.371936626E-1
5.601445083E0,5.488386189E-2,-1.078852218E-1,-7.941162050E-2,1.447676237E-1
5.611471083E0,8.480886664E-3,-8.718490899E-2,-5.378342047E-3,8.776138306E-2
5.621497083E0,-4.240779490E-2,-7.760073781E-2,8.018930018E-2,1.193759584E-1
5.631523083E0,-7.529492486E-2,-6.247691453E-2,4.240634680E-2,1.066348386E-1
5.641549083E0,-1.008650090E-1,-4.713732898E-2,-5.716530383E-2,1.251541042E-1
5.651575083E0,-1.057429391E-1,-3.607556641E-2,-1.368786407E-1,1.766883639E-1
5.661601083E0,-1.935862126E-2,-4.053465307E-2,-1.776553684E-1,1.832464031E-1
5.671627083E0,4.506344493E-2,-1.626110673E-2,-1.385263860E-1,1.465765919E-1
5.681653083E0,7.781196848E-2,-1.703352392E-2,1.464603268E-2,8.098981200E-2
5.691679083E0,7.004403384E-2,3.557913780E-2,1.404746783E-1,1.609508526E-1
5.701705083E0,1.214256899E-2,4.446339726E-2,1.488016981E-1,1.557767025E-1
5.711731083E0,-4.615210969E-2,8.968459368E-2,1.075577047E-1,1.474516986E-1
5.721757083E0,-1.001315215E-1,9.592941999E-2,7.572845936E-2,1.579986544E-1
5.731782083E0,-8.963757841E-2,9.448457301E-2,7.632019758E-2,1.509536437E-1
5.741808083E0,-2.368522508E-2,9.211177289E-2,6.389362179E-2,1.145773254E-1
5.751834083E0,1.358562984E-2,8.164408743E-2,3.758641385E-2,9.090140184E-2
5.761860083E0,2.577629447E-2,3.469737768E-2,-2.683988929E-2,5.087931831E-2
5.771886083E0,2.824282818E-2,-9.016991258E-3,-1.196848299E-1,1.233021573E-1
5.781912083E0,6.946630153E-2,-5.070413053E-2,-2.046624881E-1,2.219982206E-1
5.791938083E0,5.598278669E-2,-6.931055546E-2,-1.841071862E-1,2.045323483E-1
5.801964083E0,4.045318948E-2,-6.593144953E-2,-9.605630457E-2,1.233297621E-1
5.811990083E0,5.527276569E-2,-7.140619755E-2,-2.264049210E-2,9.309412203E-2
5.822016083E0,2.997251223E-2,-9.082830906E-2,-1.392814077E-2,9.665467563E-2
5.832042083E0,1.152795696E-2,-1.153316510E-1,-5.202026568E-2,1.270448407E-1
5.842068083E0,-8.512198390E-3,-1.040131956E-1,-1.674384554E-1,1.972988564E-1
5.852094083E0,-1.085589261E-2,-7.331238985E-2,-2.412659850E-1,2.523922194E-1
5.862120083E0,1.828321095E-2,-1.488642633E-2,-2.642367717E-1,2.652865489E-1
5.872146083E0,6.889595589E-2,2.994125247E-2,-2.245500380E-1,2.367822859E-1
5.882172083E0,1.148680855E-1,6.984382153E-2,-1.561960139E-1,2.060825836E-1
5.892198083E0,8.959474755E-2,9.656442761E-2,-1.297725195E-1,1.849129911E-1
5.902224083E0,6.073975244E-2,1.103966010E-1,-1.117981055E-1,1.684504183E-1
5.912250083E0,5.242169074E-2,1.017216718E-1,-4.514043175E-2,1.230162215E-1
5.922276083E0,3.524176260E-2,8.095820904E-2,6.597420730E-2,1.102216379E-1
5.932302083E0,1.460360382E-3,5.350787044E-2,1.603125268E-1,1.690128134E-1
5.942328083E0,-4.417957433E-2,1.642015100E-2,1.691383141E-1,1.755825317E-1
5.952354083E0,-7.601314567E-2,-9.273684025E-4,1.357548789E-1,1.555899915E-1
5.962380083E0,-9.041177717E-2,-1.541326046E-2,1.247410635E-1,1.548295546E-1
5.972406083E0,-8.691213638E-2,-3.658544362E-2,6.330378391E-2,1.135763320E-1
5.982432083E0,-9.920932425E-2,-2.868000805E-2,4.037911713E-2,1.108851026E-1
5.992458083E0,-1.558521611E-1,-1.490864575E-2,5.848955199E-2,1.671322576E-1
6.002484083E0,-1.909121027E-1,-5.752490759E-3,8.341338180E-2,2.084186037E-1
6.012510083E0,-2.034878921E-1,9.377764463E-3,1.173552992E-1,2.350904740E-1
6.022536083E0,-1.251324524E-1,2.953428626E-2,1.477351660E-1,1.958470933E-1
6.032562083E0,-3.504422035E-2,2.840285003E-2,1.364004115E-1,1.436659025E-1
6.042588083E0,5.687888619E-2,6.020644069E-2,9.222462416E-2,1.239572688E-1
6.052614083E0,1.140850429E-1,6.953391910E-2,8.193476714E-2,1.567280096E-1
6.062640083E0,1.125509893E-1,5.404113650E-2,2.794910610E-2,1.279426518E-1
6.072666083E0,4.896757144E-2,4.580124021E-2,9.346262589E-3,6.769733585E-2
6.082692083E0,-6.267970327E-2,1.618509293E-2,1.395204127E-2,6.622206499E-2
6.092718083E0,-1.381061722E-1,2.111371100E-2,3.747012734E-2,1.446482424E-1
6.102744083E0,-1.180179167E-1,1.476948202E-2,5.808441304E-2,1.323637612E-1
6.112770083E0,-1.105896322E-1,1.695692539E-5,1.606405556E-2,1.117502613E-1
6.122796083E0,-8.687721753E-2,3.370335102E-3,-6.014504492E-2,1.057186668E-1
6.132821083E0,-7.430102154E-2,-2.228490829E-2,-1.426498425E-1,1.623768349E-1
6.142847083E0,-5.948234526E-2,-2.633936763E-2,-1.819718561E-1,1.932502732E-1
6.152873083E0,-4.023783378E-2,-1.809303939E-2,-1.230476367E-1,1.307178727E-1
6.162899083E0,-2.977688861E-2,-4.398392558E-2,4.849607572E-3,5.333636188E-2
6.172925083E0,-9.900675706E-3,-1.266442591E-1,1.057755464E-1,1.653035328E-1
6.182951083E0,-4.677780288E-2,-1.695318317E-1,1.362646830E-1,2.224798163E-1
6.192977083E0,-8.288157754E-2,-2.035491782E-1,-6.998459324E-3,2.198877038E-1
6.203003083E0,-8.393550161E-2,-1.991415471E-1,-1.707101188E-1,2.753987452E-1
6.213029083E0,-5.092503651E-2,-1.437777704E-1,-2.006284940E-1,2.520261876E-1
6.223055083E0,-4.871909675E-2,-9.587737978E-2,-1.588600785E-1,1.918398990E-1
6.233081083E0,-9.227858756E-3,-5.792427242E-2,-1.859449661E-1,1.949766784E-1
6.243107083E0,-2.463376908E-2,-9.982366562E-3,-2.286992222E-1,2.302385816E-1
6.253133083E0,-1.582715082E-2,5.490710914E-2,-1.413599467E-1,1.524726988E-1
6.263159083E0,-4.255175517E-2,1.296392030E-1,-2.710301399E-2,1.391098421E-1
6.273185083E0,-5.648193334E-2,1.759649384E-1,5.951763868E-2,1.941551381E-1
6.283211083E0,7.592866482E-3,2.002770764E-1,1.240276301E-1,2.356934703E-1
6.293237083E0,9.146645042E-2,2.175900972E-1,1.689289838E-1,2.902560310E-1
6.303263083E0,1.095933306E-1,1.634016109E-1,2.125608339E-1,2.896426983E-1
6.313289083E0,8.108161270E-2,1.109035546E-1,2.448678698E-1,2.807741085E-1
6.323315083E0,5.912579758E-2,2.242991924E-2,1.914068502E-1,2.015825973E-1
6.333341083E0,4.246150249E-2,-3.740756214E-2,6.546009086E-2,8.652934990E-2
6.343367083E0,2.990580373E-2,-6.703598857E-2,-3.814672329E-2,8.272456320E-2
6.353393083E0,6.620107013E-2,-5.386279643E-2,-1.414296017E-1,1.651850924E-1
6.363419083E0,5.401359520E-2,-6.980815351E-2,-1.198538876E-1,1.488475768E-1
6.373445083E0,4.868879629E-2,-5.102397323E-2,-5.580465674E-2,8.993444525E-2
6.383471083E0,5.694294518E-2,-3.237954140E-2,-3.469803549E-2,7.412750754E-2
6.393497083E0,3.772048182E-2,-3.046574771E-2,-4.253973641E-2,6.450291238E-2
6.403523083E0,1.099789636E-1,-8.347485065E-3,-8.713447675E-3,1.106389493E-1
6.413548958E0,1.417978118E-1,-2.583299875E-3,2.174981497E-2,1.434794317E-1
6.423574958E0,1.326420040E-1,1.060684919E-3,5.556426309E-2,1.438138158E-1
6.433600958E0,2.751734861E-2,-1.239785135E-2,6.404045999E-2,7.079612778E-2
6.443626958E0,-3.370893100E-2,3.180300593E-3,5.701027952E-2,6.630669885E-2
6.453652958E0,-9.643733290E-2,-3.260992169E-3,5.396037184E-2,1.105554837E-1
6.463678958E0,-6.362201862E-2,6.154779196E-3,3.759759665E-2,7.415673829E-2
6.473704958E0,-5.518831682E-3,1.122548461E-2,-3.853899837E-3,1.308898590E-2
6.483730958E0,6.618231336E-2,3.769524515E-2,3.560537718E-2,8.407599534E-2
6.493756958E0,1.119271827E-1,7.209207594E-2,2.708963849E-2,1.358632039E-1
6.503782958E0,1.619144995E-1,4.856463432E-2,-9.063184261E-5,1.690409331E-1
6.513807958E0,1.517656243E-1,5.035797536E-2,-1.085352860E-2,1.602701765E-1
6.523833958E0,7.697209817E-2,4.345767617E-2,3.767302573E-2,9.608605717E-2
6.533859958E0,2.364905000E-2,5.328333735E-2,8.036113523E-2,9.927891851E-2
6.543885958E0,-3.760269469E-2,4.884822428E-2,7.619550571E-2,9.800952379E-2
6.553911958E0,-4.980582462E-2,4.109364688E-2,5.073285498E-2,8.211656687E-2
6.563937958E0,-2.639198343E-2,6.390188098E-2,1.243775859E-3,6.914863817E-2
6.573963958E0,4.642831754E-2,7.562437892E-2,1.534068190E-2,9.005538228E-2
6.583989958E0,8.580840133E-2,6.815748453E-2,1.849583946E-2,1.111333456E-1
6.594015958E0,4.792324958E-2,5.915277243E-2,5.445219576E-2,9.359877115E-2
6.604041958E0,4.883741607E-2,4.789220452E-2,4.713784061E-2,8.307064752E-2
6.614067958E0,7.502527229E-2,3.379866064E-2,3.008918703E-2,8.761563855E-2
6.624093958E0,7.322649973E-2,4.574861526E-3,-9.881794453E-5,7.336933546E-2
6.634119958E0,5.039116745E-2,-4.591058314E-2,-2.120792426E-2,7.139206855E-2
6.644145958E0,6.020260345E-2,-6.883166850E-2,-4.531540968E-2,1.020570351E-1
6.654171958E0,4.844252345E-2,-8.077636063E-2,-5.069711387E-2,1.069658631E-1
6.664197958E0,5.277828182E-3,-7.742532134E-2,-4.017395295E-2,8.738696900E-2
6.674223958E0,-7.117200057E-3,-8.826722860E-2,-2.199488640E-2,9.124435988E-2
6.684249958E0,5.449780861E-3,-9.519968748E-2,-1.724168479E-2,9.690178689E-2
6.694275958E0,-3.615350797E-2,-1.046616518E-1,-2.919280887E-2,1.145135695E-1
6.704301958E0,-5.887245325E-2,-1.248684597E-1,-8.772511862E-2,1.635658718E-1
6.714327958E0,-3.542634275E-2,-1.149393028E-1,-1.154059106E-1,1.666871120E-1
6.724353958E0,-1.150013701E-2,-1.051393694E-1,-9.773686744E-2,1.440105392E-1
6.734379958E0,3.306877281E-2,-9.250178218E-2,-6.020176291E-2,1.152144770E-1
6.744405958E0,6.109224818E-2,-6.159866273E-2,-6.434626937E-2,1.080143528E-1
6.754431958E0,5.421986487E-2,-4.629825354E-3,-7.987121165E-2,9.664698381E-2
6.764457958E0,1.348117025E-2,8.639845848E-3,-7.999926567E-2,8.158597548E-2
6.774483958E0,-1.296837400E-2,2.069621980E-2,-2.288190901E-2,3.346780540E-2
6.784509958E0,-3.179432647E-3,5.320381522E-2,3.134100281E-2,6.183052000E-2
6.794535958E0,-6.385525857E-2,2.399054110E-2,8.944251895E-2,1.124855738E-1
6.804561958E0,-1.023977927E-1,9.275438190E-3,1.044955178E-1,1.465969132E-1
6.814587958E0,-9.815797660E-2,-5.280620456E-3,7.839588605E-2,1.257330039E-1
6.824613958E0,-1.111222130E-1,-1.593717098E-2,3.033820532E-2,1.162864839E-1
6.834639958E0,-1.336680076E-1,-7.559280396E-3,-3.018566608E-2,1.372423164E-1
6.844665958E0,-1.300696951E-1,-2.100144446E-2,-8.104116641E-2,1.546830854E-1
6.854690958E0,-1.154446301E-1,-2.601952493E-2,-7.626347959E-2,1.407856407E-1
6.864716958E0,-8.065010645E-2,-2.669721723E-2,-4.585437678E-2,9.653913687E-2
6.874742958E0,-2.860047678E-2,-2.512256205E-2,-3.489618301E-2,5.164178526E-2
6.884768958E0,1.023727890E-2,-5.836339831E-2,-8.924897611E-2,1.071282777E-1
6.894794958E0,4.185567156E-2,-7.026657522E-2,-1.072665864E-1,1.348903607E-1
6.904820958E0,5.361463237E-2,-4.548782945E-2,-4.214724205E-2,8.197598090E-2
6.914846958E0,2.772508008E-2,-2.509508014E-2,5.895462491E-2,6.981468979E-2
6.924872958E0,8.245553935E-3,-1.454202533E-3,5.775002539E-2,5.835382847E-2
6.934898958E0,-8.154754442E-2,3.998501480E-2,2.325262249E-2,9.375226857E-2
6.944924958E0,-1.412027480E-1,7.170265138E-2,-2.930039763E-2,1.610527850E-1
6.954950958E0,-1.298459112E-1,6.542449594E-2,-7.156516872E-2,1.620552334E-1
6.964976958E0,-7.930997944E-2,8.110906720E-2,-2.925069630E-2,1.171510002E-1
6.975002958E0,-1.771543489E-2,9.536867201E-2,8.486999631E-2,1.288873016E-1
6.985028958E0,7.274404506E-2,1.411471081E-1,1.442485444E-1,2.145270257E-1
6.995054958E0,7.178843643E-2,1.252502829E-1,1.018497258E-1,1.766764829E-1
7.005080958E0,3.512078462E-2,9.122241139E-2,5.795460485E-2,1.136386117E-1
7.015106958E0,5.362699603E-3,6.435036242E-2,3.751800142E-2,7.468151124E-2
7.025132958E0,-1.000418855E-2,4.566383064E-2,5.340729833E-2,7.097611381E-2
7.035158958E0,8.282447354E-3,1.690956295E-2,5.969422460E-2,6.259339185E-2
7.045184958E0,-8.527732340E-3,-1.916600347E-2,2.015367128E-2,2.909000471E-2
7.055210958E0,-1.447384588E-3,-4.934816122E-2,-2.333499514E-2,5.460639098E-2
7.065236958E0,5.854042734E-3,-6.149341285E-2,-7.809599698E-2,9.957255839E-2
7.075262958E0,4.495378223E-2,-8.601546586E-2,-1.269921684E-1,1.598327681E-1
7.085288958E0,6.156499099E-2,-9.761166394E-2,-1.263652738E-1,1.711328942E-1
7.095314958E0,1.001943882E-1,-8.361401439E-2,-6.345639624E-2,1.451100722E-1
7.105340958E0,9.489269952E-2,-9.536808729E-2,-4.013404571E-2,1.403938678E-1
7.115366958E0,4.679648199E-2,-5.681096256E-2,-4.534164906E-2,8.644802677E-2
7.125392958E0,-4.350278196E-3,-6.743593812E-3,-2.380343020E-2,2.511979831E-2
7.135418958E0,-9.225642068E-3,5.409259200E-3,3.684199020E-2,3.836280489E-2
7.145444958E0,-1.319240116E-2,2.291172981E-2,2.771989524E-2,3.830638855E-2
7.155470958E0,-2.477459105E-2,-1.803281307E-3,-9.343850613E-4,2.485770023E-2
7.165496958E0,-3.270260235E-2,-1.672303677E-4,4.667656839E-2,5.699289607E-2
7.175522958E0,-4.875336463E-3,-2.404375076E-3,4.462010264E-2,4.495001096E-2
7.185548958E0,1.956131179E-2,-1.464084327E-2,9.786484838E-3,2.632060972E-2
7.195574958E0,2.951702555E-2,-1.470925570E-2,-4.140998125E-2,5.293773274E-2
7.205599958E0,2.726003229E-2,-1.520393014E-2,-7.136402451E-2,7.789154541E-2
7.215625958E0,1.264485795E-3,-1.433561862E-2,-3.704686202E-2,3.974391615E-2
7.225651958E0,4.534599964E-3,5.537313223E-3,-2.328427054E-2,2.435942711E-2
7.235677958E0,6.480644981E-3,2.433026433E-2,1.714805625E-2,3.046336086E-2
7.245703958E0,4.554266365E-3,7.153834462E-2,6.722543836E-2,9.827377908E-2
7.255729958E0,-2.762257222E-3,1.175342971E-1,3.817990623E-2,1.236108664E-1
7.265755958E0,2.301184511E-2,1.572193497E-1,2.460267149E-2,1.607879361E-1
7.275781958E0,1.734956592E-2,1.439888549E-1,7.618388437E-2,1.638224100E-1
7.285807958E0,-2.999753877E-2,1.170782143E-1,1.060187175E-1,1.607704234E-1
7.295833958E0,-6.548655408E-2,3.476462066E-2,9.001021050E-2,1.166143456E-1
7.305859958E0,-8.481241037E-2,-1.283054531E-2,6.021163009E-2,1.048008027E-1
7.315885958E0,-1.012277648E-1,-5.757343948E-2,1.504495896E-2,1.174227921E-1
7.325911958E0,-4.300855519E-2,-6.992568254E-2,-6.838318706E-2,1.068437980E-1
7.335937958E0,2.301985990E-2,-5.872651041E-2,-1.342720250E-1,1.483499028E-1
7.345963958E0,8.635511599E-2,-4.880963266E-2,-1.551833493E-1,1.841777896E-1
7.355989958E0,8.614028564E-2,-4.796938777E-2,-7.569798075E-2,1.243036414E-1
7.366015958E0,6.388997185E-2,-2.331752658E-2,-8.354501724E-3,6.852323144E-2
7.376041958E0,-1.145047679E-2,-2.968572915E-2,4.168019570E-2,5.243657738E-2
7.386067958E0,-2.387139495E-2,-1.096469879E-2,9.856592953E-2,1.020064242E-1
7.396093958E0,4.175772613E-2,-9.066107869E-3,1.173717445E-1,1.249080799E-1
7.406119958E0,5.127611156E-2,-1.318956435E-2,8.743348874E-2,1.022145742E-1
7.416145958E0,1.213795974E-2,-1.375148177E-2,7.695337795E-2,7.910913787E-2
7.426171958E0,-4.044056257E-3,-6.386913657E-2,7.554602623E-4,6.400149778E-2
7.436197958E0,-5.517503953E-2,-1.058036131E-1,-1.197112886E-1,1.690250932E-1
7.446223958E0,-4.472257053E-2,-1.107907033E-1,-2.228256941E-1,2.528358721E-1
7.456249958E0,9.716325102E-3,-6.271489620E-2,-1.553108186E-1,1.677766835E-1
7.466275958E0,7.219512855E-2,-2.667499781E-3,-2.173987471E-2,7.544451136E-2
7.476301958E0,5.163903179E-2,3.487454832E-2,8.010575809E-2,1.014877145E-1
7.486327958E0,3.339590396E-2,7.969462574E-2,1.206526903E-1,1.484034752E-1
7.496353958E0,3.995005484E-2,6.853755355E-2,8.087349750E-2,1.132869177E-1
7.506379958E0,1.138770259E-2,3.836709023E-2,2.153463744E-2,4.544726606E-2
7.516405958E0,-2.559824218E-4,4.183507383E-2,4.128718972E-3,4.203909192E-2
7.526431958E0,2.286666514E-2,1.935603797E-2,4.120942175E-2,5.094857232E-2
7.536456958E0,3.724208593E-2,2.263223290E-2,2.322448276E-2,4.938185426E-2
7.546482958E0,3.450944452E-3,1.517235518E-2,1.647686899E-2,2.266266954E-2
7.556508958E0,-1.957081808E-2,2.347423196E-2,-6.469286308E-3,3.123952867E-2
7.566534958E0,-4.182896623E-2,4.511594653E-2,-1.381865166E-2,6.305605586E-2
7.576560958E0,-6.014111176E-2,5.102104962E-2,4.346871279E-2,9.005348310E-2
7.586586958E0,-4.240808269E-2,7.138631701E-2,1.078986704E-1,1.361490904E-1
7.596612958E0,1.543172259E-2,6.620100617E-2,1.874231422E-1,1.993693695E-1
7.606638958E0,2.879481905E-2,4.987499535E-2,1.994578084E-1,2.076055733E-1
7.616664958E0,-1.666711591E-2,1.049809098E-2,9.864837527E-2,1.005957485E-1
7.626690958E0,-2.210702046E-2,-4.036332965E-2,-2.086169600E-2,5.052849784E-2
7.636716958E0,-3.836946566E-2,-6.751896858E-2,-8.456301749E-2,1.148125905E-1
7.646742958E0,-2.694799882E-2,-8.024952650E-2,-1.469551474E-1,1.695936216E-1
7.656768958E0,-2.033227402E-2,-7.841583967E-2,-1.305450097E-1,1.536373810E-1
7.666794958E0,-2.925613695E-2,-7.639036417E-2,-1.183798776E-1,1.438930322E-1
7.676820958E0,-5.774652620E-2,-5.634903252E-2,-1.180529451E-1,1.429908130E-1
7.686846958E0,-9.693488527E-2,-5.468082190E-2,-9.610724844E-2,1.470475007E-1
7.696872958E0,-1.030352854E-1,-2.670072556E-2,-3.278658070E-2,1.113739586E-1
7.706898958E0,-3.584261425E-2,3.888398409E-3,3.314845026E-2,4.897583479E-2
7.716924958E0,2.154146909E-2,-7.706630230E-4,8.708134018E-2,8.970946783E-2
7.726950958E0,4.011421085E-2,-1.909466743E-2,5.287812531E-2,6.906411784E-2
7.736976958E0,2.426208031E-2,-2.034012437E-2,-1.102616765E-2,3.352529751E-2
7.747002958E0,2.959681035E-2,-5.431303203E-2,-9.951968350E-2,1.171752706E-1
7.757028958E0,-3.325266317E-2,-6.648342669E-2,-2.093374101E-1,2.221439554E-1
7.767054958E0,-7.230778795E-2,-4.382897437E-2,-2.058658451E-1,2.225536820E-1
7.777080958E0,-4.516785427E-2,-6.768444479E-2,-1.152561488E-1,1.410861402E-1
7.787106958E0,-7.588365725E-3,-5.188994586E-2,1.201018095E-3,5.245562144E-2
7.797132958E0,1.786984021E-2,-4.001658976E-2,8.980453469E-2,9.992753923E-2
7.807158958E0,4.774865081E-2,-2.039333403E-2,1.020661459E-1,1.145134048E-1
7.817184958E0,1.062211591E-1,-9.191238284E-3,7.623424351E-2,1.310689642E-1
7.827210958E0,1.396880816E-1,5.413352251E-3,4.707118236E-2,1.475051210E-1
7.837236958E0,1.404541399E-1,2.388295233E-2,7.745806575E-3,1.426806166E-1
7.847262958E0,1.379689454E-1,4.642396867E-2,-2.710944593E-2,1.480727416E-1
7.857287958E0,8.570063897E-2,3.111361921E-2,-1.287973501E-2,9.207901169E-2
7.867313958E0,-2.199638932E-2,4.623101056E-2,-1.626117982E-2,5.371753391E-2
7.877339958E0,-1.272002014E-1,4.342025399E-2,-2.632825792E-2,1.369612604E-1
7.887365958E0,-1.455612808E-1,6.167701542E-2,2.647494994E-2,1.602905602E-1
7.897391958E0,-1.054726241E-1,1.005148065E-1,1.432397535E-1,2.043167339E-1
7.907417958E0,-8.159995009E-3,1.091669315E-1,1.966804540E-1,2.250937703E-1
7.917443958E0,3.607927574E-2,8.705217719E-2,1.471831888E-1,1.747646611E-1
7.927469958E0,7.746091627E-2,7.448943436E-2,7.815907381E-2,1.328823171E-1
7.937495958E0,4.900603515E-2,6.510465324E-2,-3.215968609E-4,8.148810207E-2
7.947521958E0,4.501874114E-2,2.267842591E-2,-6.829131268E-2,8.488051274E-2
7.957547958E0,3.659337847E-2,1.861578047E-2,-7.614887416E-2,8.651169671E-2
7.967573958E0,7.167252908E-2,2.191828787E-2,-5.211031280E-2,9.128443169E-2
7.977599958E0,8.645410753E-2,6.975143552E-3,5.177709460E-3,8.688943556E-2
7.987625958E0,3.031946454E-2,-5.705713034E-3,2.854683772E-3,3.098345221E-2
7.997651958E0,8.430083839E-3,-2.654051185E-3,-3.798987173E-2,3.900436713E-2
8.007677958E0,-4.054174282E-2,5.611572862E-3,-3.187083364E-2,5.187362236E-2
8.017703958E0,-8.882503470E-2,-8.519393206E-4,6.194189429E-2,1.082931709E-1
8.027729958E0,-6.463696735E-2,6.104493141E-3,6.535966493E-2,9.212539381E-2
8.037755958E0,-7.423099657E-3,-6.726636887E-3,5.196245134E-2,5.291924415E-2
8.047781958E0,2.126528636E-2,7.677978873E-3,3.596388459E-2,4.248016900E-2
8.057807958E0,3.541775922E-2,-1.109626114E-2,-1.908063412E-2,4.173266440E-2
8.067833958E0,1.260810443E-2,-2.381629407E-2,-9.123059750E-2,9.512729409E-2
8.077859958E0,-3.445192710E-2,-5.206302345E-2,-1.155865896E-1,1.313687687E-1
8.087885958E0,-5.534741818E-2,-7.116002977E-2,-6.399836004E-2,1.105571193E-1
8.097911958E0,-1.029065918E-1,-1.020222187E-1,-5.064266168E-2,1.535023743E-1
8.107937958E0,-1.068294248E-1,-1.446723944E-1,-1.075436714E-1,2.095430003E-1
8.117963958E0,-9.151309110E-2,-1.238551372E-1,-6.515369676E-2,1.672116774E-1
8.127989958E0,-1.058392171E-2,-8.818185925E-2,-6.432163797E-2,1.096600785E-1
8.138015958E0,6.127788814E-2,-3.974527895E-2,-6.544846952E-2,9.807226385E-2
8.148041958E0,7.411340358E-2,2.828473628E-2,-5.340846777E-3,7.950690247E-2
8.158067958E0,4.219152558E-2,7.423098743E-2,1.257222263E-1,1.519751378E-1
8.168093958E0,7.896331265E-3,1.154369009E-1,2.295775471E-1,2.570873008E-1
8.178118958E0,-4.568547447E-2,1.173132724E-1,2.307755685E-1,2.628819687E-1
8.188144958E0,-5.329732499E-2,1.174758250E-1,1.512270501E-1,1.987732250E-1
8.198170958E0,-1.247088216E-2,1.159912169E-1,6.962286986E-2,1.358559138E-1
8.208196958E0,4.068714662E-2,1.076355457E-1,2.661002062E-2,1.181056637E-1
8.218222958E0,7.396037098E-2,9.866416276E-2,4.040360235E-2,1.297582543E-1
8.228248958E0,7.041436359E-2,8.863034070E-2,7.517523967E-2,1.358853802E-1
8.238274958E0,3.038124631E-2,4.073404312E-2,6.223885976E-2,8.034897672E-2
8.248300958E0,-3.884610509E-2,3.808291554E-3,2.356427908E-3,3.910339778E-2
8.258326958E0,-6.250413605E-2,-3.174511850E-2,-5.271966577E-2,8.771478057E-2
8.268352958E0,-6.499088835E-3,-2.270824671E-2,-5.876451731E-2,6.333380707E-2
8.278378958E0,3.987666772E-2,-7.991974354E-3,-3.315554000E-2,5.247199363E-2
8.288404958E0,6.975882220E-2,-3.264442027E-2,-5.235830784E-2,9.313078894E-2
8.298430958E0,8.032104526E-2,-5.727815509E-2,-4.550763689E-2,1.086425440E-1
8.308456958E0,9.492610174E-2,-5.939016938E-2,-9.066275977E-2,1.440759974E-1
8.318482958E0,4.505189668E-2,-6.814637482E-2,-1.387573510E-1,1.610192667E-1
8.328508958E0,1.560336349E-2,-7.043088198E-2,-8.956238687E-2,1.150017184E-1
8.338534958E0,-1.512043830E-2,-6.510699213E-2,-6.599825397E-3,6.716476586E-2
8.348560958E0,-1.204653875E-2,-3.543003380E-2,7.287158288E-2,8.191870350E-2
8.358586958E0,3.837148477E-3,-2.629258990E-2,9.110078931E-2,9.489666909E-2
8.368612958E0,9.980169288E-3,9.285963178E-3,7.281471871E-2,7.407979584E-2
8.378638958E0,6.853882349E-3,1.703469336E-2,1.932453610E-2,2.665697238E-2
8.388664958E0,-7.389012217E-3,-1.035541892E-2,-6.897375584E-2,7.013708860E-2
8.398690958E0,-5.659889592E-2,-3.320926130E-2,-1.083342880E-1,1.266594174E-1
8.408716958E0,-2.241508650E-2,-5.828153729E-2,-8.372050680E-2,1.044427927E-1
8.418743292E0,-6.190808094E-3,-6.372003257E-2,-5.409500398E-2,8.381430732E-2
8.428769292E0,-2.364454125E-3,-6.565429151E-2,-7.355278350E-2,9.862093387E-2
8.438795292E0,-2.958316533E-3,-5.718927741E-2,-1.220835040E-1,1.348471247E-1
8.448821292E0,-1.843285855E-2,-1.127752483E-2,-6.479650497E-2,6.830475750E-2
8.458847292E0,-1.001509270E-2,2.636451066E-2,4.029477105E-2,4.918392092E-2
8.468873292E0,2.766224078E-2,4.667598367E-2,1.348489990E-1,1.453550809E-1
8.478899292E0,4.157749941E-2,7.210552454E-2,1.778885993E-1,1.963981896E-1
8.488925292E0,2.882716603E-2,9.761868060E-2,1.465323937E-1,1.784156795E-1
8.498951292E0,8.754538069E-3,7.959697723E-2,4.061709881E-2,8.978902738E-2
8.508977292E0,1.098563456E-2,7.716745913E-2,-3.376299262E-2,8.494374954E-2
8.519002292E0,4.295371471E-2,3.073355019E-2,-2.982079983E-2,6.065354744E-2
8.529028292E0,7.185226244E-2,1.535478830E-3,-6.206819415E-3,7.213619009E-2
8.539054292E0,6.756788876E-2,-5.321375549E-2,3.306600451E-3,8.607007013E-2
8.549080292E0,2.256073242E-2,-4.777233660E-2,6.057642326E-3,5.317779445E-2
8.559106292E0,-1.973131958E-2,-7.075306356E-2,5.460641608E-3,7.365554685E-2
8.569132292E0,-3.935540215E-2,-6.826682746E-2,-2.475002132E-2,8.259401289E-2
8.579158292E0,-8.599911192E-3,-2.329530716E-2,-9.109961987E-4,2.484873683E-2
8.589184292E0,2.961290390E-3,6.196294427E-3,5.669050992E-2,5.710496668E-2
8.599210292E0,-2.281577609E-2,-6.842996478E-3,5.543518580E-2,6.033610913E-2
8.609236292E0,-2.276287706E-2,-7.126001716E-3,-1.594352983E-2,2.869014841E-2
8.619262292E0,-2.931819053E-2,9.412263036E-3,-5.241553746E-2,6.079091675E-2
8.629288292E0,-4.326862381E-2,3.091715276E-2,-4.088314712E-2,6.707813250E-2
8.639314292E0,-1.573677594E-4,8.550617337E-2,-3.077974319E-2,9.087751669E-2
8.649340292E0,1.553882942E-2,7.435553312E-2,-1.075302958E-2,7.671915127E-2
8.659366292E0,-1.320353371E-2,4.494169950E-2,6.285025924E-4,4.684532711E-2
8.669392292E0,-6.671456987E-2,4.092466235E-2,6.764585316E-2,1.034486504E-1
8.679418292E0,-7.824849967E-2,4.222391367E-2,1.200977165E-1,1.494294084E-1
8.689444292E0,-3.324916398E-2,2.385196209E-2,1.003475761E-1,1.083700099E-1
8.699470292E0,1.624630596E-3,3.717133462E-2,8.413967907E-2,9.199909313E-2
8.709496292E0,1.087605409E-2,5.480712175E-2,7.555881701E-2,9.397469860E-2
8.719522292E0,4.349872089E-2,3.710116804E-2,4.922010720E-2,7.544040258E-2
8.729548292E0,6.613893433E-2,7.776796818E-3,-4.836809479E-2,8.230619537E-2
8.739574292E0,2.552410131E-2,-3.220061660E-3,-1.445565464E-1,1.468279390E-1
8.749600292E0,-3.470176309E-3,-5.753075480E-3,-1.744901975E-1,1.746194979E-1
8.759626292E0,4.221461751E-2,1.648856342E-2,-1.569843648E-1,1.633953409E-1
8.769652292E0,6.405774582E-2,2.632241070E-2,-1.044049591E-1,1.252863104E-1
8.779678292E0,8.439651802E-3,4.645495892E-2,-1.790234707E-2,5.049539544E-2
8.789704292E0,-5.634022515E-2,1.936714768E-2,8.899345279E-2,1.070940802E-1
8.799730292E0,-1.236122037E-1,2.669253945E-3,1.384825319E-1,1.856462051E-1
8.809756292E0,-1.104992744E-1,-1.387544274E-3,1.282399642E-1,1.692852721E-1
8.819782292E0,-7.067279225E-2,-1.714345157E-2,7.221004352E-2,1.024833249E-1
8.829808292E0,1.543932625E-2,-1.401869953E-2,4.118245147E-2,4.616157537E-2
8.839833292E0,8.564520920E-2,-3.586272776E-2,1.258445062E-2,9.369954908E-2
8.849859292E0,1.129793892E-1,-3.744439960E-2,-2.008401632E-2,1.207053982E-1
8.859885292E0,5.563491390E-2,-2.084415436E-2,-7.137988508E-2,9.286985738E-2
8.869911292E0,2.313936923E-2,-2.618032336E-2,-7.721423686E-2,8.475186200E-2
8.879937292E0,-2.966985487E-2,1.371464431E-2,-4.941248059E-2,5.924512634E-2
8.889963292E0,-6.108525436E-2,2.828707516E-2,-1.635539308E-3,6.733677977E-2
8.899989292E0,-8.911900347E-2,1.030630231E-2,6.825564466E-2,1.127264373E-1
8.910015292E0,-6.363820810E-2,3.852087200E-2,1.072198087E-1,1.304981474E-1
8.920041292E0,-3.057171936E-2,4.541356981E-2,9.802374646E-2,1.122750071E-1
8.930067292E0,9.410399236E-3,4.000138700E-2,5.392119549E-2,6.779499907E-2
8.940093292E0,2.297246320E-2,4.073287368E-2,-1.693594851E-2,4.973658025E-2
8.950119292E0,3.005288861E-2,5.439080000E-3,-6.839780509E-2,7.490673833E-2
8.960145292E0,3.782710900E-2,-2.787016869E-2,-6.409549691E-2,7.947244303E-2
8.970171292E0,1.451852226E-2,-5.204840541E-2,-2.667390145E-2,6.026044319E-2
8.980197292E0,3.438392581E-2,-5.705362201E-2,-1.805510558E-2,6.901707742E-2
8.990223292E0,4.835321180E-2,-4.255252719E-2,-5.684611894E-2,8.590827609E-2
9.000249292E0,5.081985972E-2,-3.671466708E-2,-6.238577105E-2,8.844551628E-2
9.010275292E0,2.009757455E-2,-2.806020319E-2,1.926423669E-2,3.952718459E-2
9.020301292E0,-8.007423794E-3,3.284965754E-3,1.082419020E-1,1.085873804E-1
9.030327292E0,2.511187261E-3,2.808826983E-2,1.858443940E-1,1.879717950E-1
9.040353292E0,1.439753515E-2,2.334091544E-2,1.775408361E-1,1.796464189E-1
9.050379292E0,1.163114433E-2,2.355667770E-2,8.794855535E-2,9.178861025E-2
9.060405292E0,1.111742989E-3,5.730271339E-5,-3.619258381E-2,3.620970007E-2
9.070431292E0,7.201088187E-3,-1.168332160E-2,-1.125268147E-1,1.133606621E-1
9.080457292E0,6.024276651E-3,-1.873798728E-2,-1.131431112E-1,1.148423602E-1
9.090483292E0,4.255110193E-2,5.510416031E-3,-7.064203955E-2,8.265142898E-2
9.100509292E0,6.254627255E-2,-8.869641423E-3,4.970644936E-3,6.336729488E-2
9.110535292E0,7.438452709E-2,4.754371047E-3,2.508031592E-2,7.864276293E-2
9.120561292E0,7.948120236E-2,-9.454947710E-3,5.630283952E-3,8.023937726E-2
9.130587292E0,2.170670546E-2,-1.319599628E-2,1.911688685E-2,3.179262089E-2
9.140613292E0,-4.444281324E-2,-2.298598945E-2,8.635920905E-2,9.980697544E-2
9.150639292E0,-5.718718520E-2,-4.737414122E-2,1.603294107E-1,1.766923975E-1
9.160664292E0,-5.262656713E-2,-3.781277418E-2,1.560515146E-1,1.689717037E-1
9.170690292E0,-3.441361870E-2,-4.511243820E-2,4.039833985E-2,6.965238758E-2
9.180716292E0,-2.447703401E-2,-2.609553874E-2,-1.015439165E-1,1.076627573E-1
9.190742292E0,-4.089230167E-2,-1.369827211E-2,-1.745341247E-1,1.797831574E-1
9.200768292E0,-3.248797984E-2,1.786792159E-2,-1.340391596E-1,1.390727427E-1
9.210794292E0,1.747374160E-2,2.767721057E-2,2.716616392E-2,4.253657359E-2
9.220820292E0,4.842000710E-2,3.099492073E-2,9.703571320E-2,1.127879064E-1
9.230846292E0,5.445374893E-2,3.802502811E-2,9.365317203E-2,1.148130226E-1
9.240872292E0,-2.533549663E-2,3.858226776E-2,6.311301850E-2,7.819035669E-2
9.250898292E0,-7.417882387E-2,3.040961444E-2,4.273496032E-2,9.084888219E-2
9.260924292E0,-8.818980781E-2,3.622350097E-3,6.163484238E-2,1.076541565E-1
9.270950292E0,-6.717661411E-2,-2.575698495E-3,1.110567516E-1,1.298188499E-1
9.280976292E0,-5.488682661E-2,-7.470987439E-3,1.608574873E-1,1.701279243E-1
9.291002292E0,-1.768173802E-2,-2.908229649E-2,1.055060629E-1,1.108600610E-1
9.301028292E0,7.364771853E-2,-4.565856814E-2,-1.682017364E-2,8.827009421E-2
9.311054292E0,1.276380299E-1,-2.487522483E-2,-7.148221135E-2,1.483912061E-1
9.321080292E0,1.402184149E-1,-2.562308371E-2,-1.744633734E-2,1.436040424E-1
9.331106292E0,1.432583641E-1,-4.061651409E-2,4.048736371E-2,1.543110064E-1
9.341132292E0,8.654320448E-2,-4.484171212E-2,7.024786413E-2,1.201468593E-1
9.351158292E0,1.913247791E-3,-5.806168199E-2,9.174515247E-2,1.085909408E-1
9.361184292E0,-9.806289540E-2,-4.272969782E-2,8.064012051E-2,1.339589025E-1
9.371210292E0,-1.153152331E-1,-4.404532135E-2,5.599936903E-2,1.355489677E-1
9.381236292E0,-9.983366070E-2,-1.902567029E-2,-1.858705603E-2,1.033160907E-1
9.391262292E0,-4.272204163E-2,4.438036680E-4,-2.352042496E-2,4.877068989E-2
9.401288292E0,3.646067865E-3,3.874131203E-2,1.843926765E-2,4.306030260E-2
9.411314292E0,5.462017531E-2,4.019902289E-2,1.466598630E-2,6.938599387E-2
9.421340042E0,8.601299906E-3,1.356495559E-2,-6.754761994E-2,6.943105458E-2
9.431366042E0,-2.226430600E-2,-1.404735088E-2,-1.034938898E-1,1.067895716E-1
9.441392042E0,-2.598200225E-2,-1.437596440E-2,-8.558050610E-2,9.058562700E-2
9.451418042E0,-3.170137858E-2,-1.486420691E-2,2.535864338E-3,3.510488085E-2
9.461444042E0,1.418802895E-3,-1.301180899E-2,7.190079890E-2,7.308245383E-2
9.471469042E0,3.701527792E-2,-2.217264175E-3,6.403987527E-2,7.400103164E-2
9.481495042E0,3.281566146E-2,4.860205650E-3,-1.050627708E-2,3.479757311E-2
9.491521042E0,3.370165624E-2,4.625147581E-4,-8.700715363E-2,9.330734342E-2
9.501547042E0,3.891761472E-2,1.585647941E-2,-1.246679733E-1,1.315602989E-1
9.511573042E0,-1.241213249E-2,1.551967978E-2,-8.352279782E-2,8.585440728E-2
9.521599042E0,-6.257442141E-2,1.361699581E-2,2.889979027E-2,7.025794381E-2
9.531625042E0,-8.342975400E-2,-2.183233380E-2,4.354472660E-2,9.660909826E-2
9.541651042E0,-5.394236424E-2,-2.938869059E-2,-7.160207927E-2,9.434156852E-2
9.551677042E0,5.009149765E-3,-4.871958554E-2,-1.876693831E-1,1.939548580E-1
9.561703042E0,5.391360325E-2,-5.186304867E-2,-1.904748040E-1,2.046389587E-1
9.571729042E0,1.415468749E-1,-1.655639112E-2,-1.209953371E-1,1.869478630E-1
9.581755042E0,1.960013913E-1,4.970133305E-5,-9.094181813E-2,2.160716597E-1
9.591781042E0,1.569535755E-1,3.644920349E-2,-3.419634439E-2,1.647190313E-1
9.601807042E0,2.608862258E-2,5.817394853E-2,6.844684862E-2,9.354034210E-2
9.611833042E0,-7.971637007E-2,7.459760785E-2,1.484398285E-1,1.842658011E-1
9.621859042E0,-1.146381621E-1,8.735213935E-2,1.329644414E-1,1.960914254E-1
9.631885042E0,-1.482235364E-1,7.100624800E-2,9.438283145E-2,1.895263118E-1
9.641911042E0,-1.392681419E-1,4.401140749E-2,6.636480130E-2,1.604272613E-1
9.651937042E0,-7.498362001E-2,2.466297090E-2,1.377377428E-2,8.012816148E-2
9.661963042E0,-1.551566211E-2,4.712855816E-3,-2.994242191E-2,3.405136430E-2
9.671989042E0,2.596737736E-2,-8.078513145E-3,-3.912890933E-2,4.765121832E-2
9.682015042E0,1.002230304E-1,-2.084649324E-2,-6.103725694E-2,1.191838028E-1
9.692041042E0,1.167163539E-1,-5.371837020E-2,-1.688319200E-1,2.121617020E-1
9.702067042E0,6.564304476E-2,-6.972921610E-2,-2.164925748E-1,2.367281307E-1
9.712093042E0,-3.864806721E-2,-6.909362376E-2,-1.478521468E-1,1.677136228E-1
9.722119042E0,-1.682464858E-1,-8.403442919E-2,-9.517279029E-2,2.107760074E-1
9.732145042E0,-1.719971823E-1,-6.559464991E-2,-8.045885682E-2,2.008962828E-1
9.742171042E0,-1.196335846E-1,-4.867222309E-2,-3.290396355E-2,1.332810965E-1
9.752197042E0,-1.112525237E-1,-2.880221486E-2,6.463395238E-2,1.318493057E-1
9.762223042E0,-3.783535677E-2,-1.913267434E-2,1.047458518E-1,1.130011810E-1
9.772249042E0,4.844430959E-2,3.831680417E-3,6.399602115E-2,8.035560733E-2
9.782274042E0,1.186353278E-1,2.245272338E-2,4.042947628E-2,1.273303120E-1
9.792300042E0,1.091895621E-1,3.211232364E-2,3.132353425E-3,1.138568111E-1
9.802326042E0,4.919595546E-2,2.413204372E-2,-3.692984462E-2,6.607882407E-2
9.812352042E0,-3.487727093E-2,1.568632543E-2,-5.304188389E-2,6.539056721E-2
9.822378042E0,-7.020363542E-2,-2.135052323E-2,-2.583771307E-2,7.779449007E-2
9.832404042E0,-7.328319032E-2,-4.549484611E-2,-3.200531960E-2,9.200297543E-2
9.842430042E0,-1.016106844E-1,-2.068744898E-2,-2.336371958E-2,1.062947088E-1
9.852456042E0,-5.918410985E-2,-8.467352986E-3,-2.151603598E-2,6.354049677E-2
9.862482042E0,1.994655879E-2,2.069855869E-2,-6.749853987E-2,7.336449021E-2
9.872508042E0,6.368560709E-2,2.593824863E-3,-8.123602487E-2,1.032563616E-1
9.882534042E0,9.515697083E-3,2.956936955E-2,-7.216874756E-2,7.856986847E-2
9.892560042E0,-7.479919061E-2,1.447770596E-2,-4.566397682E-2,8.882410520E-2
9.902586042E0,-4.994881645E-2,6.094552875E-3,8.996489458E-3,5.111716602E-2
9.912612042E0,-6.271289079E-2,3.298589766E-2,2.290876966E-2,7.447004662E-2
9.922638042E0,-5.100570068E-2,5.640165746E-2,5.029774904E-3,7.621041334E-2
9.932664042E0,3.178878761E-2,6.981283128E-2,-4.995279986E-2,9.154037712E-2
9.942690042E0,1.179222964E-1,8.191305935E-2,-9.150015414E-2,1.702577325E-1
9.952716042E0,9.522486705E-2,7.362989366E-2,-9.905768037E-3,1.207777330E-1
9.962742042E0,2.333515274E-2,3.535460472E-2,8.233051401E-2,9.258936745E-2
9.972768042E0,-2.469236001E-2,-4.295949340E-3,6.414680623E-2,6.886930065E-2
9.982794042E0,-6.399923712E-2,-4.079777777E-2,1.523722272E-2,7.741145897E-2
9.992820042E0,-9.104215270E-2,-3.849689841E-2,-1.057300843E-2,9.941062953E-2
1.000284604E1,-4.049568229E-2,6.192786098E-3,-6.183200318E-2,7.417174328E-2
1.001287204E1,5.784089478E-2,9.825661182E-3,5.433759034E-2,7.996678342E-2
1.002289804E1,1.306620911E-1,1.610849440E-2,1.092791615E-1,1.710964663E-1
1.003292404E1,1.379633448E-1,1.266682327E-2,8.479515195E-2,1.624332193E-1
1.004295004E1,8.774760299E-2,2.674224079E-2,6.456904829E-2,1.121782121E-1
1.005297604E1,3.803092101E-2,3.496751904E-2,1.716040850E-2,5.443857052E-2
1.006300204E1,-2.752584763E-2,2.880630791E-2,-2.500444829E-2,4.703932501E-2
1.007302704E1,-7.722218541E-2,1.531210363E-2,-3.213337362E-2,8.503105396E-2
1.008305304E1,-9.799004274E-2,-1.433503389E-2,-6.476317585E-2,1.183292467E-1
1.009307904E1,-9.561414544E-2,-2.298189640E-2,-6.648518085E-2,1.187034610E-1
1.010310504E1,-6.084142090E-2,-1.319658101E-2,-6.880301714E-2,9.278837974E-2
1.011313104E1,-4.288726658E-2,-2.795846164E-2,-3.281402607E-2,6.080915654E-2
1.012315704E1,4.230686191E-2,-7.416608334E-3,-1.674642563E-3,4.298466088E-2
1.013318304E1,1.040995517E-1,-5.906857252E-3,1.435374498E-2,1.052503569E-1
1.014320904E1,1.069638560E-1,9.350282550E-3,1.264986634E-2,1.081143533E-1
1.015323504E1,1.105019788E-1,8.138154745E-3,-5.029774904E-3,1.109153529E-1
1.016326104E1,3.575830700E-2,-2.599613607E-2,-2.244515855E-2,4.958064897E-2
1.017328704E1,1.948237666E-2,-4.528376162E-2,-3.626786672E-2,6.120081881E-2
1.018331304E1,-1.612202294E-2,-4.087028325E-2,-9.946457349E-2,1.087359235E-1
1.019333904E1,-5.079787784E-2,-2.909632981E-2,-8.674285948E-2,1.046486716E-1
1.020336504E1,-1.055534893E-1,-2.123474836E-2,-8.566901833E-4,1.076716655E-1
1.021339104E1,-6.221964617E-2,-3.406061590E-2,2.275495134E-2,7.449293749E-2
1.022341704E1,-3.029637032E-2,-2.085350990E-2,1.218976356E-2,3.874699041E-2
1.023344304E1,-1.283701150E-2,-1.632074833E-2,-4.029959500E-2,4.533445762E-2
1.024346904E1,2.657122800E-2,-1.937942684E-2,-9.584759552E-2,1.013328866E-1
1.025349504E1,3.793391661E-2,-1.447419763E-2,-8.743228275E-2,9.639962912E-2
1.026352104E1,2.640856805E-2,4.046273232E-3,-2.609093405E-2,3.734329436E-2
1.027354704E1,3.639656256E-2,5.520356297E-3,1.064953387E-2,3.832227383E-2
1.028357304E1,4.919788778E-2,4.317584038E-3,4.137204744E-2,6.442608170E-2
1.029359904E1,1.522138956E-2,-8.108333945E-3,4.585675221E-2,4.899262702E-2
1.030362504E1,-5.760093966E-2,-1.604300559E-2,-3.965070024E-3,5.992468656E-2
1.031365104E1,-6.790894589E-2,4.889441729E-3,-2.310589392E-2,7.189863633E-2
1.032367704E1,-5.140251192E-2,2.292985618E-2,1.221951127E-2,5.759611959E-2
1.033370304E1,-6.134377895E-2,2.553888381E-2,2.908522010E-2,7.253443203E-2
1.034372904E1,-6.414815383E-2,2.263106346E-2,2.294564366E-2,7.178894926E-2
1.035375404E1,-3.664805222E-2,3.693101406E-2,3.534926914E-2,6.290111573E-2
1.036378004E1,-2.650985736E-2,3.910442412E-2,4.703898612E-2,6.666779386E-2
1.037380604E1,1.997000019E-2,1.839709461E-2,-2.655337572E-2,3.797809579E-2
1.038383204E1,8.042698950E-2,-1.888650656E-4,-7.577874541E-2,1.105031880E-1
1.039385804E1,8.399919058E-2,-1.557113528E-3,-4.874231659E-2,9.712930581E-2
1.040388404E1,5.111634096E-2,4.680111408E-3,5.622170940E-3,5.163712388E-2
1.041391029E1,-1.574773947E-4,1.357080281E-2,4.727071859E-2,4.918040589E-2
1.042393629E1,-2.936804946E-2,7.607227564E-4,-4.214263737E-2,5.137181049E-2
1.043396229E1,-4.386867605E-2,-5.111635923E-3,-6.263541061E-2,7.664061732E-2
1.044398829E1,-6.424231684E-2,-1.109333754E-2,-5.664084513E-2,8.636158143E-2
1.045401429E1,-4.731481025E-2,-1.591085851E-2,1.070625186E-3,4.992988009E-2
1.046404029E1,-3.375257270E-2,-1.388772190E-2,6.012107134E-2,7.033241217E-2
1.047406629E1,2.677719617E-2,-2.997282743E-2,4.726830661E-2,6.204580106E-2
1.048409229E1,6.120101552E-2,-9.670125246E-3,2.742578030E-2,6.775875625E-2
1.049411829E1,6.069277371E-2,8.838066459E-3,8.997037634E-3,6.198928041E-2
1.050414429E1,6.171078309E-2,-2.765148282E-3,-2.413197063E-2,6.631906816E-2
1.051417029E1,3.091806411E-2,-2.065587401E-2,-2.269297086E-2,4.356102324E-2
1.052419629E1,-1.278880852E-2,-2.312632263E-2,-3.012719393E-2,4.007528210E-2
1.053422229E1,-3.635073044E-2,-8.230657697E-2,-3.720060725E-2,9.736340891E-2
1.054424829E1,-3.790292865E-2,-6.480995357E-2,-2.821347333E-2,8.020574892E-2
1.055427429E1,-3.148755322E-2,-3.921318233E-2,-8.303704038E-3,5.097147415E-2
1.056430029E1,-3.568268377E-2,-3.113759279E-2,2.823320769E-2,5.513544796E-2
1.057432629E1,-2.680360686E-2,-3.566392243E-2,6.189328931E-2,7.629631685E-2
1.058435229E1,-2.041814358E-2,-5.038955033E-2,8.028044365E-2,9.695853239E-2
1.059437829E1,8.770784650E-3,-3.276487291E-2,-3.332912922E-5,3.391850042E-2
1.060440429E1,3.943945130E-2,-2.824205160E-4,-5.823592901E-2,7.033472477E-2
1.061443029E1,1.988940911E-2,9.778883457E-3,-6.291604042E-2,6.670564668E-2
1.062445629E1,2.426179024E-2,3.707134724E-3,-8.787491698E-2,9.123803125E-2
1.063448129E1,1.874830670E-2,-7.285630703E-4,-4.514335535E-2,4.888713881E-2
1.064450729E1,-2.207298099E-2,1.400992870E-3,4.437525049E-3,2.255816702E-2
1.065453329E1,-4.812681948E-2,2.223286808E-2,-1.552019142E-2,5.523918462E-2
1.066455929E1,-3.949156918E-2,2.796489358E-2,-7.518006362E-2,8.940727753E-2
1.067458529E1,-2.022118835E-2,7.083433986E-2,-9.991722107E-2,1.241364218E-1
1.068461129E1,1.328138619E-2,1.024601752E-1,-3.557329059E-2,1.092700403E-1
1.069463729E1,4.642338395E-2,8.135465026E-2,9.087501369E-2,1.305066198E-1
1.070466329E1,2.672393398E-2,4.060131133E-2,1.242100267E-1,1.333820297E-1
1.071468929E1,-2.399052740E-2,9.878286123E-3,8.330173653E-2,8.724852577E-2
1.072471529E1,-1.479375710E-2,-1.650259674E-2,5.182036400E-2,5.636081150E-2
1.073474129E1,5.935228125E-2,3.373258710E-3,2.714569867E-2,6.535259077E-2
1.074476729E1,1.099729062E-1,1.054311454E-2,-3.757603504E-2,1.166925695E-1
1.075479329E1,9.480240572E-2,-9.782391787E-4,-4.701453745E-2,1.058244764E-1
1.076481929E1,6.833292841E-2,-4.842079282E-3,-3.311219752E-2,7.608713729E-2
1.077484529E1,2.322898694E-2,-2.157388687E-2,-3.400740623E-3,3.188390606E-2
1.078487129E1,-2.896640285E-2,6.440708041E-3,2.592728510E-3,2.978686716E-2
1.079489729E1,-3.198180054E-2,1.468995988E-2,-3.694270849E-2,5.102346713E-2
1.080492329E1,3.582589259E-2,2.683053374E-2,-5.536794282E-2,7.119677811E-2
1.081494929E1,1.013648181E-1,5.557486117E-2,-2.031794149E-2,1.173721018E-1
1.082497529E1,1.235073101E-1,4.372430921E-2,3.098903697E-2,1.346335444E-1
1.083500129E1,3.422792392E-2,-2.135403156E-3,7.118689042E-2,7.901698608E-2
1.084502729E1,-7.743296840E-2,-2.314386427E-2,6.332293354E-2,1.026708185E-1
1.085505329E1,-1.460594453E-1,-5.595083714E-2,-6.528416276E-3,1.565454501E-1
1.086507929E1,-1.456399898E-1,-7.107232153E-2,-5.912119746E-2,1.725039058E-1
1.087510529E1,-1.076653848E-1,-6.119578958E-2,-7.711651526E-2,1.458893988E-1
1.088513129E1,-1.158224471E-2,-4.518377423E-2,-5.858033001E-2,7.488242057E-2
1.089515729E1,9.294871045E-2,-3.380450785E-2,-4.576443929E-2,1.089797753E-1
1.090518329E1,1.519306437E-1,-1.088283777E-2,-4.603271686E-2,1.591237495E-1
1.091520829E1,1.423364135E-1,-3.939853907E-3,-5.319497131E-2,1.520029014E-1
1.092523429E1,9.365052251E-2,2.709599733E-3,-2.066406012E-2,9.594147006E-2
1.093526029E1,3.399569810E-2,2.506058156E-2,1.459348083E-2,4.468456020E-2
1.094528629E1,-2.164990753E-2,1.954431832E-2,4.765071452E-2,5.586850158E-2
1.095531229E1,-8.988770219E-2,6.053037643E-3,8.002148509E-2,1.204984496E-1
1.096533829E1,-1.320886564E-1,-9.848465323E-3,8.517931402E-2,1.574799065E-1
1.097536429E1,-1.565693769E-1,-8.683699965E-3,2.791460752E-2,1.592752390E-1
1.098539029E1,-1.068856951E-1,-4.353252053E-3,-2.735612534E-2,1.104167570E-1
1.099541629E1,-1.823902450E-2,1.320301294E-3,-9.950243421E-3,2.081856273E-2
1.100544229E1,6.702487886E-2,2.435950041E-2,1.427243214E-2,7.272841237E-2
1.101546829E1,1.462082387E-1,3.423076987E-2,-9.543861933E-3,1.504648795E-1
1.102549429E1,1.376993979E-1,1.044605076E-2,-4.433479507E-2,1.450372994E-1
1.103552029E1,5.820047113E-2,-5.496967435E-3,-7.632312119E-2,9.613911961E-2
1.104554629E1,-3.603400778E-2,-5.834351778E-3,-6.246339284E-2,7.234752810E-2
1.105557229E1,-6.704270373E-2,-9.794670939E-3,2.593817554E-2,7.254962890E-2
1.106559829E1,-1.012633323E-1,1.020339131E-3,8.046645820E-2,1.293450983E-1
1.107562429E1,-9.480623382E-2,2.856949568E-2,9.441148281E-2,1.368136183E-1
1.108565029E1,-8.278945648E-2,3.633986056E-2,8.045710266E-2,1.210290252E-1
1.109567629E1,-4.687622796E-2,5.966323435E-2,2.771814108E-2,8.077980952E-2
1.110570229E1,-2.083914311E-2,6.204363585E-2,-5.071874857E-2,8.280141358E-2
1.111572829E1,-1.561869302E-2,6.277395308E-2,-5.516731024E-2,8.501732103E-2
1.112575429E1,1.333260529E-2,7.185117066E-2,3.296422642E-2,8.016850574E-2
1.113578029E1,4.332327701E-2,5.816693187E-2,4.402478300E-2,8.484385547E-2
1.114580629E1,2.335285655E-2,-2.192121148E-3,-5.383012511E-2,5.871834188E-2
1.115583229E1,2.282132866E-3,-3.091832221E-2,-1.365863530E-1,1.400606390E-1
1.116585829E1,-3.286821788E-2,-1.680606723E-2,-1.226985580E-1,1.281315721E-1
1.117588429E1,-1.866909406E-2,-1.332463503E-2,-5.397564769E-2,5.864683721E-2
1.118590929E1,3.942471449E-2,-1.615468740E-2,-5.568303466E-3,4.296845403E-2
1.119593529E1,4.997236063E-2,3.002545238E-3,4.597139418E-2,6.796779522E-2
1.120596129E1,3.970620311E-2,-1.153772593E-2,9.008567613E-2,9.912179744E-2
1.121598729E1,4.156662268E-2,-1.654177308E-2,9.864603639E-2,1.083164571E-1
1.122601329E1,8.816962807E-3,-1.680314362E-2,6.290602706E-2,6.570580423E-2
1.123603929E1,1.809760296E-2,-2.530090213E-2,6.162234396E-4,3.111331890E-2
1.124606529E1,2.703678057E-2,-4.200815141E-2,-2.335144043E-2,5.514491870E-2
1.125609129E1,4.624045746E-2,-9.806131482E-2,-1.003265262E-2,1.088800050E-1
1.126611729E1,1.782843575E-2,-1.045324284E-1,-4.032356858E-2,1.134498651E-1
1.127614329E1,-1.994837462E-2,-1.145375991E-1,-1.081378581E-1,1.587784482E-1
1.128616929E1,-2.407620281E-2,-1.470650750E-1,-1.688148900E-1,2.251805208E-1
1.129619529E1,-3.411898755E-2,-1.343169755E-1,-1.790148461E-1,2.263878758E-1
1.130622129E1,-3.596250501E-2,-1.166168690E-1,-1.125168379E-1,1.659904657E-1
1.131624729E1,-3.274730842E-2,-6.649102807E-2,2.558332264E-2,7.840886060E-2
1.132627329E1,-2.412725174E-2,-1.565708935E-2,5.472884215E-2,6.182649017E-2
1.133629929E1,-6.931807918E-3,1.048171878E-2,4.356833473E-3,1.330031531E-2
1.134632529E1,-4.491694020E-3,4.711043179E-2,-1.810473382E-2,5.066901899E-2
1.135635129E1,1.467401137E-2,9.839109778E-2,1.263290942E-2,1.002782386E-1
1.136637729E1,3.966902761E-2,1.452653021E-1,1.050592625E-1,1.836112425E-1
1.137640329E1,2.968734627E-2,1.619924319E-1,1.590811763E-1,2.289753418E-1
1.138642929E1,2.666492963E-2,1.402232480E-1,1.466475838E-1,2.046438164E-1
1.139645529E1,-9.365266040E-3,1.017006218E-1,9.376770437E-2,1.386474200E-1
1.140648129E1,-2.928281944E-2,2.651127577E-2,3.449330986E-2,5.244158352E-2
1.141650758E1,-3.707113025E-2,-1.454553366E-2,-2.646453459E-2,4.781435808E-2
1.142653358E1,1.366807901E-2,-2.473255277E-2,-6.157710113E-2,6.775142016E-2
1.143655958E1,9.565709506E-2,-1.602721810E-2,-4.911547858E-2,1.087174401E-1
1.144658558E1,1.389928477E-1,1.231423616E-2,-4.724586792E-3,1.396172404E-1
1.145661058E1,9.853198827E-2,1.852690279E-2,3.199764512E-2,1.052409052E-1
1.146663658E1,2.592767340E-2,4.302965999E-2,5.660104752E-4,5.024058374E-2
1.147666258E1,-3.348864629E-2,6.243539929E-2,1.346211769E-2,7.211724570E-2
1.148668858E1,-4.419460807E-2,7.355914235E-2,7.655174732E-2,1.149968731E-1
1.149671458E1,-4.287446209E-2,9.315082312E-2,1.136266760E-1,1.530565805E-1
1.150674058E1,-2.552007678E-2,1.061135155E-1,1.100142661E-1,1.549660971E-1
1.151676658E1,4.247296851E-2,1.094546145E-1,1.013001607E-1,1.550676892E-1
1.152679258E1,7.601947711E-2,6.098119676E-2,7.499752086E-2,1.229727425E-1
1.153681858E1,3.710430178E-2,1.313693941E-2,-1.502559006E-2,4.213165964E-2
1.154684458E1,3.614385549E-3,-3.781511307E-2,-1.188903395E-1,1.248116957E-1
1.155687058E1,-5.088360351E-2,-5.327105820E-2,-1.127600455E-1,1.346914051E-1
1.156689658E1,-8.238101933E-2,-7.351704240E-2,-4.538082540E-2,1.193767447E-1
1.157692258E1,-7.742768764E-2,-6.488187432E-2,-4.741441391E-2,1.115922537E-1
1.158694858E1,-6.553795476E-2,-6.494911730E-2,-2.529856324E-2,9.567459775E-2
1.159697458E1,-5.343430515E-2,-5.484103560E-2,-3.049322963E-2,8.241723853E-2
1.160700058E1,2.534881960E-2,-6.941931367E-2,-8.414318740E-2,1.119896413E-1
1.161702658E1,8.710291092E-2,-7.288846672E-2,-1.365131897E-1,1.775823658E-1
1.162705258E1,1.202325861E-1,-8.321698844E-2,-8.374265313E-2,1.685045219E-1
1.163707858E1,8.721012510E-2,-1.104351926E-1,-3.912024815E-2,1.460545497E-1
1.164710458E1,9.502999946E-3,-1.205614007E-1,-3.738709688E-2,1.265825950E-1
1.165713058E1,-8.189074857E-2,-1.360629541E-1,-2.851336241E-2,1.613450774E-1
1.166715658E1,-1.169825392E-1,-1.205684173E-1,-5.809610747E-2,1.777549308E-1
1.167718258E1,-8.626217267E-2,-1.336737818E-1,-1.670958817E-2,1.599657860E-1
1.168720858E1,1.294975313E-2,-8.201187730E-2,4.951721884E-2,9.667263877E-2
1.169723458E1,6.138648190E-2,-5.835930526E-2,2.967286527E-2,8.974735430E-2
1.170726058E1,6.045943326E-2,-4.004524112E-2,-4.830903791E-2,8.713625853E-2
1.171728658E1,-7.422112939E-3,-3.767711878E-2,-9.300230384E-2,1.006184951E-1
1.172731158E1,-6.919444255E-2,-2.402971745E-2,-1.036021364E-1,1.268806560E-1
1.173733758E1,-5.708516956E-2,-1.935428381E-4,-3.189188361E-2,6.538995552E-2
1.174736358E1,-2.174998399E-2,2.615985811E-2,4.678415716E-2,5.784597947E-2
1.175738958E1,-3.537873591E-2,5.789328218E-2,6.906552058E-2,9.681597600E-2
1.176741558E1,-4.045923769E-2,5.696532905E-2,9.521138191E-2,1.180982890E-1
1.177744158E1,-4.619527859E-2,7.037007093E-2,8.043963410E-2,1.164323210E-1
1.178746758E1,-4.142510635E-2,7.999458790E-2,2.803396381E-2,9.434551742E-2
1.179749358E1,-6.522947302E-2,8.555412054E-2,2.423086166E-2,1.102793106E-1
1.180751958E1,-3.485775813E-2,9.648958325E-2,2.711127318E-2,1.061146743E-1
1.181754558E1,-3.356583182E-2,1.053089386E-1,6.805106521E-2,1.297982477E-1
1.182757158E1,-2.125437765E-2,1.232487810E-1,9.423438527E-2,1.565954340E-1
1.183759758E1,-3.318764259E-2,8.385608912E-2,3.736133259E-2,9.761727549E-2
1.184762358E1,-3.920366233E-2,6.423283339E-2,8.452150226E-3,7.572465166E-2
1.185764958E1,-1.871298815E-2,5.000363410E-2,-2.728372950E-2,5.995782888E-2
1.186767558E1,-2.305538402E-2,4.925226688E-2,-5.881187975E-2,8.010102200E-2
1.187770158E1,-1.219003537E-2,2.739479005E-2,-2.778355680E-2,4.087783645E-2
1.188772758E1,1.196561420E-2,1.583484471E-2,3.191351831E-2,3.758178922E-2
1.189775358E1,-1.305713633E-2,-2.633001208E-3,8.647735935E-2,8.749717244E-2
1.190777958E1,-4.051343864E-2,-2.333857656E-2,6.324465394E-2,7.865058244E-2
1.191780558E1,-6.002532775E-2,-1.185756862E-2,-8.374382257E-3,6.175574616E-2
1.192783158E1,-6.512547481E-2,-3.913249075E-2,2.544781342E-3,7.602075515E-2
1.193785758E1,1.952000212E-2,3.797181845E-3,4.784725405E-2,5.181514058E-2
1.194788358E1,2.309308943E-2,-3.008392453E-2,4.456747770E-3,3.818633126E-2
1.195790958E1,2.673826651E-2,-4.075450838E-2,-1.346957289E-2,5.056969688E-2
1.196793558E1,6.735536532E-2,-2.297195613E-2,-2.205862105E-2,7.450529356E-2
1.197796058E1,9.576939815E-2,-3.092533886E-2,-3.474360723E-2,1.064672365E-1
1.198798658E1,1.073175303E-1,-4.336061239E-2,-7.439755999E-2,1.375943020E-1
1.199801258E1,5.799138749E-2,-6.581742883E-2,-1.285755944E-1,1.556490233E-1
1.200803858E1,2.628863618E-2,-7.373865187E-2,-1.273300644E-1,1.494704870E-1
1.201806458E1,8.633795350E-3,-7.369889081E-2,-1.340655817E-1,1.532307056E-1
1.202809058E1,-1.237823577E-3,-6.512628794E-2,-8.733934857E-2,1.089547034E-1
1.203811658E1,-1.659006058E-2,-5.536903918E-2,-4.829803783E-2,7.532370854E-2
1.204814258E1,6.493998103E-2,-2.225684166E-2,-2.070732951E-2,7.170328885E-2
1.205816858E1,1.318762654E-1,-2.010857463E-3,2.455720939E-2,1.341583000E-1
1.206819458E1,1.209860547E-1,7.420701385E-3,1.033892977E-1,1.593174163E-1
1.207822058E1,3.862711773E-2,8.127045035E-3,1.334632089E-1,1.391780558E-1
1.208824658E1,-3.153775248E-2,-1.855847776E-2,7.433623731E-2,8.285483152E-2
1.209827258E1,-8.594321620E-2,-4.688122094E-2,1.808317222E-2,9.955443940E-2
1.210829858E1,-8.359136556E-2,-6.786044598E-2,2.516641617E-2,1.105708145E-1
1.211832458E1,-2.114095994E-2,-5.456095397E-2,5.966729086E-2,8.357047017E-2
1.212835058E1,7.667780050E-2,-4.829800129E-2,4.909380734E-2,1.030649501E-1
1.213837658E1,1.420458891E-1,-4.379155219E-2,-2.761581481E-2,1.511865334E-1
1.214840258E1,1.371989128E-1,-4.381903410E-2,-1.732084879E-1,2.252661308E-1
1.215842858E1,1.196093643E-1,-1.171548128E-2,-2.481336129E-1,2.757062610E-1
1.216845458E1,1.312520660E-1,-6.841827035E-3,-1.433871033E-1,1.945090662E-1
1.217848058E1,1.250123743E-1,3.616327465E-2,-2.750416953E-2,1.330126141E-1
1.218850658E1,9.118705401E-2,4.919204056E-2,3.952659309E-2,1.108931343E-1
1.219853258E1,2.926843895E-2,2.028165221E-2,4.566726588E-2,5.790929207E-2
1.220855858E1,-3.415579760E-2,-7.468063831E-3,7.325391769E-3,3.572186798E-2
1.221858458E1,-9.663229186E-2,-6.805574298E-3,-7.684812807E-2,1.236517305E-1
1.222861058E1,-4.010493753E-2,2.691531837E-2,-1.410143763E-1,1.490566828E-1
1.223863658E1,-1.358724810E-2,6.244417012E-2,-1.603557231E-1,1.726205249E-1
1.224866158E1,6.576626112E-3,7.888069332E-2,-1.593501117E-1,1.779265969E-1
1.225868758E1,2.575230032E-2,1.030004579E-1,-1.174612800E-1,1.583332801E-1
1.226871358E1,2.518877948E-2,1.278768522E-1,-5.975306220E-3,1.304709478E-1
1.227873958E1,-2.002505766E-2,1.070274353E-1,1.615240699E-1,1.947970739E-1
1.228876558E1,-5.568130333E-2,1.028408289E-1,2.908359019E-1,3.134679656E-1
1.229879158E1,-6.929737181E-2,6.355046332E-2,2.725469077E-1,2.883099097E-1
1.230881758E1,-1.308052657E-1,2.595988333E-2,2.103038818E-1,2.490213962E-1
1.231884358E1,-1.707517071E-1,1.282411337E-2,2.627961639E-1,3.136597315E-1
1.232886958E1,-1.564386551E-1,-6.065375268E-2,1.373546040E-1,2.168368460E-1
1.233889558E1,-1.036318932E-1,-1.346333098E-1,-6.877253853E-2,1.832903693E-1
1.234892158E1,-2.965965879E-2,-1.462254149E-1,-1.757883525E-1,2.305712735E-1
1.235894758E1,2.787021437E-2,-1.255519992E-1,-1.721584010E-1,2.148919924E-1
1.236897358E1,6.729807174E-2,-4.105271637E-2,-1.110912502E-1,1.362190216E-1
1.237899958E1,6.038419147E-2,-2.369876504E-2,-1.558406494E-1,1.688022217E-1
1.238902558E1,-5.682516604E-3,-4.853422880E-2,-1.330288339E-1,1.417199104E-1
1.239905158E1,-6.991377341E-2,-4.233968854E-2,-4.914935589E-2,9.537423196E-2
1.240907758E1,-1.382305352E-1,-3.301279485E-2,1.013563670E-2,1.424789690E-1
1.241910283E1,-1.334847522E-1,1.301941037E-2,1.282230073E-1,1.855500572E-1
1.242912883E1,-6.627337460E-2,6.654365301E-2,2.549281505E-1,2.716773452E-1
1.243915483E1,-4.144518788E-2,7.986302555E-2,2.534025024E-1,2.689026490E-1
1.244918083E1,-1.999327941E-2,8.419698179E-2,1.311740240E-1,1.571479797E-1
1.245920683E1,-2.037198713E-2,3.089610279E-2,-2.821807802E-2,4.653866085E-2
1.246923283E1,-2.494007410E-2,-9.199424386E-3,-1.420574465E-1,1.445231981E-1
1.247925883E1,-2.710374261E-2,-2.809002399E-3,-2.069148356E-1,2.087013477E-1
1.248928483E1,3.256670255E-2,1.428591728E-2,-2.310749459E-1,2.337954409E-1
1.249931083E1,1.204796493E-1,4.686543345E-2,-1.711234804E-1,2.144643567E-1
1.250933583E1,1.147211834E-1,4.146260619E-2,-7.684118450E-2,1.441688776E-1
1.251936183E1,2.229787267E-2,5.473987877E-2,1.380056184E-2,6.069682826E-2
1.252938783E1,-6.302533767E-2,5.028722405E-2,7.568986773E-2,1.105891232E-1
1.253941383E1,-6.735647080E-2,3.752976894E-2,1.396057455E-1,1.594839863E-1
1.254943983E1,-5.177418013E-2,2.589614868E-2,1.862823504E-1,1.950699626E-1
1.255946583E1,-1.535054679E-2,3.334374726E-2,2.460391037E-1,2.487623068E-1
1.256949183E1,2.290124137E-2,1.934025049E-2,2.168322980E-1,2.188943983E-1
1.257951783E1,7.599169827E-2,1.419762433E-2,5.198463421E-2,9.315961000E-2
1.258954383E1,1.143529915E-1,3.411967278E-2,-8.353394408E-2,1.456663261E-1
1.259956983E1,1.325319210E-1,8.751527667E-3,-1.515580025E-1,2.015220272E-1
1.260959583E1,1.133314738E-1,-1.565767407E-2,-1.693838972E-1,2.044017865E-1
1.261962183E1,9.257885579E-2,-5.870487571E-2,-1.704100835E-1,2.026245383E-1
1.262964783E1,6.104938991E-2,-5.516321719E-2,-1.397514142E-1,1.621741851E-1
1.263967383E1,-4.780710013E-2,-4.084397078E-2,-1.983426712E-2,6.593289713E-2
1.264969983E1,-9.245274779E-2,-1.876546919E-2,5.637242138E-2,1.098976947E-1
1.265972583E1,-4.693501075E-2,-8.566170931E-3,6.200212061E-2,7.823386402E-2
1.266975183E1,8.886568656E-3,-5.596370101E-3,9.329115629E-2,9.388040425E-2
1.267977783E1,4.915721308E-2,-1.656691611E-2,8.391631544E-2,9.865516866E-2
1.268980383E1,7.474078241E-2,-1.300537705E-2,8.509102106E-2,1.139991502E-1
1.269982983E1,8.236168697E-2,-1.689319074E-2,-5.088283606E-3,8.423014903E-2
1.270985583E1,2.007970400E-2,-2.134233713E-2,-5.580703218E-2,6.303264795E-2
1.271988183E1,-4.458617509E-2,-7.346441746E-3,-4.036449909E-2,6.059034578E-2
1.272990783E1,9.537272395E-3,5.435571671E-3,2.552247506E-2,2.778311964E-2
1.273993383E1,6.556947947E-2,-5.923229456E-3,4.452822827E-2,7.948084297E-2
1.274995883E1,9.887003043E-2,-7.114307284E-3,2.240711510E-2,1.016266456E-1
1.275998483E1,1.151740137E-1,1.270599961E-3,-4.443920441E-3,1.152667180E-1
1.277001083E1,8.806180861E-2,-2.520033002E-2,-3.409047324E-2,9.773484094E-2
1.278003683E1,3.105727809E-2,-6.587648571E-2,-7.791122496E-2,1.066509487E-1
1.279006283E1,-1.239431561E-2,-6.687226653E-2,-4.695493240E-2,8.264553689E-2
1.280008883E1,2.833414525E-3,-5.455744565E-2,3.883366149E-2,6.702683327E-2
1.281011483E1,-3.199286914E-3,-3.388169110E-2,1.143772757E-1,1.193330031E-1
1.282014083E1,-1.039021671E-2,-5.645720601E-2,7.332123376E-2,9.312022355E-2
1.283016683E1,6.214918722E-3,-5.326287210E-2,1.195061244E-2,5.493974788E-2
1.284019283E1,8.170247051E-3,-5.275474906E-2,-1.752520166E-2,5.618673490E-2
1.285021883E1,4.768659267E-2,-4.462536514E-2,-1.253409147E-2,6.650216375E-2
1.286024483E1,7.785279849E-2,-4.516564786E-2,-1.774045229E-3,9.002300381E-2
1.287027083E1,6.485365237E-2,-2.545176029E-2,-3.254154582E-2,7.689434655E-2
1.288029683E1,-1.087947562E-3,-2.888641477E-2,-4.536562264E-2,5.379264174E-2
1.289032283E1,-6.239095132E-2,-3.993706763E-2,-3.359927058E-2,8.134193974E-2
1.290034883E1,-1.040055394E-1,-2.224339306E-2,-2.607156515E-2,1.095063801E-1
1.291037483E1,-5.870306216E-2,2.569032669E-2,-1.691650651E-2,6.627375487E-2
1.292040083E1,1.032931316E-2,7.075364828E-2,1.931686163E-2,7.406696024E-2
1.293042683E1,2.587589356E-2,9.839869916E-2,1.130594961E-1,1.520996894E-1
1.294045283E1,-1.449098781E-3,1.244766963E-1,1.478035784E-1,1.932419354E-1
1.295047883E1,-9.505758187E-2,1.206882852E-1,1.295538336E-1,2.009621901E-1
1.296050483E1,-1.432701042E-1,8.272699177E-2,1.010018796E-1,1.938335822E-1
1.297053083E1,-1.491636225E-1,6.049061537E-2,6.306222081E-3,1.610859064E-1
1.298055683E1,-1.015606724E-1,6.461699545E-2,-3.895828027E-2,1.265214364E-1
1.299058283E1,-1.594009231E-2,1.384913027E-2,-6.504552327E-2,6.838717021E-2
1.300060883E1,3.483294172E-2,1.341760576E-2,-6.327038169E-2,7.346092276E-2
1.301063383E1,4.824889381E-3,2.378179550E-2,-1.796268303E-2,3.019124602E-2
1.302065983E1,-4.863052057E-2,8.825202584E-3,2.716082834E-2,5.639611979E-2
1.303068583E1,-1.025990465E-1,-1.574245870E-2,4.916814007E-2,1.148559766E-1
1.304071183E1,-1.424649700E-1,-3.313090861E-2,4.214161411E-3,1.463273178E-1
1.305073783E1,-1.722045757E-1,-5.291145444E-2,-3.853198171E-2,1.842247311E-1
1.306076383E1,-1.519244402E-1,-4.350620806E-2,-3.734269459E-2,1.623831965E-1
1.307078983E1,-1.092930121E-1,-2.542661726E-2,-1.897077955E-2,1.138040677E-1
1.308081583E1,-8.871736371E-2,-2.275853276E-2,-9.968917966E-3,9.213088930E-2
1.309084183E1,-4.819022523E-2,-1.436543941E-2,-3.573577009E-2,6.169042812E-2
1.310086783E1,1.248248066E-2,-1.281709671E-2,-4.635555625E-2,4.968830734E-2
1.311089383E1,3.595076947E-2,-2.575932384E-2,-1.180903673E-2,4.577612848E-2
1.312091983E1,5.440981259E-2,-2.778012156E-2,-2.326727707E-2,6.537223449E-2
1.313094583E1,6.211755287E-2,-1.094598770E-3,3.994931024E-2,7.386295357E-2
1.314097183E1,8.621036086E-2,2.107102633E-2,7.432216745E-2,1.157583649E-1
1.315099783E1,8.011114849E-2,2.750588715E-2,4.157494582E-2,9.435489420E-2
1.316102383E1,4.635181038E-2,2.736555398E-2,5.444488674E-4,5.382992006E-2
1.317104983E1,4.035371829E-2,1.465429187E-2,-5.100237507E-2,6.666643168E-2
1.318107583E1,-3.498298904E-3,3.726781368E-2,-3.544757545E-2,5.155248430E-2
1.319110183E1,2.772245568E-2,1.228090703E-2,-7.171025276E-3,3.115732386E-2
1.320112783E1,7.387624873E-2,1.839066267E-2,3.582830228E-2,8.414026292E-2
1.321115383E1,9.487662882E-2,2.464309037E-2,5.139885284E-2,1.106828743E-1
1.322117983E1,1.107632397E-1,-1.503260672E-2,1.336622335E-2,1.125749992E-1
1.323120583E1,7.969412324E-2,-6.790956259E-3,1.543664932E-3,7.999783289E-2
1.324123183E1,4.026357980E-2,-6.794464588E-3,6.382784061E-3,4.132868907E-2
1.325125783E1,2.967980884E-2,-1.596231401E-2,2.257661127E-2,4.056340589E-2
1.326128283E1,1.441986763E-2,-2.140080929E-2,9.513383321E-3,2.750330313E-2
1.327130883E1,-2.327639964E-2,-1.560797274E-2,-2.863849282E-2,4.006947547E-2
1.328133483E1,-3.867122767E-2,-1.486186802E-2,-5.671916127E-2,7.023818211E-2
1.329136083E1,-1.329869943E-2,-2.587977648E-2,-8.570081256E-2,9.050551094E-2
1.330138683E1,5.489707523E-3,-2.235916793E-2,-6.666644454E-2,7.053002273E-2
1.331141283E1,1.027738257E-2,-3.052480459E-2,1.886545658E-2,3.732685012E-2
1.332143883E1,2.298566283E-2,-8.939808011E-3,8.886653166E-2,9.222538323E-2
1.333146483E1,3.179831902E-2,-1.357781947E-2,9.361801565E-2,9.979891346E-2
1.334149083E1,7.227953402E-2,-2.883262038E-2,2.361511331E-2,8.132235002E-2
1.335151683E1,2.124504951E-2,-2.114470124E-2,-4.375522636E-2,5.303744294E-2
1.336154283E1,-5.460631329E-3,-1.896836758E-2,-5.457206368E-2,5.803212557E-2
1.337156883E1,-7.812138211E-3,-2.507578433E-2,2.544942141E-2,3.657181309E-2
1.338159483E1,2.590295977E-3,-1.431281447E-2,3.887283783E-2,4.150498540E-2
1.339162083E1,3.326807606E-2,7.545831800E-3,-2.692233503E-2,4.345706601E-2
1.340164683E1,1.376825369E-2,9.688251615E-3,-1.126004165E-1,1.138520129E-1
1.341167283E1,-3.514806553E-2,-8.933376074E-3,-1.837394329E-1,1.872841982E-1
1.342169921E1,-7.079808712E-2,-2.705799043E-2,-2.019137486E-1,2.156702711E-1
1.343172521E1,-6.324944135E-2,-2.752810657E-2,-1.259233340E-1,1.435791577E-1
1.344175121E1,5.367134123E-3,2.656974792E-3,1.300004147E-2,1.431316604E-2
1.345177721E1,6.880473019E-2,3.733681083E-2,6.189928271E-2,9.979804376E-2
1.346180321E1,8.881872154E-2,7.263235867E-2,2.441738784E-2,1.173048748E-1
1.347182921E1,6.099428904E-2,1.058123839E-1,5.391074359E-2,1.335025549E-1
1.348185521E1,2.843294492E-2,7.904733896E-2,1.453138340E-1,1.678482186E-1
1.349188121E1,1.457663239E-2,5.280152678E-2,2.124363613E-1,2.193847922E-1
1.350190721E1,-1.275679273E-2,4.039607406E-2,2.476932810E-1,2.512897531E-1
1.351193221E1,-1.087501826E-2,2.678200185E-2,1.969154755E-1,1.990257424E-1
1.352195821E1,-7.571730854E-3,1.274868429E-2,6.752415799E-2,6.913300204E-2
1.353198421E1,-4.802482668E-5,3.077857375E-2,1.992621459E-3,3.084304539E-2
1.354201021E1,1.654772422E-2,4.762440205E-2,-3.606153309E-2,6.198665192E-2
1.355203621E1,2.473710720E-2,3.649890482E-2,-3.615625799E-2,5.702078145E-2
1.356206221E1,1.310589663E-2,1.489929020E-2,-1.864377402E-2,2.722762723E-2
1.357208821E1,-2.209935513E-2,-7.749899626E-3,9.232826605E-3,2.517315094E-2
1.358211421E1,-7.674893553E-2,3.467398882E-3,-4.195369922E-2,8.753590600E-2
1.359214021E1,-9.587522361E-2,1.934375882E-2,-7.710785408E-2,1.245466205E-1
1.360216621E1,-7.848656357E-2,1.707503915E-2,-2.459167141E-2,8.400266619E-2
1.361219221E1,-3.064092664E-2,-6.775753498E-3,6.673427224E-3,3.208289033E-2
1.362221821E1,2.328551536E-2,1.452974617E-2,5.778160036E-2,6.396907135E-2
1.363224421E1,6.115297699E-2,1.872278452E-2,9.755845428E-2,1.166528236E-1
1.364227021E1,5.579414089E-2,-2.543714225E-2,6.464447737E-2,8.910074533E-2
1.365229621E1,2.448993215E-2,-6.071339428E-2,-2.587444089E-2,7.039431592E-2
1.366232221E1,-4.733507451E-2,-7.993202269E-2,-1.328200883E-1,1.620830447E-1
1.367234821E1,-1.164279034E-1,-8.864729762E-2,-1.238614961E-1,1.917171622E-1
1.368237421E1,-1.165802965E-1,-6.859485626E-2,-8.784100313E-2,1.612831723E-1
1.369240021E1,-7.404442927E-2,-5.988425910E-2,-8.638267100E-2,1.285716448E-1
1.370242621E1,-7.502322005E-3,-4.692741394E-2,-9.890280224E-2,1.097279878E-1
1.371245221E1,-4.842504119E-3,-3.826476395E-2,-8.857482869E-2,9.660818953E-2
1.372247821E1,-1.943234414E-2,-3.484589696E-2,-2.652183730E-2,4.790887587E-2
1.373250421E1,-1.898999314E-2,-2.249774694E-2,3.509027403E-2,4.580497559E-2
1.374253021E1,-1.562814107E-2,-1.575415313E-2,8.703690134E-2,8.982123540E-2
1.375255521E1,-2.945893255E-2,1.275277734E-3,1.165174663E-1,1.201905778E-1
1.376258121E1,-5.375027407E-2,1.887539685E-2,9.214568675E-2,1.083337443E-1
1.377260721E1,-3.406085572E-2,1.747206509E-2,2.843910277E-2,4.768854703E-2
1.378263321E1,-2.730772821E-2,1.071151435E-2,-5.511994779E-2,6.243922809E-2
1.379265921E1,1.816696556E-2,1.851462364E-2,-9.735204756E-2,1.007484545E-1
1.380268521E1,3.945410589E-2,2.708430290E-3,-8.358243942E-2,9.246613567E-2
1.381271121E1,8.195479386E-2,4.046273232E-4,-6.462985933E-2,1.043732278E-1
1.382273721E1,6.547967903E-2,-2.058980048E-2,-3.615333438E-2,7.757958389E-2
1.383276321E1,1.546666655E-2,-4.946919858E-2,-8.601140935E-2,1.004210233E-1
1.384278921E1,-4.281156798E-2,-8.502670169E-2,-1.426784939E-1,1.715212027E-1
1.385281521E1,-8.920672998E-2,-8.826313555E-2,-7.411923252E-2,1.457459516E-1
1.386284121E1,-8.887221443E-2,-6.389135599E-2,5.633273341E-2,1.231005797E-1
1.387286721E1,-2.335933417E-2,-2.372683167E-2,1.113835744E-1,1.162536954E-1
1.388289321E1,9.318167632E-2,4.887687564E-3,9.676856853E-2,1.344279366E-1
1.389291921E1,9.717574487E-2,2.619552612E-2,-1.516124547E-2,1.017801275E-1
1.390294521E1,5.900524900E-2,2.601484716E-2,-9.660543121E-2,1.161507685E-1
1.391297121E1,2.119299787E-2,3.199362516E-2,-1.294479990E-1,1.350167384E-1
1.392299721E1,1.875072096E-2,4.617546201E-2,-6.151446283E-2,7.916938780E-2
1.393302321E1,4.713972725E-2,7.515952528E-2,1.749073964E-2,9.042695449E-2
1.394304921E1,6.280233492E-2,1.053451914E-1,2.621946316E-2,1.254161188E-1
1.395307521E1,1.999925682E-2,1.016883427E-1,1.568164766E-2,1.048160455E-1
1.396310121E1,-4.261327428E-2,1.021853560E-1,3.630477726E-2,1.165151277E-1
1.397312721E1,-6.388238417E-2,6.549466252E-2,3.702983201E-2,9.870014329E-2
1.398315321E1,-4.058879463E-2,6.167058349E-2,6.784926318E-2,1.002708015E-1
1.399317921E1,2.098245471E-2,6.705469966E-2,8.593883079E-2,1.110048593E-1
1.400320421E1,7.360999485E-2,5.163383782E-2,7.063268401E-2,1.143392347E-1
1.401323021E1,7.889019504E-2,3.325077653E-2,1.289142944E-2,8.657635917E-2
1.402325621E1,7.557904929E-2,5.008724928E-3,-1.867253501E-2,7.801245786E-2
1.403328221E1,3.717877612E-2,-1.453033090E-2,-2.829993904E-2,4.893136478E-2
1.404330821E1,3.553029985E-2,-2.131368577E-2,-3.155508399E-2,5.208069445E-2
1.405333421E1,5.222778245E-2,-4.679292798E-2,-1.771658834E-2,7.232701343E-2
1.406336021E1,4.664356817E-2,-6.297217369E-2,-7.786663994E-3,7.875118568E-2
1.407338621E1,1.160726668E-2,-7.898477376E-2,-1.488529343E-2,8.120895939E-2
1.408341221E1,8.484276793E-3,-9.542714417E-2,-2.396707915E-2,9.875598048E-2
1.409343821E1,2.025276560E-2,-6.636765182E-2,-6.187450513E-3,6.966436870E-2
1.410346421E1,-8.348150300E-3,-6.889774203E-2,2.935302258E-4,6.940228116E-2
1.411349021E1,-4.014979664E-2,-8.160724998E-2,1.609563053E-2,9.236243144E-2
1.412351621E1,-5.770815385E-2,-7.427893460E-2,4.434184827E-2,1.039893776E-1
1.413354221E1,-5.418368523E-2,-6.393462539E-2,-3.209536672E-3,8.386780785E-2
1.414356821E1,-1.740444067E-2,-4.233267188E-2,-8.750244934E-2,9.875043445E-2
1.415359421E1,1.084661473E-2,-2.009103298E-2,-1.100650638E-1,1.124082601E-1
1.416362021E1,9.993122241E-3,1.821115315E-2,-1.111959153E-1,1.131195835E-1
1.417364621E1,-1.227766137E-2,1.568924904E-2,-9.860854112E-2,1.006008841E-1
1.418367221E1,-3.421031375E-2,1.748200536E-2,-1.492377542E-2,4.121510829E-2
1.419369821E1,-6.994949624E-2,5.407212675E-2,9.687250279E-2,1.311526161E-1
1.420372421E1,-8.364266574E-2,8.655340970E-2,1.133798138E-1,1.653558903E-1
1.421375021E1,-3.759739336E-2,7.947769403E-2,3.336180054E-2,9.403870252E-2
1.422377621E1,-2.278766149E-3,8.254748225E-2,5.682872348E-3,8.277423898E-2
1.423380121E1,2.624260078E-2,6.207930386E-2,4.939376950E-2,8.355990982E-2
1.424382721E1,2.505468182E-2,4.247768283E-2,5.515324038E-2,7.398628618E-2
1.425385321E1,1.340022628E-2,-1.976826668E-2,-1.345151961E-2,2.740973936E-2
1.426387921E1,-1.307323216E-2,-1.010884184E-1,-1.035267073E-1,1.452843999E-1
1.427390521E1,-3.272135455E-2,-1.246404183E-1,-1.919710334E-1,2.312115884E-1
1.428393121E1,-2.113814597E-2,-1.063257694E-1,-1.900566550E-1,2.188001887E-1
1.429395721E1,1.554972899E-2,-3.470497906E-2,-1.228423264E-1,1.285941943E-1
1.430398321E1,2.783648096E-2,4.720457196E-3,1.928769864E-2,3.419309444E-2
1.431400921E1,9.413556390E-3,4.242622733E-2,1.736774711E-1,1.790320189E-1
1.432403521E1,3.782852169E-3,8.379060030E-2,2.273543626E-1,2.423327895E-1
1.433406121E1,-2.165196090E-2,9.080667436E-2,2.049174998E-1,2.251795755E-1
1.434408721E1,-8.003528086E-2,1.112473708E-1,1.547892469E-1,2.067397752E-1
1.435411321E1,-9.252025573E-2,1.072379351E-1,1.496536374E-1,2.060489836E-1
1.436413921E1,-7.339683644E-2,9.147091806E-2,1.620298541E-1,2.000192442E-1
1.437416521E1,-6.881158240E-2,8.475831449E-2,1.896112434E-1,2.187954053E-1
1.438419121E1,-5.106369318E-2,5.216125667E-2,9.457995571E-2,1.194724465E-1
1.439421721E1,-1.980258709E-2,1.638038993E-2,-9.594513439E-2,9.932738012E-2
1.440424321E1,-2.054545072E-2,-5.117775500E-2,-1.945380707E-1,2.022037070E-1
1.441426921E1,-3.460459425E-2,-1.001341528E-1,-1.798697090E-1,2.087520987E-1
1.442429546E1,-4.327347517E-2,-1.128886843E-1,-1.007697451E-1,1.573880244E-1
1.443432146E1,-3.336392015E-2,-8.673876643E-2,-3.954822779E-2,1.009991440E-1
1.444434746E1,-2.126007412E-2,-5.893701017E-2,-2.210251171E-2,6.643856518E-2
1.445437346E1,-2.148528100E-2,-3.694036961E-2,-5.596377410E-2,7.041414785E-2
1.446439846E1,-1.728371508E-2,-4.750862718E-3,-5.547487378E-2,5.829887756E-2
1.447442446E1,-4.055565736E-2,1.391929686E-2,-7.650496960E-3,4.355500285E-2
1.448445046E1,-7.399640445E-2,-3.659421444E-2,1.010749698E-2,8.316709624E-2
1.449447646E1,-9.450695688E-2,-6.524791002E-2,2.106466748E-2,1.167586180E-1
1.450450246E1,-7.425558228E-2,-5.151864767E-2,2.685984291E-2,9.428421776E-2
1.451452846E1,-9.758765381E-3,-2.788946450E-2,2.514185786E-2,3.879650433E-2
1.452455446E1,5.547178115E-2,-1.324979067E-2,1.740650319E-2,5.962937036E-2
1.453458046E1,6.186148594E-2,-4.273729920E-3,1.045884155E-2,6.288478017E-2
1.454460646E1,5.977635057E-2,-1.010515809E-2,1.842220109E-2,6.336169032E-2
1.455463246E1,1.162488370E-2,-1.414675355E-2,4.266526882E-2,4.642837193E-2
1.456465846E1,-1.972607308E-2,3.673688650E-2,2.428239025E-2,4.825299229E-2
1.457468446E1,1.034644710E-2,4.795360029E-2,2.803096712E-2,5.650072447E-2
1.458471046E1,5.387116069E-2,4.436399460E-2,1.420931876E-2,7.121917375E-2
1.459473646E1,8.733004784E-2,5.798917651E-2,2.179732360E-2,1.070719626E-1
1.460476246E1,1.132430986E-1,4.226075113E-2,5.850256205E-2,1.342852197E-1
1.461478846E1,1.152118836E-1,3.817705572E-2,8.721421815E-2,1.494576380E-1
1.462481446E1,6.389193158E-2,2.330524743E-2,7.132433653E-2,9.855188714E-2
1.463484046E1,6.507379547E-2,2.205511272E-2,6.233307302E-2,9.277089439E-2
1.464486646E1,6.089743083E-2,2.452029884E-2,5.800737597E-2,8.760478185E-2
1.465489246E1,4.117611547E-2,4.661985040E-3,5.981877029E-2,7.277013033E-2
1.466491846E1,1.252856060E-2,8.616456985E-3,1.954724193E-2,2.476495162E-2
1.467494446E1,-5.205624205E-3,-4.292616427E-2,-3.902899504E-2,5.824960563E-2
1.468496946E1,5.064419657E-3,-6.521575034E-2,-7.818136632E-2,1.019365905E-1
1.469499546E1,7.677007002E-3,-2.954422653E-2,-6.052036308E-2,6.778283046E-2
1.470502146E1,1.653174602E-2,-3.278767705E-2,-2.634404540E-2,4.519224625E-2
1.471504746E1,7.019129688E-2,-2.195629478E-2,-3.652931035E-2,8.211752281E-2
1.472507346E1,8.167503200E-2,-2.790642142E-2,-4.394803829E-3,8.642276036E-2
1.473509946E1,8.636618002E-2,-3.073355019E-2,-1.253131405E-3,9.168008779E-2
1.474512546E1,5.962941643E-2,-2.802687407E-2,-3.919681013E-2,7.666526526E-2
1.475515146E1,7.730757989E-3,-8.516761959E-2,-1.106837723E-1,1.398720326E-1
1.476517746E1,-5.521484627E-2,-1.298204666E-1,-1.825027102E-1,2.306713507E-1
1.477520346E1,-8.568902677E-2,-1.653943419E-1,-2.535463073E-1,3.146166359E-1
1.478522946E1,-6.819256326E-2,-1.667637599E-1,-1.773547485E-1,2.528143273E-1
1.479525546E1,-9.535587894E-3,-1.194977921E-1,-2.695032857E-2,1.228697276E-1
1.480528146E1,-5.459869592E-3,-3.546687126E-2,1.689021597E-1,1.726720843E-1
1.481530746E1,-2.891780015E-2,5.328918457E-2,2.326180261E-1,2.403895223E-1
1.482533346E1,-9.097876523E-2,7.193361640E-2,2.031217468E-1,2.339017420E-1
1.483535946E1,-1.268791893E-1,8.411102772E-2,1.221711026E-1,1.951890672E-1
1.484538546E1,-1.133117029E-1,9.567155778E-2,6.637174487E-2,1.624739902E-1
1.485541146E1,-5.118768613E-2,1.146767628E-1,5.435345091E-2,1.368401870E-1
1.486543746E1,-1.907306471E-2,1.319845212E-1,6.994903486E-2,1.505873936E-1
1.487546346E1,1.908993256E-2,1.370148808E-1,7.943442464E-2,1.595221956E-1
1.488548946E1,4.493573352E-2,1.281902629E-1,-3.069612801E-2,1.392631176E-1
1.489551546E1,1.914845268E-2,1.204222369E-1,-4.024865113E-2,1.284061225E-1
1.490554046E1,-1.846890801E-2,9.494533360E-2,1.920459509E-2,9.861304887E-2
1.491556646E1,-3.145505949E-3,8.243112266E-2,6.079642475E-2,1.024743356E-1
1.492559246E1,5.573540835E-3,6.404747665E-2,8.180481277E-2,1.040440821E-1
1.493561846E1,-1.127703718E-2,4.383248270E-2,9.111482263E-2,1.017367633E-1
1.494564446E1,-2.590197991E-2,-1.068344772E-2,7.342823781E-2,7.859233249E-2
1.495567046E1,-9.269491617E-3,-2.985412896E-2,2.625458300E-2,4.082273410E-2
1.496569646E1,-2.361604036E-3,-4.230460525E-2,1.751292251E-2,4.584712917E-2
1.497572246E1,2.525014327E-2,-5.323889852E-2,3.242222607E-2,6.725437379E-2
1.498574846E1,8.559998464E-2,-5.859611750E-2,2.618909419E-2,1.069893967E-1
1.499577446E1,1.205680245E-1,-6.975845218E-2,-1.258320808E-3,1.392999409E-1
1.500580046E1,1.092239327E-1,-8.552839279E-2,-2.236969292E-2,1.405182430E-1
1.501582646E1,7.378509612E-2,-1.031945854E-1,-6.318559706E-2,1.417243188E-1
1.502585246E1,2.956003685E-2,-1.307057351E-1,-9.349639356E-2,1.633993898E-1
1.503587846E1,5.315161283E-3,-1.189844066E-1,-8.334738135E-2,1.453696183E-1
1.504590446E1,-3.068116051E-2,-6.397731006E-2,-8.440221906E-2,1.102640667E-1
1.505593046E1,7.027976343E-4,-2.853324294E-2,-9.372268081E-2,9.797234699E-2
1.506595646E1,1.270072341E-2,2.844904304E-2,-3.313682891E-2,4.548302821E-2
1.507598246E1,-2.698428925E-3,6.787155569E-2,6.234652162E-2,9.220042488E-2
1.508600846E1,1.895793795E-3,8.256560862E-2,3.452897787E-2,8.951493771E-2
1.509603446E1,1.723726741E-2,8.939749539E-2,9.155979574E-2,1.291209966E-1
1.510606046E1,6.571790168E-3,9.404720128E-2,1.467610198E-1,1.744329712E-1
1.511608546E1,-2.916521960E-2,9.579317987E-2,1.146762512E-1,1.522418665E-1
1.512611146E1,-8.394216196E-2,9.542714417E-2,3.915412545E-2,1.329874879E-1
1.513613746E1,-8.422684827E-2,8.865372956E-2,-3.983126957E-2,1.286086147E-1
1.514616346E1,-5.719360344E-2,7.537353337E-2,-1.131278719E-1,1.474794671E-1
1.515618946E1,-2.259950677E-2,3.655913115E-2,-1.128057269E-1,1.207163609E-1
1.516621546E1,1.053691815E-3,3.693686128E-2,-2.594760418E-2,4.515218876E-2
1.517624146E1,5.011495046E-2,1.557347417E-2,7.440633081E-2,9.105132301E-2
1.518626746E1,6.853405436E-2,-4.197131395E-3,1.146294004E-1,1.336204773E-1
1.519629346E1,5.361155345E-2,-3.537448525E-2,5.901660539E-2,8.722678821E-2
1.520631946E1,4.208614779E-2,-5.337689281E-2,-2.297546446E-2,7.175101733E-2
1.521634546E1,2.782658637E-2,-7.778784871E-2,-4.614914954E-2,9.463092686E-2
1.522637146E1,-1.315194231E-2,-9.002139330E-2,-1.090066447E-1,1.419833562E-1
1.523639746E1,-5.928067570E-2,-9.172878027E-2,-1.107654872E-1,1.555550089E-1
1.524642346E1,-7.323055624E-2,-6.092974126E-2,-8.349239230E-2,1.266733094E-1
1.525644946E1,-5.003045363E-2,-4.192161262E-2,-5.875695247E-2,8.782281798E-2
1.526647546E1,-3.632823465E-2,-3.023185909E-2,-4.853718895E-2,6.774632572E-2
1.527650146E1,2.524285938E-2,-7.463970780E-3,-4.567026258E-2,5.271324021E-2
1.528652746E1,8.053944790E-2,-4.027562141E-3,-1.278552175E-2,8.164737283E-2
1.529655346E1,1.073242180E-1,7.323052883E-3,3.797996800E-2,1.140815184E-1
1.530657946E1,1.138914087E-1,1.415026188E-2,7.061963741E-2,1.347539093E-1
1.531660546E1,3.596229488E-2,-4.038087130E-3,5.597481072E-2,6.665412392E-2
1.532663146E1,-6.641014463E-2,-1.172132850E-2,5.765354633E-4,6.743907803E-2
1.533665646E1,-8.424489241E-2,-1.322698653E-2,-9.448519427E-2,1.272776768E-1
1.534668246E1,-5.717857883E-2,3.107795119E-3,-8.854380190E-2,1.054469209E-1
1.535670846E1,-2.752055087E-2,1.988287210E-2,-2.571667571E-2,4.259174489E-2
1.536673446E1,-4.756866677E-3,3.782914639E-2,2.081078868E-2,4.343686248E-2
1.537676046E1,2.649466831E-2,4.617136896E-2,7.452210568E-2,9.158224170E-2
1.538678646E1,3.597270567E-2,2.351048470E-2,6.239267807E-2,7.576031099E-2
1.539681246E1,2.132925855E-2,5.777049065E-3,4.553986967E-2,5.061809257E-2
1.540683846E1,7.678589862E-3,-2.399112582E-3,2.222351253E-2,2.363474122E-2
1.541686446E1,8.777970329E-3,-2.380986214E-3,1.862221241E-2,2.072459055E-2
1.542689017E1,-1.560296035E-2,-1.626636922E-2,-1.901514530E-3,2.261996678E-2
1.543691617E1,-5.252140861E-2,-2.785730481E-2,-7.570857882E-2,9.626170943E-2
1.544694217E1,-8.852361074E-2,-3.043475747E-2,-8.858835038E-2,1.288821165E-1
1.545696817E1,-9.097858250E-2,-3.807706833E-2,-9.487757899E-2,1.368529159E-1
1.546699417E1,-7.994510584E-2,-7.158629179E-2,-1.144218973E-1,1.568699707E-1
1.547702017E1,-4.655125068E-2,-5.402359486E-2,-5.828098912E-2,9.209908487E-2
1.548704617E1,6.768785718E-2,-3.031664371E-2,-3.476290304E-2,8.190973278E-2
1.549707217E1,8.431100249E-2,2.804324627E-3,1.914667111E-2,8.650320452E-2
1.550709817E1,6.277365615E-2,3.053708375E-2,4.656539820E-2,8.391294119E-2
1.551712417E1,2.719270023E-2,4.313023210E-2,7.240128402E-2,8.855284182E-2
1.552715017E1,-3.138266422E-2,3.758356333E-2,8.123708468E-2,9.485177791E-2
1.553717517E1,-1.081827720E-1,3.275961041E-2,6.898596190E-2,1.324226838E-1
1.554720117E1,-1.457716070E-1,-6.219683290E-3,4.643442057E-2,1.531149936E-1
1.555722717E1,-5.581948492E-2,-2.051378667E-2,1.335204385E-2,6.095004032E-2
1.556725317E1,3.653298313E-2,-2.295090616E-2,-5.547311962E-2,7.027567111E-2
1.557727917E1,8.162192283E-2,-1.379299700E-2,-1.168858409E-1,1.432294832E-1
1.558730517E1,8.024190685E-2,-1.745569289E-2,-1.291240633E-1,1.530244704E-1
1.559733117E1,2.831898817E-2,-2.075176835E-3,-1.018386161E-1,1.057231062E-1
1.560735717E1,-2.316078237E-2,2.604349852E-2,-4.321267784E-2,5.551595429E-2
1.561738317E1,-1.127495205E-1,7.726510763E-3,5.683493614E-3,1.131567738E-1
1.562740917E1,-1.635635239E-1,3.583758473E-3,6.739208400E-2,1.769394322E-1
1.563743517E1,-1.164229790E-1,3.769115210E-2,1.178032690E-1,1.698603637E-1
1.564746117E1,-4.492292446E-2,7.711658835E-2,1.480918461E-1,1.729052695E-1
1.565748717E1,2.302804829E-2,7.218270779E-2,1.336591637E-1,1.536405101E-1
1.566751317E1,7.531902635E-2,3.880270779E-2,7.262007952E-2,1.115897926E-1
1.567753917E1,9.176270326E-2,5.472993851E-3,-1.207683921E-2,9.271568053E-2
1.568756517E1,1.034644527E-1,-2.989856780E-2,-6.304065920E-2,1.247915944E-1
1.569759117E1,1.069646234E-1,-3.650709093E-2,-3.526455760E-2,1.183967372E-1
1.570761717E1,8.450544069E-2,-1.854678333E-2,-8.244574070E-4,8.652070508E-2
1.571764317E1,6.056363704E-2,-2.901622295E-2,-1.658274014E-2,6.917284580E-2
1.572766917E1,4.364733609E-2,-1.238557220E-2,-1.090213358E-2,4.666207093E-2
1.573769417E1,9.709199950E-3,-1.013556361E-2,-5.322720408E-3,1.501098151E-2
1.574772017E1,-5.731163953E-2,-1.255046368E-2,2.003489971E-2,6.199625288E-2
1.575774617E1,-7.294802609E-2,8.807076216E-3,1.943972625E-2,7.600580279E-2
1.576777217E1,-1.863586543E-2,3.926697671E-2,6.591504078E-2,7.895557955E-2
1.577779817E1,6.783639930E-2,9.263568342E-2,6.558639072E-2,1.322298059E-1
1.578782417E1,9.931079172E-2,1.002043194E-1,5.063977461E-2,1.498930477E-1
1.579785017E1,1.061756696E-1,8.155813336E-2,5.849609356E-2,1.461054239E-1
1.580787617E1,6.508339770E-2,5.839497328E-2,4.021897651E-2,9.624649413E-2
1.581790217E1,3.974785538E-2,2.682994902E-2,3.186206281E-2,5.757542200E-2
1.582792817E1,-1.722893284E-2,8.126460314E-3,1.730951250E-2,2.573897253E-2
1.583795417E1,-7.497972796E-2,-2.449574053E-2,2.413445570E-2,8.248922876E-2
1.584798017E1,-8.945241353E-2,-3.014415085E-2,-3.620997928E-2,1.011017642E-1
1.585800617E1,-8.785548412E-2,-5.163676143E-2,-4.981944680E-2,1.134324402E-1
1.586803217E1,-8.013163202E-2,-8.419171929E-2,-4.601459049E-2,1.250066662E-1
1.587805817E1,-5.249691883E-2,-7.090216756E-2,-7.666225970E-2,1.168766269E-1
1.588808417E1,1.601120336E-2,-8.197737873E-2,-7.833397865E-2,1.145114032E-1
1.589811017E1,3.382217969E-2,-6.654014468E-2,-3.707829081E-2,8.334464795E-2
1.590813617E1,1.264294447E-2,-4.258234799E-2,2.158733547E-2,4.938738156E-2
