"Time (s)","Linear Acceleration x (m/s^2)","Linear Acceleration y (m/s^2)","Linear Acceleration z (m/s^2)","Absolute acceleration (m/s^2)"
1.864350500E-2,0.000000000E0,0.000000000E0,0.000000000E0,0.000000000E0
2.364350500E-2,2.520322800E-3,-1.608991623E-2,-1.752948761E-2,2.392739783E-2
2.864350500E-2,1.364064217E-2,-1.080322266E-2,-3.406524658E-2,3.825202953E-2
3.364350500E-2,2.619957924E-2,2.467536926E-2,-4.636764526E-3,3.628762028E-2
3.864350500E-2,5.540347099E-2,2.833724022E-2,-1.270008087E-2,6.351248567E-2
4.364350500E-2,7.507228851E-2,1.323103905E-2,-4.956626892E-2,9.092702520E-2
4.864350500E-2,9.527337551E-2,1.257658005E-2,-9.787082672E-2,1.371637167E-1
5.364350500E-2,1.323261261E-1,1.189184189E-2,-7.335948944E-2,1.517670394E-1
5.864350500E-2,9.008800983E-2,1.827406883E-2,-1.632118225E-2,9.336044182E-2
6.364350500E-2,2.101206779E-2,1.613998413E-2,2.557373047E-2,3.682420089E-2
6.864350500E-2,-4.499769211E-2,1.453995705E-2,5.230903625E-2,7.051551546E-2
7.364350500E-2,-4.388475418E-2,2.867698669E-2,5.630016327E-2,7.692821069E-2
7.864350500E-2,1.316666603E-3,9.631633759E-3,4.113769531E-2,4.227069854E-2
8.364350500E-2,1.746284962E-2,-4.656076431E-3,3.247642517E-2,3.716649508E-2
8.864350500E-2,-9.712266922E-2,-1.755497456E-1,-2.920207977E-1,3.542974349E-1
9.364350500E-2,-5.013537407E-2,-4.851293564E-2,-2.508735657E-1,2.603931770E-1
9.864350500E-2,2.423602343E-1,2.758104801E-1,2.869338989E-1,4.659838693E-1
1.036435050E-1,3.025413156E-1,3.336048126E-1,5.214710236E-1,6.890249974E-1
1.086435050E-1,2.145774364E-1,2.587332726E-1,3.446540833E-1,4.814278966E-1
1.136435050E-1,1.533428431E-1,9.470319748E-2,1.256618500E-1,2.197125933E-1
1.186435050E-1,1.630661488E-1,-2.307963371E-2,8.779907227E-2,1.866331039E-1
1.236435050E-1,1.743111610E-1,-6.211519241E-2,8.995246887E-2,2.057525811E-1
1.286435050E-1,1.890220642E-1,-4.155278206E-2,4.324722290E-2,1.983085897E-1
1.336435050E-1,2.459272146E-1,6.014823914E-3,-5.772113800E-2,2.526818212E-1
1.386435050E-1,2.657277584E-1,6.530237198E-2,-1.154747009E-1,2.970017642E-1
1.436435050E-1,2.699483037E-1,8.390545845E-2,-1.585121155E-1,3.240961329E-1
1.486435050E-1,2.693884969E-1,6.367707253E-2,-1.911754608E-1,3.364119330E-1
1.536435050E-1,2.427880168E-1,4.924440384E-2,-2.256021500E-1,3.350632216E-1
1.586435050E-1,1.655656099E-1,4.251241684E-3,-2.960863113E-1,3.392597058E-1
1.636435050E-1,1.162543297E-1,-4.809594154E-2,-3.673028946E-1,3.882521154E-1
1.686435050E-1,9.743976593E-2,-1.473691463E-1,-4.321479797E-1,4.668662010E-1
1.736435050E-1,2.273877263E-1,-3.827822208E-1,-3.335247040E-1,5.562968046E-1
1.786435050E-1,1.517112851E-1,-3.795502186E-1,-3.819351196E-1,5.594185536E-1
1.836435050E-1,-1.142209768E-1,-8.909463882E-2,-4.104766846E-1,4.352877150E-1
1.886435050E-1,-2.840783596E-1,1.147117615E-1,-4.562005997E-1,5.495255133E-1
1.936435050E-1,-3.056063652E-1,5.521368980E-2,-2.596530914E-1,4.048006051E-1
1.986435050E-1,-2.111377716E-1,-1.134483814E-1,-5.175590515E-3,2.397425298E-1
2.036435050E-1,-9.859222174E-2,-1.668102741E-1,9.462642670E-2,2.156391763E-1
2.086435050E-1,-3.827029467E-2,-1.619462967E-1,8.443641663E-2,1.866031268E-1
2.136435050E-1,-6.654763222E-2,-1.633424759E-1,1.400690079E-1,2.252302794E-1
2.186435050E-1,-1.243457198E-1,-1.935503483E-1,3.025407791E-1,3.800717279E-1
2.236435050E-1,-1.515449286E-1,-2.370388508E-1,5.124349594E-1,5.845877777E-1
2.286435050E-1,-1.056274176E-1,-2.449542284E-1,7.015314102E-1,7.505371709E-1
2.336435050E-1,-1.340556145E-2,-2.220987082E-1,8.554172516E-1,8.838813379E-1
2.386435050E-1,3.675371408E-2,-1.777207851E-1,9.135627747E-1,9.314142238E-1
2.436435050E-1,6.637722254E-2,-1.542308331E-1,8.981647491E-1,9.137247956E-1
2.486435050E-1,6.601172686E-2,-1.336129904E-1,8.998050690E-1,9.120631236E-1
2.536435050E-1,4.627740383E-2,-1.346811056E-1,8.559503555E-1,8.677163185E-1
2.586435050E-1,-7.763445377E-3,-1.370208263E-1,8.448038101E-1,8.558787622E-1
2.636435050E-1,-1.424165368E-1,-1.322718859E-1,8.473329544E-1,8.693396674E-1
2.686435050E-1,-1.006198168E0,-1.687451601E-1,7.636709213E-1,1.274402981E0
2.736435050E-1,-1.025065422E0,-9.274685383E-2,5.032768250E-1,1.145708803E0
2.786435050E-1,-3.604212999E-1,9.972441196E-2,1.945190430E-1,4.215283263E-1
2.836435050E-1,2.212905288E-1,3.289774656E-1,-1.590633392E-2,3.967980374E-1
2.886435050E-1,4.703833461E-1,3.770561218E-1,-3.730211258E-1,7.089263513E-1
2.936435050E-1,3.309320211E-1,3.302781582E-1,-6.907281876E-1,8.340893798E-1
2.986435050E-1,2.657318115E-2,3.184579611E-1,-7.991418839E-1,8.606679717E-1
3.036435050E-1,-2.251309156E-1,3.149144650E-1,-7.457933426E-1,8.402754068E-1
3.086435050E-1,-3.112194538E-1,2.715321779E-1,-6.012039185E-1,7.294062131E-1
3.136435050E-1,-2.320562005E-1,2.195569277E-1,-4.891424179E-1,5.842222434E-1
3.186435050E-1,-1.048060656E-1,2.059330940E-1,-4.589233398E-1,5.138125947E-1
3.236435050E-1,-7.679408789E-2,2.541680336E-1,-3.979043961E-1,4.783582649E-1
3.286435050E-1,-3.303968906E-2,2.459093332E-1,-3.629026413E-1,4.396150001E-1
3.336435050E-1,-1.287788153E-2,2.057744265E-1,-2.975063324E-1,3.619654296E-1
3.386435050E-1,-2.663367987E-2,1.668301821E-1,-1.875000000E-1,2.523844539E-1
3.436435050E-1,-4.354447126E-2,1.666206121E-1,-1.433849335E-2,1.728124468E-1
3.486435050E-1,-4.596209526E-2,1.722146273E-1,1.058464050E-1,2.073013591E-1
3.536435050E-1,-6.289154291E-2,1.559628248E-1,1.942090988E-1,2.568986628E-1
3.586435050E-1,-4.563635588E-2,1.277934313E-1,2.787370682E-1,3.100132114E-1
3.636435050E-1,-2.548360825E-2,7.606124878E-2,3.332939148E-1,3.428112622E-1
3.686435050E-1,2.052354813E-2,2.609539032E-2,3.124237061E-1,3.141826818E-1
3.736435050E-1,5.328530073E-2,-4.000067711E-2,2.584590912E-1,2.669091217E-1
3.786435050E-1,9.709495306E-2,-1.141473055E-1,2.094583511E-1,2.575457981E-1
3.836435050E-1,1.113034487E-1,-1.663140059E-1,2.175378799E-1,2.955867647E-1
3.886435050E-1,1.211865544E-1,-1.897553205E-1,2.774286270E-1,3.572952641E-1
3.936435050E-1,1.273182034E-1,-2.094613314E-1,3.736371994E-1,4.468654507E-1
3.986435050E-1,1.272961497E-1,-1.855262518E-1,4.581747055E-1,5.104393800E-1
4.036435050E-1,1.784729064E-1,-1.676914692E-1,5.002088547E-1,5.569397682E-1
4.086435050E-1,1.844813824E-1,-1.661936045E-1,5.293025970E-1,5.846494111E-1
4.136435050E-1,2.050045133E-1,-1.562750340E-1,5.801076889E-1,6.348020695E-1
4.186435050E-1,2.130301595E-1,-1.453652382E-1,6.233463287E-1,6.745913925E-1
4.236435050E-1,2.235626131E-1,-1.259351969E-1,6.536083221E-1,7.021707446E-1
4.286435050E-1,1.457697749E-1,-1.577516794E-1,6.560459137E-1,6.903120023E-1
4.336435050E-1,5.084520578E-2,-2.017002106E-1,6.523303986E-1,6.846920175E-1
4.386435050E-1,-2.750986814E-2,-2.690402269E-1,6.729679108E-1,7.252759788E-1
4.436435050E-1,-4.820418358E-2,-3.026037812E-1,7.522687912E-1,8.122813712E-1
4.486435050E-1,-4.093194008E-2,-3.275909424E-1,7.897768021E-1,8.560015458E-1
4.536435050E-1,-4.572620988E-2,-3.282338977E-1,8.598232269E-1,9.214794406E-1
4.586435050E-1,-1.619565487E-2,-2.906470299E-1,9.144029617E-1,9.596201184E-1
4.636435050E-1,5.521374941E-2,-2.172518969E-1,9.290761948E-1,9.557350681E-1
4.686435050E-1,1.070113778E-1,-1.686763763E-1,9.055099487E-1,9.272817383E-1
4.736435050E-1,1.195765734E-1,-1.693493128E-1,8.176565170E-1,8.435282606E-1
4.786435050E-1,9.267923236E-2,-1.891301274E-1,6.857366562E-1,7.173523589E-1
4.836435050E-1,7.413938642E-2,-2.622761726E-1,5.909147263E-1,6.507423861E-1
4.886435050E-1,6.423610449E-2,-3.081237674E-1,5.114660263E-1,6.005531027E-1
4.936435050E-1,4.771372676E-2,-3.642922640E-1,4.588546753E-1,5.878206073E-1
4.986435050E-1,6.218370795E-2,-3.648975492E-1,3.990802765E-1,5.443180155E-1
5.036435050E-1,1.501931548E-1,-3.530564904E-1,3.378667831E-1,5.112346157E-1
5.086435050E-1,2.493975759E-1,-2.680104971E-1,3.108148575E-1,4.802443680E-1
5.136435050E-1,3.806678951E-1,-1.939371228E-1,1.365928650E-1,4.485278862E-1
5.186435050E-1,4.394517541E-1,-1.339620352E-1,1.869392395E-2,4.597968397E-1
5.236435050E-1,4.489472508E-1,-1.196053028E-1,-4.481220245E-2,4.667624621E-1
5.286435050E-1,4.463061094E-1,-1.335294247E-1,-6.086921692E-2,4.698130608E-1
5.336435050E-1,4.470452964E-1,-1.152732372E-1,-1.355648041E-2,4.618670744E-1
5.386435050E-1,4.079936743E-1,-1.214627028E-1,2.005767822E-2,4.261623363E-1
5.436435050E-1,3.620525002E-1,-1.483575702E-1,8.324718475E-2,4.000275932E-1
5.486435050E-1,3.200712204E-1,-1.964628100E-1,1.253461838E-1,3.959228304E-1
5.536435050E-1,2.784242034E-1,-2.446057796E-1,1.705350876E-1,4.079635285E-1
5.586435050E-1,2.780875564E-1,-2.383666635E-1,1.724910736E-1,4.048512390E-1
5.636435050E-1,3.090687990E-1,-1.967058778E-1,1.580095291E-1,3.989783655E-1
5.686435050E-1,3.335104883E-1,-1.815468669E-1,1.239719391E-1,3.994465576E-1
5.736435050E-1,3.410827518E-1,-1.641019583E-1,1.127290726E-1,3.949363747E-1
5.786435050E-1,2.952234745E-1,-1.438568234E-1,6.648826599E-2,3.350707016E-1
5.836435050E-1,2.444000989E-1,-1.172802448E-1,3.318691254E-2,2.731070035E-1
5.886435050E-1,1.573978662E-1,-9.538137913E-2,6.793022156E-3,1.841679693E-1
5.936435050E-1,5.214755237E-2,-8.883976936E-2,-2.350425720E-2,1.056613550E-1
5.986435050E-1,-4.473683238E-2,-8.812630177E-2,-4.742431641E-2,1.096206870E-1
6.036435050E-1,-9.608714283E-2,-8.542597294E-2,-8.859348297E-2,1.561382115E-1
6.086435050E-1,-1.130765527E-1,-8.000087738E-2,-1.074218750E-1,1.752880669E-1
6.136435050E-1,-1.399797052E-1,-9.164953232E-2,-1.192169189E-1,2.054425185E-1
6.186435050E-1,-1.667417139E-1,-7.877945900E-2,-1.453018188E-1,2.347799414E-1
6.236435050E-1,-1.601133794E-1,-5.848324299E-2,-1.367826462E-1,2.185545155E-1
6.286435050E-1,-1.090907007E-1,-4.691040516E-2,-2.410564423E-1,2.687183943E-1
6.336435050E-1,-5.760601163E-2,-2.779138088E-2,-3.275947571E-1,3.337800747E-1
6.386435050E-1,5.794718862E-3,-2.509069443E-2,-3.393850327E-1,3.403605766E-1
6.436435050E-1,2.572892606E-2,-5.039083958E-2,-3.309555054E-1,3.357569968E-1
6.486435050E-1,7.105687261E-2,-7.837164402E-2,-3.487977982E-1,3.644874452E-1
6.536435050E-1,1.333892494E-1,-1.068170071E-1,-3.458547592E-1,3.857694640E-1
6.586435050E-1,1.862298399E-1,-1.237635612E-1,-3.026485443E-1,3.762912618E-1
6.636435050E-1,2.576015294E-1,-1.436020136E-1,-2.477979660E-1,3.852063320E-1
6.686435050E-1,2.877354622E-1,-1.501411796E-1,-1.657571793E-1,3.644303946E-1
6.736435050E-1,3.058064580E-1,-1.731633544E-1,-9.473800659E-2,3.639758604E-1
6.786435050E-1,3.071143031E-1,-2.175254226E-1,-7.936286926E-2,3.846231528E-1
6.836435050E-1,3.433583975E-1,-2.380871177E-1,-4.458713531E-2,4.202005204E-1
6.886435050E-1,3.531460762E-1,-2.302718759E-1,1.548099518E-2,4.218731434E-1
6.936435050E-1,3.271131516E-1,-2.487869859E-1,6.867313385E-2,4.166701064E-1
6.986435050E-1,3.177047372E-1,-2.494516373E-1,8.426570892E-2,4.126295300E-1
7.036435050E-1,2.820142806E-1,-2.803568840E-1,9.999942780E-2,4.100389279E-1
7.086435050E-1,2.351084054E-1,-2.739731669E-1,1.405572891E-1,3.874191658E-1
7.136435050E-1,2.013901621E-1,-2.428476214E-1,1.758050919E-1,3.611653291E-1
7.186435050E-1,1.955236644E-1,-2.362835407E-1,1.507358551E-1,3.417319314E-1
7.236435050E-1,1.922892630E-1,-2.236265540E-1,8.358669281E-2,3.065464590E-1
7.286435050E-1,1.576853991E-1,-1.885088682E-1,9.883689880E-2,2.648943394E-1
7.336435050E-1,1.354151815E-1,-1.734862924E-1,9.171581268E-2,2.384251566E-1
7.386435050E-1,9.465965629E-2,-1.379606724E-1,3.181171417E-2,1.703102546E-1
7.436435050E-1,4.485912621E-2,-1.223555803E-1,-1.173782349E-2,1.308472611E-1
7.486435050E-1,-1.133865118E-2,-1.477766037E-1,-1.698589325E-2,1.491811321E-1
7.536435050E-1,-5.094435811E-2,-1.773166656E-1,-2.087306976E-2,1.856669399E-1
7.586435050E-1,-4.360717535E-2,-1.874578595E-1,-2.927303314E-2,1.946765145E-1
7.636435050E-1,4.225641489E-3,-1.815716624E-1,-1.750946045E-2,1.824628890E-1
7.686435050E-1,6.938712299E-2,-1.559212804E-1,-1.492309570E-2,1.713146733E-1
7.736435050E-1,1.332363039E-1,-1.513113976E-1,6.252288818E-3,2.017080634E-1
7.786435050E-1,1.917249560E-1,-1.477505565E-1,4.567909241E-2,2.463234970E-1
7.836435050E-1,2.285847664E-1,-1.437640190E-1,6.009197235E-2,2.766408027E-1
7.886435050E-1,2.373940945E-1,-1.579170823E-1,8.637809753E-2,2.979176677E-1
7.936435050E-1,2.497200370E-1,-1.662914753E-1,9.181213379E-2,3.137553498E-1
7.986435050E-1,2.554519773E-1,-1.618022323E-1,5.825996399E-2,3.079446354E-1
8.036435050E-1,2.197684944E-1,-1.869149208E-1,3.771686554E-2,2.909603765E-1
8.086435050E-1,2.040827721E-1,-2.211732268E-1,-1.676940918E-2,3.014109939E-1
8.136435050E-1,2.035403848E-1,-2.571089864E-1,-3.666687012E-2,3.299669354E-1
8.186435050E-1,2.291229963E-1,-2.689900398E-1,-4.544067383E-2,3.562553071E-1
8.236435050E-1,2.331225872E-1,-2.650734186E-1,-2.772331238E-2,3.540884635E-1
8.286435050E-1,2.170111239E-1,-2.412990928E-1,-2.903556824E-2,3.258253279E-1
8.336435050E-1,2.143300474E-1,-2.430150509E-1,-5.846023560E-4,3.240278166E-1
8.386435050E-1,2.057285011E-1,-2.091405988E-1,3.926086426E-2,2.959821307E-1
8.436435050E-1,1.843590587E-1,-1.760995984E-1,4.469680786E-2,2.588380492E-1
8.486435050E-1,1.797785461E-1,-1.599674225E-1,3.777408600E-2,2.435914273E-1
8.536435050E-1,1.487460881E-1,-1.465701461E-1,1.520538330E-2,2.093786287E-1
8.586435050E-1,8.308982849E-2,-1.326861978E-1,1.392078400E-2,1.571729458E-1
8.636435050E-1,2.492272854E-2,-1.444088817E-1,3.355026245E-3,1.465821398E-1
8.686435050E-1,7.477670908E-3,-1.200438738E-1,-2.089786530E-2,1.220785320E-1
8.736435050E-1,1.732736826E-2,-8.805191517E-2,-2.550315857E-2,9.329409709E-2
8.786435050E-1,3.152519464E-2,-6.233006716E-2,-4.025650024E-2,8.061923456E-2
8.836435050E-1,2.884286642E-2,-5.467504263E-2,-4.283332825E-2,7.520615160E-2
8.886435050E-1,1.032012701E-2,-5.212396383E-2,-6.411075592E-2,8.326825116E-2
8.936435050E-1,-2.289173007E-2,-7.277673483E-2,-4.838752747E-2,9.034288711E-2
8.986435050E-1,-8.691927791E-2,-6.828838587E-2,-2.060317993E-2,1.124400086E-1
9.036435050E-1,-1.342804432E-1,-2.338695526E-2,-1.529216766E-2,1.371569812E-1
9.086435050E-1,-1.817178726E-1,-3.911495209E-3,-2.122974396E-2,1.829955930E-1
9.136435050E-1,-2.056185603E-1,-2.153301239E-2,-3.362369537E-2,2.094593418E-1
9.186435050E-1,-2.116229236E-1,-2.449703217E-2,1.212215424E-2,2.133806763E-1
9.236435050E-1,-1.936495602E-1,-3.354346752E-2,4.634284973E-2,2.019231936E-1
9.286435050E-1,-1.319332719E-1,-2.966952324E-2,3.057765961E-2,1.386422090E-1
9.336435050E-1,-7.352346182E-2,-1.605153084E-2,9.465217590E-3,7.584814714E-2
9.386435050E-1,-6.402188540E-2,-2.769660950E-2,5.117511749E-2,8.651471920E-2
9.436435050E-1,-4.404500127E-2,-2.780830860E-2,4.085826874E-2,6.620167889E-2
9.486435050E-1,-6.422609091E-3,-6.568640471E-2,4.156684875E-2,7.799843964E-2
9.536435050E-1,-1.204431057E-3,-5.971914530E-2,1.272296906E-2,6.107127730E-2
9.586435050E-1,-3.154605627E-3,-3.688585758E-2,2.710628510E-2,4.588320736E-2
9.636435050E-1,-4.091089964E-2,-2.840197086E-2,3.136539459E-2,5.885712902E-2
9.686435050E-1,-6.875714660E-2,-3.220117092E-2,3.594970703E-2,8.400501207E-2
9.736435050E-1,-1.043892205E-1,-2.014827728E-2,1.821804047E-2,1.078654691E-1
9.786435050E-1,-1.519872844E-1,-1.169407368E-2,-1.651573181E-2,1.533285863E-1
9.836435050E-1,-1.946720183E-1,4.163503647E-3,-4.304122925E-2,1.994168420E-1
9.886435050E-1,-2.085176408E-1,3.860890865E-2,-6.009483337E-2,2.204124392E-1
9.936435050E-1,-2.147965431E-1,5.693197250E-2,-5.271244049E-2,2.283799593E-1
9.986435050E-1,-2.423325777E-1,6.404447556E-2,-5.464076996E-2,2.565392500E-1
1.003643505E0,-2.481580377E-1,5.451989174E-2,-2.832794189E-2,2.556507433E-1
1.008643505E0,-2.235477865E-1,6.342017651E-2,3.721237183E-3,2.323996111E-1
1.013643505E0,-1.804347932E-1,6.104969978E-2,1.123428345E-3,1.904863316E-1
1.018643505E0,-1.706595421E-1,2.527236938E-2,-1.017475128E-2,1.728204199E-1
1.023643505E0,-1.619010270E-1,-1.761245728E-2,-1.097297668E-2,1.632254496E-1
1.028643505E0,-9.484550357E-2,-5.103564262E-2,-5.473995209E-2,1.208170879E-1
1.033643505E0,-5.380672216E-2,-5.172348022E-2,-6.996440887E-2,1.023010277E-1
1.038643505E0,-4.504999518E-2,-2.691078186E-2,-7.310771942E-2,8.999128227E-2
1.043643505E0,-7.428702712E-2,-1.173651218E-2,-6.395816803E-2,9.872667003E-2
1.048643505E0,-1.116655171E-1,-5.158185959E-4,-6.471157074E-2,1.290621601E-1
1.053643505E0,-1.281063557E-1,4.460442066E-2,-3.824615479E-2,1.409381462E-1
1.058643505E0,-1.174766719E-1,9.230899811E-2,-5.407333374E-3,1.495023707E-1
1.063643505E0,-1.215956509E-1,1.412698030E-1,2.487277985E-2,1.880460442E-1
1.068643505E0,-1.536172628E-1,1.712830067E-1,6.010246277E-2,2.377991544E-1
1.073643505E0,-1.978473961E-1,1.585847139E-1,8.253288269E-2,2.666540462E-1
1.078643505E0,-1.981073320E-1,1.430902481E-1,8.788967133E-2,2.597035395E-1
1.083643505E0,-1.954488158E-1,1.309617758E-1,8.664321899E-2,2.507155235E-1
1.088643505E0,-1.949162483E-1,1.027916670E-1,8.554363251E-2,2.363814369E-1
1.093643505E0,-1.935631931E-1,7.243525982E-2,7.361888885E-2,2.193930659E-1
1.098643505E0,-1.897901595E-1,3.317403793E-2,4.758262634E-2,1.984563623E-1
1.103643505E0,-1.586157084E-1,-1.225280762E-2,5.201244354E-2,1.673749339E-1
1.108643505E0,-1.326082051E-1,-4.676973820E-2,4.217815399E-2,1.468037504E-1
1.113643505E0,-8.995559812E-2,-5.116415024E-2,2.915287018E-2,1.075159046E-1
1.118643505E0,-4.503715038E-2,-8.408045769E-2,2.071857452E-2,9.760700595E-2
1.123643505E0,-4.478722811E-3,-9.860038757E-2,-1.357746124E-2,9.963153538E-2
1.128643505E0,5.315527320E-2,-1.027159691E-1,-2.293777466E-2,1.179075692E-1
1.133643505E0,5.885526538E-2,-1.093662977E-1,-1.687717438E-2,1.253386148E-1
1.138643505E0,9.140965343E-2,-1.026902199E-1,-6.557559967E-2,1.523192873E-1
1.143643505E0,7.253876328E-2,-1.073096991E-1,-6.354808807E-2,1.442761352E-1
1.148643505E0,6.639623642E-2,-1.157618761E-1,-8.303356171E-2,1.571745671E-1
1.153643505E0,9.953060746E-2,-8.553338051E-2,-1.014881134E-1,1.658979752E-1
1.158643505E0,1.167324036E-1,-4.105734825E-2,-1.063289642E-1,1.631502637E-1
1.163643505E0,1.235404611E-1,-2.671313286E-2,-1.212244034E-1,1.751319302E-1
1.168643505E0,1.296360195E-1,-2.175128460E-2,-1.435880661E-1,1.946693316E-1
1.173643505E0,1.307561696E-1,-8.390307426E-3,-1.632452011E-1,2.093240761E-1
1.178643505E0,1.530073136E-1,1.735508442E-2,-1.695280075E-1,2.290244142E-1
1.183643505E0,1.650279760E-1,4.967808723E-3,-2.133054733E-1,2.697371627E-1
1.188643505E0,1.533688009E-1,-7.561922073E-3,-2.662935257E-1,3.073945568E-1
1.193643505E0,1.267390549E-1,-4.496335983E-2,-2.473068237E-1,2.815051631E-1
1.198643505E0,1.076652706E-1,-7.288026810E-2,-2.506570816E-1,2.823691140E-1
1.203643505E0,1.251877397E-1,-7.097768784E-2,-2.565498352E-1,2.941557756E-1
1.208643505E0,1.273648888E-1,-6.207883358E-2,-2.478637695E-1,2.855031431E-1
1.213643505E0,1.105843782E-1,-8.681142330E-2,-2.188053131E-1,2.600786284E-1
1.218643505E0,1.145410985E-1,-8.937764168E-2,-2.103691101E-1,2.556622549E-1
1.223643505E0,1.310892254E-1,-6.323659420E-2,-1.956014633E-1,2.438097297E-1
1.228643505E0,1.423268169E-1,-4.047727585E-2,-1.745500565E-1,2.288297509E-1
1.233643505E0,1.338812858E-1,-2.398920059E-2,-1.797189713E-1,2.253854233E-1
1.238643505E0,1.165629476E-1,-8.644700050E-3,-1.608724594E-1,1.988506972E-1
1.243643505E0,8.053722978E-2,9.851813316E-3,-1.209783554E-1,1.456676563E-1
1.248643505E0,1.005129665E-1,2.720546722E-2,-6.511974335E-2,1.228152061E-1
1.253643505E0,1.022382975E-1,3.601706028E-2,-2.018356323E-2,1.102600305E-1
1.258643505E0,7.322996855E-2,4.022860527E-2,4.933357239E-3,8.369771197E-2
1.263643505E0,6.921666861E-2,2.831423283E-2,2.904987335E-2,8.022803834E-2
1.268643505E0,4.397943616E-2,1.137733459E-2,6.139373779E-2,7.637293753E-2
1.273643505E0,3.230392933E-3,2.529478073E-2,8.614158630E-2,8.983670888E-2
1.278643505E0,-2.070105076E-2,1.685059071E-2,8.783149719E-2,9.179786386E-2
1.283643505E0,-4.462975264E-2,5.048513412E-3,7.410430908E-2,8.665304918E-2
1.288643505E0,-6.203323603E-2,6.146430969E-3,6.112957001E-2,8.730822020E-2
1.293643505E0,-8.993074298E-2,-1.021385193E-3,4.665851593E-2,1.013192917E-1
1.298643505E0,-1.116207242E-1,-2.187645435E-2,5.023479462E-2,1.243434756E-1
1.303643505E0,-1.446600258E-1,-3.065657616E-2,5.872154236E-2,1.591055256E-1
1.308643505E0,-1.528092921E-1,-3.893482685E-2,6.252956390E-2,1.696365139E-1
1.313643505E0,-1.477565467E-1,-6.409668922E-2,2.886390686E-2,1.636261220E-1
1.318643505E0,-1.217112243E-1,-7.236909866E-2,-2.122879028E-3,1.416171430E-1
1.323643505E0,-1.243966520E-1,-8.082413673E-2,5.735683441E-2,1.590499122E-1
1.328643505E0,-1.379977465E-1,-9.360313416E-4,9.699058533E-2,1.686755105E-1
1.333643505E0,-1.514542103E-1,5.037629604E-2,9.544086456E-2,1.859707172E-1
1.338643505E0,-1.677750945E-1,8.322429657E-2,7.169818878E-2,2.005377674E-1
1.343643505E0,-1.703886390E-1,1.083695889E-1,6.456851959E-2,2.120031835E-1
1.348643505E0,-1.803432703E-1,1.074478626E-1,8.125305176E-2,2.251017475E-1
1.353643505E0,-1.901667714E-1,1.469867229E-1,1.033630371E-1,2.616341245E-1
1.358643505E0,-1.938550770E-1,1.709709167E-1,1.224384308E-1,2.860105148E-1
1.363643505E0,-2.154906094E-1,1.687598228E-1,1.155815125E-1,2.971113707E-1
1.368643505E0,-2.443019152E-1,1.244961023E-1,9.954357147E-2,2.917046929E-1
1.373643505E0,-2.418349683E-1,7.855355740E-2,8.783340454E-2,2.690158364E-1
1.378643505E0,-1.926331520E-1,5.864489079E-2,8.596420288E-2,2.189442821E-1
1.383643505E0,-1.375620663E-1,1.801156998E-2,8.409976959E-2,1.622359701E-1
1.388643505E0,-1.261818707E-1,-2.438580990E-2,9.833717346E-2,1.618231501E-1
1.393643505E0,-1.429887116E-1,-5.669927597E-2,1.080541611E-1,1.879794703E-1
1.398643505E0,-1.268205643E-1,-7.705986500E-2,1.365737915E-1,2.016781566E-1
1.403643505E0,-8.658388257E-2,-6.077015400E-2,1.645936966E-1,1.956549649E-1
1.408643505E0,-5.682328343E-2,-5.383872986E-2,1.823387146E-1,1.984310994E-1
1.413643505E0,-2.692553401E-2,-5.550038815E-2,2.087955475E-1,2.177173813E-1
1.418643505E0,-2.463510633E-2,-8.317482471E-2,2.022132874E-1,2.200344371E-1
1.423643505E0,-5.314439535E-3,-9.222865105E-2,1.853418350E-1,2.070892637E-1
1.428643505E0,2.367857099E-2,-8.228600025E-2,1.784191132E-1,1.979015930E-1
1.433643505E0,3.791138530E-2,-5.789339542E-2,1.655750275E-1,1.794547522E-1
1.438643505E0,5.683150887E-2,-3.088128567E-2,1.206493378E-1,1.368931587E-1
1.443643505E0,5.402842164E-2,-2.269172668E-2,7.876491547E-2,9.817279009E-2
1.448643505E0,4.470938444E-2,-8.143186569E-4,4.757976532E-2,6.529491741E-2
1.453643505E0,6.938409805E-2,2.751374245E-2,5.006790161E-3,7.480793430E-2
1.458643505E0,9.814316034E-2,3.361201286E-2,-5.537605286E-2,1.175940243E-1
1.463643505E0,1.087091267E-1,4.513001442E-2,-8.588314056E-2,1.457062328E-1
1.468643505E0,9.018135071E-2,3.819358349E-2,-9.203624725E-2,1.343952999E-1
1.473643505E0,8.787417412E-2,4.565715790E-5,-1.143712997E-1,1.442312961E-1
1.478643505E0,1.051140428E-1,-2.386486530E-2,-1.624507904E-1,1.949583368E-1
1.483643505E0,1.233633012E-1,-5.164158344E-2,-1.588401794E-1,2.076428660E-1
1.488643505E0,1.276387274E-1,-6.018030643E-2,-1.302556992E-1,1.920413007E-1
1.493643505E0,1.418982595E-1,-5.824661255E-2,-1.090326309E-1,1.881911224E-1
1.498643505E0,1.503548026E-1,-6.745958328E-2,-9.487819672E-2,1.901558157E-1
1.503643505E0,1.626917571E-1,-8.455729485E-2,-7.145118713E-2,1.967836784E-1
1.508643505E0,1.283935159E-1,-1.010129452E-1,-6.172752380E-2,1.746390484E-1
1.513643505E0,1.030900627E-1,-1.259906292E-1,-3.327941895E-2,1.661587175E-1
1.518643505E0,8.786267042E-2,-1.189820766E-1,-8.729934692E-3,1.481647569E-1
1.523643505E0,9.893113375E-2,-1.208003759E-1,-6.952285767E-3,1.562959831E-1
1.528643505E0,1.227022111E-1,-9.974157810E-2,-1.195907593E-3,1.581317337E-1
1.533643505E0,1.440298110E-1,-8.076691628E-2,-4.651737213E-2,1.715568336E-1
1.538643505E0,1.476768255E-1,-3.604400158E-2,-6.481075287E-2,1.652514706E-1
1.543643505E0,1.079244912E-1,-3.339838982E-2,-5.234336853E-2,1.245109492E-1
1.548643505E0,9.462437034E-2,-4.150724411E-2,-7.275295258E-2,1.263709416E-1
1.553643505E0,6.858932972E-2,-3.638041019E-2,-6.031990051E-2,9.831846620E-2
1.558643505E0,5.096492171E-2,-2.208971977E-2,-7.440853119E-2,9.285477090E-2
1.563643505E0,3.626987338E-2,7.744073868E-3,-4.165172577E-2,5.577042814E-2
1.568643505E0,-3.263831139E-3,2.140271664E-2,-2.326297760E-2,3.177884516E-2
1.573643505E0,-5.889084935E-2,-2.660870552E-2,-3.267478943E-2,7.241406777E-2
1.578643505E0,-8.554968238E-2,-3.214740753E-2,2.845764160E-3,9.143468893E-2
1.583643505E0,-1.039604843E-1,-2.523005009E-2,3.233337402E-2,1.117577057E-1
1.588643505E0,-1.133551002E-1,-2.011418343E-3,1.665687561E-2,1.145900346E-1
1.593643505E0,-1.143052876E-1,5.936384201E-3,-2.030849457E-2,1.162470403E-1
1.598643505E0,-1.135824323E-1,8.345723152E-3,2.596855164E-3,1.139182324E-1
1.603643505E0,-5.718144774E-2,3.103625774E-2,1.521873474E-2,6.681749133E-2
1.608643505E0,-1.205593348E-2,4.471540451E-2,1.498889923E-2,4.867730511E-2
1.613643505E0,1.669007540E-2,5.737018585E-2,1.160526276E-2,6.086525253E-2
1.618643505E0,5.249828100E-2,7.568967342E-2,-2.241134644E-3,9.214129832E-2
1.623643505E0,7.667978108E-2,8.235275745E-2,1.877975464E-2,1.140808690E-1
1.628643505E0,5.360269547E-2,8.566963673E-2,4.692077637E-3,1.011659588E-1
1.633643505E0,2.669960260E-3,5.638599396E-2,-4.787445068E-3,5.665181932E-2
1.638643505E0,-6.842523813E-2,3.275084496E-2,-3.012371063E-2,8.162149840E-2
1.643643505E0,-1.393924654E-1,1.499474049E-2,-3.062438965E-2,1.435024560E-1
1.648643505E0,-1.878407001E-1,6.296038628E-3,-5.058479309E-2,1.946345037E-1
1.653643505E0,-2.132017910E-1,3.963935375E-2,-2.064895630E-2,2.178363181E-1
1.658643505E0,-1.909384727E-1,5.404710770E-2,-5.633449554E-2,2.062817627E-1
1.663643505E0,-1.420964599E-1,6.869614124E-2,-8.855056763E-2,1.809744920E-1
1.668643505E0,-1.225809455E-1,7.019841671E-2,-6.846332550E-2,1.569749434E-1
1.673643505E0,-8.452266455E-2,4.943013191E-2,-7.970619202E-2,1.262556763E-1
1.678643505E0,-4.806947708E-2,4.493725300E-2,-8.665370941E-2,1.088066941E-1
1.683643505E0,1.134783030E-3,4.110622406E-2,-9.811115265E-2,1.063804853E-1
1.688643505E0,3.923356533E-2,5.668044090E-3,-1.199131012E-1,1.262954916E-1
1.693643505E0,7.926873863E-2,-2.098619938E-2,-1.524152756E-1,1.730733073E-1
1.698643505E0,1.023964137E-1,-2.783119678E-2,-1.510639191E-1,1.846074448E-1
1.703643505E0,1.144695431E-1,-3.320312500E-2,-1.650075912E-1,2.035515389E-1
1.708643505E0,1.162304282E-1,-2.458286285E-2,-1.487302780E-1,1.903536845E-1
1.713643505E0,9.501096606E-2,-4.949724674E-2,-1.674642563E-1,1.987997441E-1
1.718643505E0,9.945707023E-2,-3.516066074E-2,-1.734609604E-1,2.030189293E-1
1.723643505E0,8.683837950E-2,-1.406681538E-2,-1.386404037E-1,1.641948264E-1
1.728643505E0,3.095754981E-2,9.839534760E-4,-7.013988495E-2,7.667425588E-2
1.733643505E0,-6.884992123E-3,5.235671997E-3,-5.357742310E-2,5.427113085E-2
1.738643505E0,-5.322948098E-2,-3.076064587E-2,-3.670978546E-2,7.160449238E-2
1.743643505E0,-6.056794524E-2,-3.759562969E-2,2.788829803E-2,7.654844564E-2
1.748643505E0,-6.741163135E-2,-8.085489273E-3,1.327238083E-1,1.490815631E-1
1.753643505E0,-9.529197216E-2,3.989458084E-3,1.990928650E-1,2.207587929E-1
1.758643505E0,-1.302978098E-1,-3.411495686E-2,2.365217209E-1,2.721835300E-1
1.763643505E0,-1.494570673E-1,-5.821990967E-2,2.228994370E-1,2.746108735E-1
1.768643505E0,-1.092155278E-1,-8.853244781E-2,2.258386612E-1,2.660246731E-1
1.773643505E0,-7.529786229E-2,-9.705138206E-2,2.118549347E-1,2.448902860E-1
1.778643505E0,-6.336584687E-2,-8.913707733E-2,1.929016113E-1,2.217468844E-1
1.783643505E0,-6.992992759E-2,-8.621263504E-2,1.720800400E-1,2.047787913E-1
1.788643505E0,-6.558588147E-2,-8.283913136E-2,1.621961594E-1,1.935753694E-1
1.793643505E0,-7.328405976E-2,-8.454072475E-2,1.208238602E-1,1.646696473E-1
1.798643505E0,-4.576957226E-2,-7.769846916E-2,6.944370270E-2,1.138171064E-1
1.803643505E0,-4.003256559E-3,-5.746722221E-2,2.020072937E-2,6.104569730E-2
1.808643505E0,3.600531816E-2,-3.346788883E-2,-5.714511871E-2,7.537935468E-2
1.813643505E0,9.722918272E-3,-3.143560886E-2,-6.829833984E-2,7.581158137E-2
1.818643505E0,5.497574806E-3,-7.949709892E-3,-7.779598236E-2,7.839410748E-2
1.823643505E0,2.336984873E-2,1.518726349E-2,-1.033296585E-1,1.070225263E-1
1.828643505E0,3.443866968E-2,1.085627079E-2,-1.270217896E-1,1.320545933E-1
1.833643505E0,6.107237935E-2,9.794354439E-3,-1.580553055E-1,1.697269704E-1
1.838643505E0,7.496976852E-2,2.242648602E-2,-1.581516266E-1,1.764521195E-1
1.843643505E0,8.919817209E-2,1.644933224E-2,-1.430969238E-1,1.694214392E-1
1.848643505E0,1.098017991E-1,9.721398354E-3,-1.026773453E-1,1.506438777E-1
1.853643505E0,1.136488765E-1,2.109563351E-2,-7.189750671E-2,1.361262075E-1
1.858643505E0,1.006488949E-1,1.918125153E-2,-4.822540283E-2,1.132422621E-1
1.863643505E0,9.776277840E-2,-5.766153336E-4,-3.612327576E-2,1.042246822E-1
1.868643505E0,8.435228467E-2,-5.533277988E-2,-5.294036865E-2,1.139285175E-1
1.873643505E0,3.333252668E-2,-5.505096912E-2,-9.032249451E-3,6.498652219E-2
1.878643505E0,-2.319616079E-2,-5.899727345E-2,2.571010590E-2,6.840869605E-2
1.883643505E0,-2.283218503E-2,-4.682362080E-2,8.595466614E-3,5.279812671E-2
1.888643505E0,-1.042485237E-2,-4.444777966E-2,2.841758728E-2,5.377584895E-2
1.893643505E0,8.623778820E-3,-2.779233456E-2,4.926586151E-2,5.721807871E-2
1.898643505E0,1.017391682E-2,-9.625434875E-3,8.942127228E-2,9.051144411E-2
1.903643505E0,1.571911573E-2,1.150977612E-2,1.262569427E-1,1.277512471E-1
1.908643505E0,4.798772931E-2,3.762876987E-2,1.140394211E-1,1.293202847E-1
1.913643505E0,6.938084960E-2,2.959871292E-2,9.209728241E-2,1.190449307E-1
1.918643505E0,6.113436818E-2,1.365482807E-2,4.674816132E-2,7.816172906E-2
1.923643505E0,2.816137671E-2,-1.761400700E-2,5.529403687E-3,3.367329337E-2
1.928643505E0,5.452448130E-2,-2.734124660E-2,-4.716777802E-2,7.710552580E-2
1.933643505E0,8.176523447E-2,-3.565967083E-2,-9.810924530E-2,1.325993579E-1
1.938643505E0,8.142943680E-2,-3.449988365E-2,-1.366147995E-1,1.627408940E-1
1.943643505E0,4.912325740E-2,-1.055061817E-2,-1.537647247E-1,1.617652637E-1
1.948643505E0,4.435092211E-3,-8.787631989E-3,-1.393909454E-1,1.397380699E-1
1.953643505E0,-1.533058286E-2,2.233111858E-2,-9.450626373E-2,9.831144141E-2
1.958643505E0,-3.172531724E-2,4.628181458E-2,-6.274986267E-2,8.417866345E-2
1.963643505E0,-6.577199697E-2,7.329583168E-2,-5.106639862E-2,1.109324641E-1
1.968643505E0,-9.763997793E-2,9.814560413E-2,-4.287624359E-2,1.449292833E-1
1.973643505E0,-1.363407671E-1,8.017873764E-2,1.010704041E-2,1.584915992E-1
1.978643505E0,-1.794950962E-1,7.530415058E-2,3.565406799E-2,1.978899119E-1
1.983643505E0,-2.137064934E-1,5.858945847E-2,-1.777362823E-2,2.223040526E-1
1.988643505E0,-2.280824780E-1,6.355619431E-2,-4.282760620E-2,2.406142358E-1
1.993643505E0,-2.409951985E-1,5.643856525E-2,-2.992439270E-2,2.493180030E-1
1.998643505E0,-2.068476677E-1,6.263291836E-2,-2.751350403E-2,2.178665486E-1
2.003643505E0,-1.727069020E-1,7.462930679E-2,-5.014324188E-2,1.947088908E-1
2.008643505E0,-1.494988799E-1,7.584285736E-2,-2.936077118E-2,1.701884514E-1
2.013643505E0,-1.346157789E-1,5.364286900E-2,1.258850098E-3,1.449156652E-1
2.018643505E0,-1.274521649E-1,3.438961506E-2,2.558803558E-2,1.344672731E-1
2.023643505E0,-1.096222103E-1,2.169311047E-2,5.405998230E-2,1.241374307E-1
2.028643505E0,-8.542329073E-2,6.415486336E-3,7.165622711E-2,1.116821917E-1
2.033643505E0,-7.021090388E-2,-2.250242233E-2,8.008480072E-2,1.088554332E-1
2.038643505E0,-4.591184855E-2,-2.245283127E-2,6.123542786E-2,7.976092460E-2
2.043643505E0,-4.542565346E-2,-2.599155903E-2,3.834819794E-2,6.488170326E-2
2.048643505E0,-4.865366220E-2,-2.200508118E-2,3.761100769E-2,6.531454924E-2
2.053643505E0,-4.297477007E-2,1.214289665E-2,5.425739288E-2,7.027193952E-2
2.058643505E0,-6.070777774E-2,2.399086952E-2,2.682399750E-2,7.057282012E-2
2.063643505E0,-9.279710054E-2,5.364859104E-2,1.022338867E-3,1.071938355E-1
2.068643505E0,-8.815166354E-2,4.343903065E-2,1.042461395E-2,9.882478305E-2
2.073643505E0,-6.548964977E-2,1.784384251E-2,-1.705360413E-2,6.998658698E-2
2.078643505E0,-3.980243206E-2,-2.135992050E-3,-6.058788300E-2,7.252370389E-2
2.083643505E0,-2.610731125E-2,-1.666700840E-2,-3.536319733E-2,4.700996272E-2
2.088643505E0,1.541066170E-2,-1.918387413E-2,-2.442359924E-3,2.472801332E-2
2.093643505E0,7.656800747E-2,3.873705864E-3,1.847076416E-2,7.885958720E-2
2.098643505E0,8.739650249E-2,1.002919674E-2,1.851367950E-2,8.989710654E-2
2.103643505E0,6.925725937E-2,-3.532171249E-4,2.353668213E-3,6.929814205E-2
2.108643505E0,5.123314261E-2,-1.834464073E-2,-1.302433014E-2,5.595528502E-2
2.113643505E0,6.923565269E-2,-3.551745415E-2,1.099872589E-2,7.858776701E-2
2.118643505E0,8.434906602E-2,-4.094016552E-2,-3.525638580E-2,1.001692310E-1
2.123643505E0,9.077621996E-2,-1.972448826E-2,-4.000186920E-2,1.011411246E-1
2.128643505E0,9.276005626E-2,-2.563250065E-2,-4.743194580E-2,1.072904591E-1
2.133643505E0,8.237051964E-2,-4.574668407E-2,-4.514026642E-2,1.044763383E-1
2.138643505E0,7.376194000E-2,-7.455015182E-2,-5.146312714E-2,1.168203851E-1
2.143643505E0,8.696363866E-2,-7.700943947E-2,-4.244613647E-2,1.236721582E-1
2.148643505E0,8.283646405E-2,-9.157526493E-2,1.718139648E-2,1.246720069E-1
2.153643505E0,7.089200616E-2,-8.735013008E-2,4.632377625E-2,1.216618840E-1
2.158643505E0,7.274115086E-2,-7.008147240E-2,8.281612396E-2,1.306185216E-1
2.163643505E0,9.654068947E-2,-5.900573730E-2,1.241703033E-1,1.679882317E-1
2.168643505E0,1.115404665E-1,-2.821791172E-2,1.121759415E-1,1.606890415E-1
2.173643505E0,8.571262658E-2,-1.502501965E-2,9.218406677E-2,1.267687175E-1
2.178643505E0,6.040066481E-2,-1.123797894E-2,5.556774139E-2,8.283903888E-2
2.183643505E0,3.301981091E-2,-1.555454731E-2,4.532814026E-2,5.819701156E-2
2.188643505E0,1.241305470E-2,-2.162718773E-2,1.520442963E-2,2.920605856E-2
2.193643505E0,-1.929453015E-2,-3.645074368E-2,5.970954895E-3,4.167238787E-2
2.198643505E0,-4.025956988E-2,-2.516651154E-2,-4.570102692E-2,6.589969751E-2
2.203643505E0,-3.843548894E-2,-3.368246555E-2,-5.617809296E-2,7.594585850E-2
2.208643505E0,-5.890318751E-2,-3.279817104E-2,-3.017520905E-2,7.386371751E-2
2.213643505E0,-6.403759122E-2,-4.030334949E-2,-3.861713409E-2,8.494972699E-2
2.218643505E0,-6.926092505E-2,-1.941609383E-2,-5.774021149E-2,9.223877960E-2
2.223643505E0,-1.017628908E-1,-3.036260605E-4,-9.755134583E-2,1.409682347E-1
2.228643505E0,-8.360642195E-2,2.700161934E-2,-5.187702179E-2,1.020311062E-1
2.233643505E0,-5.762887001E-2,5.662751198E-2,-3.312015533E-2,8.731956517E-2
2.238643505E0,-5.253115296E-2,7.789254189E-2,-3.697299957E-2,1.009642155E-1
2.243643505E0,-7.141247392E-2,7.994604111E-2,-4.141330719E-2,1.149181140E-1
2.248643505E0,-8.561432362E-2,6.172323227E-2,-6.117534637E-2,1.219917736E-1
2.253643505E0,-8.281925321E-2,7.559382915E-2,-2.166271210E-2,1.142047670E-1
2.258643505E0,-8.929258585E-2,7.627964020E-2,7.795333862E-3,1.176967146E-1
2.263643505E0,-9.813192487E-2,8.279407024E-2,4.795074463E-2,1.370547579E-1
2.268643505E0,-1.166255474E-1,7.599735260E-2,6.220245361E-2,1.524672461E-1
2.273643505E0,-1.209981740E-1,7.801461220E-2,4.733181000E-2,1.515491275E-1
2.278643505E0,-1.326834559E-1,3.390967846E-2,4.531192780E-2,1.442495635E-1
2.283643505E0,-1.172827184E-1,9.094834328E-3,-2.695083618E-3,1.176656939E-1
2.288643505E0,-1.098901927E-1,-3.690421581E-2,-4.193401337E-2,1.232730185E-1
2.293643505E0,-1.214195788E-1,-4.963052273E-2,-2.980613708E-2,1.345150873E-1
2.298643505E0,-8.622562885E-2,-3.025436401E-2,-2.367210388E-2,9.439573145E-2
2.303643505E0,-5.724793673E-2,3.170239925E-2,-2.086067200E-2,6.868432146E-2
2.308643505E0,-2.533280849E-2,5.790948868E-2,-4.212856293E-2,7.596101552E-2
2.313643505E0,-1.587158442E-2,5.553054810E-2,-4.708480835E-2,7.451528797E-2
2.318643505E0,-1.653569937E-2,1.644933224E-2,-3.837966919E-2,4.491112214E-2
2.323643505E0,-1.596546173E-2,-3.651976585E-3,-5.295658112E-2,5.543133035E-2
2.328643505E0,2.309373021E-2,-8.993864059E-3,-3.878021240E-2,4.602298165E-2
2.333643505E0,6.277883053E-2,-1.495659351E-2,-2.641201019E-2,6.973145298E-2
2.338643505E0,1.197030395E-1,-3.235161304E-2,2.034664154E-2,1.256560001E-1
2.343643505E0,1.648187786E-1,-4.631793499E-2,4.961585999E-2,1.782479017E-1
2.348643505E0,1.871156245E-1,-6.018602848E-2,9.485626221E-2,2.182483115E-1
2.353643505E0,2.004279792E-1,-6.951487064E-2,9.431743622E-2,2.321625958E-1
2.358643505E0,2.172680199E-1,-8.326685429E-2,6.195926666E-2,2.407856147E-1
2.363643505E0,1.993767023E-1,-8.185768127E-2,3.649330139E-2,2.185943971E-1
2.368643505E0,1.603746712E-1,-8.267223835E-2,2.488613129E-2,1.821374582E-1
2.373643505E0,1.165430993E-1,-7.541835308E-2,4.685115814E-2,1.465102488E-1
2.378643505E0,8.924239874E-2,-6.494843960E-2,3.669834137E-2,1.163154065E-1
2.383643505E0,9.409797192E-2,-3.975701332E-2,6.518745422E-2,1.211794232E-1
2.388643505E0,4.871338606E-2,-5.071663857E-2,5.570983887E-2,8.971486808E-2
2.393643505E0,2.200156450E-2,-7.066702843E-2,5.528450012E-2,9.238113282E-2
2.398643505E0,-2.042934299E-2,-9.364414215E-2,7.013511658E-2,1.187666535E-1
2.403643505E0,-4.283630848E-2,-1.208574772E-1,7.952880859E-2,1.508850904E-1
2.408643505E0,-4.982087016E-2,-1.033717394E-1,5.629062653E-2,1.278142020E-1
2.413643505E0,-3.718447685E-2,-7.373142242E-2,-2.264118195E-2,8.562494433E-2
2.418643505E0,-9.216427803E-3,-2.507460117E-2,-2.790927887E-2,3.863425957E-2
2.423643505E0,-5.629241467E-3,1.696646214E-2,-4.179954529E-2,4.546153520E-2
2.428643505E0,1.231679320E-2,5.853819847E-2,-6.341743469E-2,8.717909783E-2
2.433643505E0,1.802104712E-2,7.924950123E-2,-7.581996918E-2,1.111481413E-1
2.438643505E0,6.361871958E-3,8.476567268E-2,-7.192993164E-2,1.113535260E-1
2.443643505E0,-4.249271750E-2,8.117616177E-2,-3.380966187E-2,9.766418748E-2
2.448643505E0,-7.844933867E-2,6.173121929E-2,-7.216453552E-3,1.000855603E-1
2.453643505E0,-9.122681618E-2,4.116189480E-2,1.003551483E-2,1.005850144E-1
2.458643505E0,-1.055390835E-1,2.017891407E-2,4.936981201E-2,1.182500108E-1
2.463643505E0,-1.116450429E-1,1.016938686E-2,5.690574646E-2,1.257230926E-1
2.468643505E0,-5.046457052E-2,2.257764339E-2,-1.335239410E-2,5.687450472E-2
2.473643505E0,-3.213313222E-2,2.545654774E-2,-2.451515198E-2,4.776574804E-2
2.478643505E0,-3.845590353E-2,5.329775810E-2,-6.458282471E-3,6.603951050E-2
2.483643505E0,-4.361191392E-2,6.169795990E-2,-2.045440674E-2,7.827528375E-2
2.488643505E0,-4.269120097E-2,7.622265816E-2,-7.466125488E-2,1.149205606E-1
2.493643505E0,-4.646995664E-2,6.827068329E-2,-8.823871613E-2,1.208569985E-1
2.498643505E0,-9.400111437E-2,6.048166752E-2,-5.424880981E-2,1.242464284E-1
2.503643505E0,-1.341292262E-1,-2.395868301E-3,-8.832931519E-3,1.344411030E-1
2.508643505E0,-1.615185738E-1,-3.162777424E-2,8.263587952E-3,1.647933635E-1
2.513643505E0,-1.467456520E-1,-4.074180126E-2,1.220798492E-2,1.527848672E-1
2.518643505E0,-9.646934271E-2,-4.887771606E-2,4.815006256E-2,1.183798705E-1
2.523643505E0,-5.773678422E-2,-7.010567188E-2,1.212024689E-1,1.514542173E-1
2.528643505E0,-2.184435725E-2,-5.460000038E-2,1.501893997E-1,1.612922558E-1
2.533643505E0,2.408415079E-3,-5.583798885E-2,1.401767731E-1,1.509079493E-1
2.538643505E0,1.673173904E-2,-4.765963554E-2,1.335296631E-1,1.427640111E-1
2.543643505E0,3.525525331E-2,-2.877736092E-2,1.105070114E-1,1.195109575E-1
2.548643505E0,5.993582308E-2,1.523828506E-2,7.172298431E-2,9.470319266E-2
2.553643505E0,7.767987251E-2,1.833140850E-2,2.979087830E-2,8.519213321E-2
2.558643505E0,8.254647255E-2,2.346456051E-2,-1.082229614E-2,8.649640353E-2
2.563643505E0,7.178729773E-2,1.517486572E-2,-3.585052490E-2,8.166365654E-2
2.568643505E0,6.080326438E-2,1.928091049E-3,-6.718063354E-2,9.063107645E-2
2.573643505E0,7.256630063E-2,-1.439523697E-2,-6.327342987E-2,9.734792120E-2
2.578643505E0,7.926949859E-2,-1.991176605E-2,-7.729816437E-2,1.124950579E-1
2.583643505E0,3.761729598E-2,-1.986598969E-2,-7.246971130E-2,8.403319320E-2
2.588643505E0,1.060491800E-2,-3.413474560E-2,-6.352043152E-2,7.288683258E-2
2.593643505E0,-5.420762300E-2,-4.457914829E-2,-6.965637207E-2,9.888264268E-2
2.598643505E0,-1.211069822E-1,-2.490222454E-2,-3.090667725E-2,1.274450651E-1
2.603643505E0,-1.295232177E-1,-1.162970066E-2,-3.979778290E-2,1.359977109E-1
2.608643505E0,-1.196012795E-1,1.435470581E-2,-3.747940063E-2,1.261555750E-1
2.613643505E0,-9.735560417E-2,4.076385498E-2,-3.996467590E-2,1.128582334E-1
2.618643505E0,-6.886008382E-2,3.111267090E-2,-6.410503387E-2,9.909169896E-2
2.623643505E0,-2.959793806E-2,2.007699013E-2,-1.121082306E-1,1.176748862E-1
2.628643505E0,5.051493645E-5,1.456677914E-2,-9.954643250E-2,1.006065894E-1
2.633643505E0,4.016253352E-2,-1.426100731E-2,-8.061599731E-2,9.118851052E-2
2.638643505E0,8.564887941E-2,-2.061986923E-2,-7.539939880E-2,1.159567975E-1
2.643643505E0,1.140861362E-1,-3.587269783E-2,-5.722427368E-2,1.325787103E-1
2.648643505E0,1.145510674E-1,-3.974139690E-2,-1.661777496E-2,1.223824992E-1
2.653643505E0,9.191510081E-2,-5.905067921E-2,1.819610596E-3,1.092642643E-1
2.658643505E0,9.392397106E-2,-6.817948818E-2,6.896972656E-3,1.162657438E-1
2.663643505E0,8.426347375E-2,-4.922235012E-2,1.889228821E-2,9.939864845E-2
2.668643505E0,5.580849946E-2,-3.530859947E-2,3.617382050E-2,7.529828084E-2
2.673643505E0,-9.790241718E-3,-4.148995876E-2,3.619194031E-2,5.592067645E-2
2.678643505E0,-4.185932875E-2,-4.497706890E-2,3.245353699E-2,6.948648928E-2
2.683643505E0,-3.571557999E-2,-4.970586300E-2,2.021884918E-2,6.445988933E-2
2.688643505E0,-3.090727329E-2,-3.380417824E-2,1.004314423E-2,4.689186235E-2
2.693643505E0,-2.054160833E-2,5.372166634E-3,4.354858398E-2,4.844891138E-2
2.698643505E0,-1.255202293E-2,3.888368607E-2,7.786655426E-2,8.793574128E-2
2.703643505E0,-9.742349386E-3,4.121077061E-2,8.857440948E-2,9.817671313E-2
2.708643505E0,-2.226057649E-2,2.451467514E-2,5.027580261E-2,6.020098746E-2
2.713643505E0,-1.315942407E-2,-1.406359673E-2,3.899765015E-2,4.349450438E-2
2.718643505E0,1.899886131E-2,-3.553807735E-2,3.702449799E-2,5.472408176E-2
2.723643505E0,4.680389166E-2,-1.240825653E-2,-4.785537720E-3,4.865665911E-2
2.728643505E0,7.106915116E-2,1.406776905E-2,-5.275344849E-2,8.961948840E-2
2.733643505E0,7.530565560E-2,3.090262413E-3,-9.870815277E-2,1.241925558E-1
2.738643505E0,5.867639184E-2,-1.547813416E-3,-1.178960800E-1,1.316996597E-1
2.743643505E0,1.802873611E-2,-3.671491146E-2,-1.249771118E-1,1.315001845E-1
2.748643505E0,1.138404012E-2,-2.811813354E-2,-1.087245941E-1,1.128772039E-1
2.753643505E0,-1.476562023E-2,-9.745955467E-3,-6.303977966E-2,6.547534657E-2
2.758643505E0,-3.072157502E-2,2.182877064E-2,-1.393890381E-2,4.018212835E-2
2.763643505E0,-1.997920871E-2,2.527642250E-2,1.263141632E-2,3.460663222E-2
2.768643505E0,-1.419484615E-2,2.724063396E-2,4.629898071E-2,5.556205010E-2
2.773643505E0,-5.395770073E-3,-3.586411476E-3,7.878589630E-2,7.905184462E-2
2.778643505E0,1.962602139E-3,-3.035688400E-2,9.966278076E-2,1.042020253E-1
2.783643505E0,1.942431927E-2,-4.728090763E-2,1.102676392E-1,1.215390499E-1
2.788643505E0,3.766548634E-2,-6.159126759E-2,1.343250275E-1,1.524971675E-1
2.793643505E0,4.671564698E-2,-5.561602116E-2,1.473045349E-1,1.642379965E-1
2.798643505E0,8.633552492E-2,-2.769815922E-2,1.627101898E-1,1.862675945E-1
2.803643505E0,1.078614295E-1,-3.061056137E-2,1.415071487E-1,1.805418721E-1
2.808643505E0,1.160655022E-1,-2.948653698E-2,1.014118195E-1,1.569235922E-1
2.813643505E0,6.356896460E-2,-5.926489830E-3,8.986759186E-2,1.102375644E-1
2.818643505E0,4.265993834E-2,2.813339233E-5,6.136035919E-2,7.473262213E-2
2.823643505E0,1.460677385E-2,-1.663768291E-2,-1.132011414E-3,2.216871185E-2
2.828643505E0,-8.690237999E-3,-4.380440712E-2,-5.835723877E-2,7.348410465E-2
2.833643505E0,-1.640269160E-2,-3.368961811E-2,-8.384609222E-2,9.183793248E-2
2.838643505E0,-6.696790457E-3,-1.366615295E-2,-8.972454071E-2,9.100606543E-2
2.843643505E0,7.155179977E-3,1.303899288E-2,-6.328105927E-2,6.500541822E-2
2.848643505E0,1.318037510E-3,2.999472618E-2,-3.365230560E-2,4.509876377E-2
2.853643505E0,-8.484125137E-3,3.700196743E-2,-5.512619019E-2,6.693297257E-2
2.858643505E0,-3.339511156E-2,4.191231728E-2,-3.966140747E-2,6.667010618E-2
2.863643505E0,-7.124444842E-2,4.571723938E-2,-1.528739929E-2,8.602059047E-2
2.868643505E0,-7.196938992E-2,3.788757324E-2,-2.358436584E-2,8.468343169E-2
2.873643505E0,-7.419231534E-2,5.508458614E-2,-3.049278259E-2,9.730683982E-2
2.878643505E0,-7.474920154E-2,5.290186405E-2,1.853656769E-2,9.343262113E-2
2.883643505E0,-6.366625428E-2,8.451402187E-2,3.476428986E-2,1.113757948E-1
2.888643505E0,-8.699852228E-2,8.355104923E-2,8.093166351E-2,1.452565140E-1
2.893643505E0,-1.184979975E-1,7.492184639E-2,1.228313446E-1,1.863936633E-1
2.898643505E0,-1.361039579E-1,7.056117058E-2,1.673116684E-1,2.269280955E-1
2.903643505E0,-1.538750529E-1,4.569804668E-2,1.720371246E-1,2.352926170E-1
2.908643505E0,-1.601815522E-1,2.735447884E-2,2.055702209E-1,2.620410520E-1
2.913643505E0,-1.555036008E-1,1.746773720E-2,2.430610657E-1,2.890764144E-1
2.918643505E0,-1.253557205E-1,1.057577133E-2,2.582702637E-1,2.872793635E-1
2.923643505E0,-7.125845551E-2,1.408004761E-2,2.841281891E-1,2.932658232E-1
2.928643505E0,-7.648324966E-2,2.013540268E-2,3.208913803E-1,3.304941753E-1
2.933643505E0,-8.492934704E-2,1.377248764E-2,3.407545090E-1,3.514488736E-1
2.938643505E0,-8.341267705E-2,2.220392227E-3,3.098716736E-1,3.209097364E-1
2.943643505E0,-8.226442337E-2,-1.539325714E-2,2.627487183E-1,2.757558280E-1
2.948643505E0,-4.955440760E-2,-2.082121372E-2,2.206935883E-1,2.271449364E-1
2.953643505E0,-4.810747504E-2,-3.079652786E-3,1.548728943E-1,1.622018089E-1
2.958643505E0,-1.328501105E-2,1.527404785E-2,6.644153595E-2,6.945693454E-2
2.963643505E0,-3.300687671E-2,9.076952934E-3,3.492355347E-3,3.440990454E-2
2.968643505E0,-6.253838539E-2,2.587318420E-3,-2.303981781E-2,6.669765415E-2
2.973643505E0,-6.625303626E-2,-7.080793381E-3,-6.891441345E-2,9.585822255E-2
2.978643505E0,-7.082435489E-2,-2.249550819E-2,-1.233654022E-1,1.440179142E-1
2.983643505E0,-7.936242223E-2,-3.429138660E-2,-1.798667908E-1,1.995654170E-1
2.988643505E0,-6.404063106E-2,-3.525853157E-2,-1.794776917E-1,1.937952741E-1
2.993643505E0,-2.732038498E-2,-3.626012802E-2,-2.000608444E-1,2.051476098E-1
2.998643505E0,-2.755910158E-3,-4.302239418E-2,-1.952381134E-1,1.999410972E-1
3.003643505E0,3.890818357E-2,-7.768464088E-2,-2.477960587E-1,2.625864369E-1
3.008643505E0,5.431650579E-2,-1.092727184E-1,-2.571048737E-1,2.845939666E-1
3.013643505E0,5.483068526E-2,-1.424647570E-1,-2.535724640E-1,2.959756840E-1
3.018643505E0,4.275387526E-2,-1.348668337E-1,-2.112894058E-1,2.542836402E-1
3.023643505E0,4.738326371E-2,-1.060125828E-1,-2.012424469E-1,2.323410507E-1
3.028643505E0,5.894580483E-2,-6.241858006E-2,-1.961269379E-1,2.140945184E-1
3.033643505E0,7.918426394E-2,-5.380105972E-2,-1.816806793E-1,2.053596137E-1
3.038643505E0,9.903381765E-2,-5.428564548E-2,-2.058801651E-1,2.348217850E-1
3.043643505E0,9.243112803E-2,-4.917526245E-2,-2.396631241E-1,2.615341907E-1
3.048643505E0,8.285847306E-2,-6.243741512E-2,-2.521295547E-1,2.726412840E-1
3.053643505E0,1.064293981E-1,-3.564047813E-2,-3.112258911E-1,3.308459094E-1
3.058643505E0,1.371867061E-1,-1.771306992E-2,-3.568639755E-1,3.827346890E-1
3.063643505E0,1.297082603E-1,5.660176277E-3,-4.080753326E-1,4.282309511E-1
3.068643505E0,1.132854372E-1,-1.284611225E-2,-4.435462952E-1,4.579649865E-1
3.073643505E0,9.104654193E-2,-2.400720119E-2,-4.436397552E-1,4.535218307E-1
3.078643505E0,6.423157454E-2,-1.901686192E-2,-4.398880005E-1,4.449593118E-1
3.083643505E0,3.360940516E-2,3.706455231E-3,-4.014987946E-1,4.029201062E-1
3.088643505E0,6.184339523E-3,4.179108143E-2,-3.854160309E-1,3.877244607E-1
3.093643505E0,-2.223566175E-2,3.885817528E-2,-3.295478821E-1,3.325750878E-1
3.098643505E0,-4.483851790E-2,3.325724602E-2,-3.118085861E-1,3.167666830E-1
3.103643505E0,-3.238078952E-2,4.958379269E-2,-2.532205582E-1,2.600533005E-1
3.108643505E0,-4.560109973E-2,8.214247227E-2,-1.812038422E-1,2.041119263E-1
3.113643505E0,-9.865158796E-2,7.475674152E-2,-1.281766891E-1,1.781852122E-1
3.118643505E0,-1.173931956E-1,8.548521996E-2,-7.220363617E-2,1.621796852E-1
3.123643505E0,-1.312243938E-1,4.739511013E-2,-6.971359253E-4,1.395228440E-1
3.128643505E0,-1.058284044E-1,4.312551022E-2,4.396057129E-2,1.224417929E-1
3.133643505E0,-8.800405264E-2,2.576029301E-2,8.930492401E-2,1.279987321E-1
3.138643505E0,-7.905855775E-2,1.092517376E-2,1.503477097E-1,1.702176512E-1
3.143643505E0,-5.112293363E-2,-1.167058945E-3,1.754388809E-1,1.827394793E-1
3.148643505E0,-1.721179485E-2,-2.765202522E-2,1.697826385E-1,1.728786416E-1
3.153643505E0,-4.738473892E-2,-5.922961235E-2,1.683444977E-1,1.846437932E-1
3.158643505E0,-5.765980482E-2,-8.256220818E-2,1.646108627E-1,1.929712607E-1
3.163643505E0,-5.297881365E-2,-8.933746815E-2,1.512413025E-1,1.834717130E-1
3.168643505E0,-3.743824363E-2,-8.981621265E-2,1.331501007E-1,1.649167167E-1
3.173643505E0,-4.744762182E-2,-8.096385002E-2,1.338195801E-1,1.634444916E-1
3.178643505E0,-6.047865748E-2,-1.034759283E-1,1.046905518E-1,1.591384535E-1
3.183643505E0,-8.846262097E-2,-9.717690945E-2,5.252933502E-2,1.415214403E-1
3.188643505E0,-1.126073897E-1,-1.076902151E-1,-3.196430206E-2,1.590576098E-1
3.193643505E0,-1.401670277E-1,-1.237504482E-1,-1.229171753E-1,2.237623764E-1
3.198643505E0,-1.409117281E-1,-1.417412758E-1,-2.591915131E-1,3.273025280E-1
3.203643505E0,-1.043523848E-1,-1.540570259E-1,-4.014358521E-1,4.424632536E-1
3.208643505E0,-7.585048676E-2,-1.606593132E-1,-5.453147888E-1,5.735267476E-1
3.213643505E0,-4.650127888E-2,-1.963890791E-1,-6.263504028E-1,6.580622056E-1
3.218643505E0,-8.144944906E-3,-1.889972687E-1,-6.997413635E-1,7.248615616E-1
3.223643505E0,4.436795413E-2,-1.708812714E-1,-7.818861008E-1,8.015702083E-1
3.228643505E0,6.104339659E-2,-1.753050089E-1,-8.358001709E-1,8.561659115E-1
3.233643505E0,5.638247728E-2,-1.592608690E-1,-8.864984512E-1,9.024536067E-1
3.238643505E0,5.002439022E-2,-1.806118488E-1,-8.971776962E-1,9.165429058E-1
3.243643505E0,3.635808825E-2,-1.816234589E-1,-9.152860641E-1,9.338402276E-1
3.248643505E0,2.800118923E-2,-1.722501516E-1,-9.695062637E-1,9.850870909E-1
3.253643505E0,4.641689360E-2,-1.494767666E-1,-9.687967300E-1,9.813587193E-1
3.258643505E0,1.024487689E-1,-1.171711683E-1,-9.508752823E-1,9.635292603E-1
3.263643505E0,1.207475960E-1,-9.145677090E-2,-9.207229614E-1,9.330997238E-1
3.268643505E0,1.049991250E-1,-8.403956890E-2,-9.031953812E-1,9.131535259E-1
3.273643505E0,4.889398813E-2,-6.944823265E-2,-8.741931915E-1,8.783094074E-1
3.278643505E0,4.517921805E-2,-4.409897327E-2,-8.541107178E-1,8.564408908E-1
3.283643505E0,7.039674371E-2,-3.209352493E-3,-8.955097198E-1,8.982781639E-1
3.288643505E0,7.466743886E-2,3.215754032E-2,-8.553447723E-1,8.591996354E-1
3.293643505E0,3.393460810E-2,7.804703712E-2,-8.349742889E-1,8.393002805E-1
3.298643505E0,-9.112358093E-4,1.078865528E-1,-8.662662506E-1,8.729590801E-1
3.303643505E0,-5.718196929E-2,1.270776987E-1,-8.970737457E-1,9.078324870E-1
3.308643505E0,-1.128767431E-1,1.080794334E-1,-8.933982849E-1,9.069635156E-1
3.313643505E0,-1.575925350E-1,9.945380688E-2,-8.717050552E-1,8.914012397E-1
3.318643505E0,-1.896828860E-1,1.072387695E-1,-8.361234665E-1,8.640498841E-1
3.323643505E0,-2.177689523E-1,9.933459759E-2,-8.035650253E-1,8.384553827E-1
3.328643505E0,-2.349844575E-1,8.617269993E-2,-7.566585541E-1,7.969790442E-1
3.333643505E0,-2.623141706E-1,5.878734589E-2,-6.997461319E-1,7.496061134E-1
3.338643505E0,-2.729912996E-1,2.605426311E-2,-6.454601288E-1,7.013001156E-1
3.343643505E0,-2.714875340E-1,-6.814360619E-3,-6.036548615E-1,6.619298365E-1
3.348643505E0,-2.782384157E-1,-4.442608356E-2,-5.301361084E-1,6.003620460E-1
3.353643505E0,-2.721363902E-1,-7.393062115E-2,-4.504051208E-1,5.314026011E-1
3.358643505E0,-2.293884009E-1,-8.608603477E-2,-3.738775253E-1,4.470058700E-1
3.363643505E0,-1.412196159E-1,-7.820856571E-2,-2.840652466E-1,3.267302006E-1
3.368643505E0,-7.565958798E-2,-5.794072151E-2,-2.221927643E-1,2.417666746E-1
3.373643505E0,-2.377092838E-2,-7.263624668E-2,-1.756649017E-1,1.915704546E-1
3.378643505E0,-3.626450896E-3,-1.073323488E-1,-1.406517029E-1,1.769640805E-1
3.383643505E0,1.869919896E-2,-1.249389648E-1,-1.349534988E-1,1.848563005E-1
3.388643505E0,3.113007545E-2,-1.350905895E-1,-1.496038437E-1,2.039604349E-1
3.393643505E0,3.799299896E-2,-1.448968649E-1,-1.866989136E-1,2.393638522E-1
3.398643505E0,1.518414915E-2,-1.958270073E-1,-2.273912430E-1,3.004755440E-1
3.403643505E0,8.123219013E-4,-2.417029142E-1,-2.663965225E-1,3.597055265E-1
3.408643505E0,3.148402274E-2,-2.387306690E-1,-2.986240387E-1,3.836142496E-1
3.413643505E0,6.998141110E-2,-1.927858591E-1,-3.229188919E-1,3.825446328E-1
3.418643505E0,9.514141083E-2,-1.297401190E-1,-3.470134735E-1,3.824954082E-1
3.423643505E0,9.528218210E-2,-1.286683083E-1,-3.754186630E-1,4.081340470E-1
3.428643505E0,7.822091877E-2,-1.496298313E-1,-4.498949051E-1,4.805341030E-1
3.433643505E0,8.773813397E-2,-1.625188589E-1,-5.249490738E-1,5.564906915E-1
3.438643505E0,1.086291522E-1,-1.575868130E-1,-6.287746429E-1,6.572605632E-1
3.443643505E0,1.308387369E-1,-1.409671307E-1,-6.938762665E-1,7.200380408E-1
3.448643505E0,1.290758252E-1,-1.088117361E-1,-7.881422043E-1,8.060202831E-1
3.453643505E0,1.185118705E-1,-1.073057652E-1,-8.728237152E-1,8.873448194E-1
3.458643505E0,8.695732802E-2,-1.242283583E-1,-9.993591309E-1,1.010798167E0
3.463643505E0,3.754611313E-2,-1.437554359E-1,-1.079451561E0,1.089628840E0
3.468643505E0,1.737058163E-3,-1.202448606E-1,-1.109266281E0,1.115765892E0
3.473643505E0,-1.052014530E-2,-1.053323746E-1,-1.122773170E0,1.127752267E0
3.478643505E0,1.657649875E-3,-1.225558519E-1,-1.135740280E0,1.142334745E0
3.483643505E0,2.460937202E-2,-1.319581270E-1,-1.148667336E0,1.156483989E0
3.488643505E0,5.832412094E-2,-1.474665403E-1,-1.134696007E0,1.145723837E0
3.493643505E0,9.230387956E-2,-1.387823820E-1,-1.108750343E0,1.121208223E0
3.498643505E0,1.266779304E-1,-1.499408484E-1,-1.116716385E0,1.133836426E0
3.503643505E0,1.427816153E-1,-1.625860929E-1,-1.111473083E0,1.132339720E0
3.508643505E0,1.427838355E-1,-1.485601664E-1,-1.088069916E0,1.107408456E0
3.513643505E0,1.381259114E-1,-1.151257753E-1,-1.048017502E0,1.063331273E0
3.518643505E0,1.565082073E-1,-9.453010559E-2,-1.035624504E0,1.051641038E0
3.523643505E0,1.599108875E-1,-6.328415871E-2,-1.007900238E0,1.022467245E0
3.528643505E0,1.356952637E-1,-2.580201626E-2,-9.876098633E-1,9.972222374E-1
3.533643505E0,9.250753373E-2,-2.614223957E-2,-9.697694778E-1,9.745223962E-1
3.538643505E0,2.714865655E-2,-5.829596519E-2,-9.503459930E-1,9.525192783E-1
3.543643505E0,-4.884402454E-2,-8.303165436E-2,-9.573516846E-1,9.621861786E-1
3.548643505E0,-1.278955638E-1,-9.789323807E-2,-9.005317688E-1,9.148212000E-1
3.553643505E0,-1.392801106E-1,-8.796942234E-2,-8.193244934E-1,8.357213614E-1
3.558643505E0,-1.440169811E-1,-8.938634396E-2,-7.338447571E-1,7.531659424E-1
3.563643505E0,-1.416314840E-1,-9.055793285E-2,-6.303987503E-1,6.524283875E-1
3.568643505E0,-1.432714164E-1,-8.350861073E-2,-5.386075974E-1,5.635588086E-1
3.573643505E0,-1.355721802E-1,-1.047382355E-1,-4.567947388E-1,4.878640665E-1
3.578643505E0,-1.356282383E-1,-1.237998009E-1,-3.368072510E-1,3.836150858E-1
3.583643505E0,-8.318784833E-2,-1.135973930E-1,-2.696561813E-1,3.042023043E-1
3.588643505E0,-3.120879829E-2,-1.182913780E-1,-1.767282486E-1,2.149411851E-1
3.593643505E0,2.426035702E-2,-9.136605263E-2,-1.090049744E-1,1.442858445E-1
3.598643505E0,6.511024386E-2,-5.206120014E-2,-5.122852325E-2,9.784719725E-2
3.603643505E0,7.957950234E-2,-4.804182053E-2,-3.852939606E-2,1.006251861E-1
3.608643505E0,6.984562427E-2,-4.440808296E-2,-8.152770996E-2,1.161776939E-1
3.613643505E0,3.828801215E-2,-5.337870121E-2,-1.062564850E-1,1.249227690E-1
3.618643505E0,2.874810994E-2,-5.546629429E-2,-1.709995270E-1,1.820543926E-1
3.623643505E0,1.585435867E-2,-6.711232662E-2,-2.481651306E-1,2.575681602E-1
3.628643505E0,-7.297843695E-3,-8.783459663E-2,-3.155441284E-1,3.276221480E-1
3.633643505E0,-1.199892163E-2,-1.008993387E-1,-3.473072052E-1,3.618659219E-1
3.638643505E0,-2.485027909E-2,-1.207593679E-1,-3.664131165E-1,3.865991894E-1
3.643643505E0,-7.879391313E-3,-9.755933285E-2,-3.693513870E-1,3.820999285E-1
3.648643505E0,-1.272258162E-2,-9.051573277E-2,-3.463659286E-1,3.582238385E-1
3.653643505E0,-2.792446315E-2,-1.002049446E-1,-3.366641998E-1,3.523685429E-1
3.658643505E0,-6.768552959E-2,-1.174968481E-1,-2.920694351E-1,3.220114830E-1
3.663643505E0,-6.577411294E-2,-1.040070057E-1,-2.855596542E-1,3.109469525E-1
3.668643505E0,-3.421163559E-2,-9.969043732E-2,-3.182678223E-1,3.352656051E-1
3.673643505E0,-2.905897796E-2,-8.797502518E-2,-3.607769012E-1,3.724835590E-1
3.678643505E0,-4.990170896E-2,-8.163332939E-2,-3.802566528E-1,3.921087898E-1
3.683643505E0,-6.774273515E-2,-6.183075905E-2,-3.782825470E-1,3.892426060E-1
3.688643505E0,-7.267284393E-2,-5.699527264E-2,-4.290390015E-1,4.388670278E-1
3.693643505E0,-6.341934204E-2,-4.331660271E-2,-4.553661346E-1,4.617972040E-1
3.698643505E0,-3.019759059E-2,-3.473234177E-2,-5.225343704E-1,5.245573356E-1
3.703643505E0,-1.397286355E-2,-4.936861992E-2,-5.775318146E-1,5.798064318E-1
3.708643505E0,-8.180186152E-3,-8.459901810E-2,-6.434049606E-1,6.489944936E-1
3.713643505E0,2.102504671E-2,-9.764623642E-2,-7.090806961E-1,7.160811921E-1
3.718643505E0,7.452171296E-2,-7.229757309E-2,-7.535209656E-1,7.606406973E-1
3.723643505E0,7.736454159E-2,-3.225886822E-2,-7.755374908E-1,7.800540408E-1
3.728643505E0,4.954083264E-2,-3.102314472E-2,-7.758073807E-1,7.780063120E-1
3.733643505E0,4.384481162E-2,-4.941630363E-2,-7.692098618E-1,7.720415468E-1
3.738643505E0,3.532749414E-2,-8.446073532E-2,-7.744188309E-1,7.798116268E-1
3.743643505E0,1.547028869E-2,-1.052873135E-1,-8.321323395E-1,8.389093983E-1
3.748643505E0,1.109471917E-2,-1.132974625E-1,-8.409872055E-1,8.486571084E-1
3.753643505E0,-1.138912886E-2,-1.287389994E-1,-8.450717926E-1,8.548975242E-1
3.758643505E0,-1.021175086E-2,-1.346610785E-1,-8.438291550E-1,8.545674512E-1
3.763643505E0,-3.103881329E-2,-1.449390650E-1,-8.437614441E-1,8.566820385E-1
3.768643505E0,-2.832248062E-2,-1.523237228E-1,-8.434915543E-1,8.576028694E-1
3.773643505E0,-5.778543651E-3,-1.347528696E-1,-8.283014297E-1,8.392109306E-1
3.778643505E0,1.523964852E-2,-1.110028028E-1,-7.778635025E-1,7.858915305E-1
3.783643505E0,1.698599756E-2,-9.477162361E-2,-7.175264359E-1,7.239574372E-1
3.788643505E0,1.837124676E-2,-8.073282242E-2,-6.642189026E-1,6.693594265E-1
3.793643505E0,5.651268363E-2,-6.677174568E-2,-6.299552917E-1,6.359998577E-1
3.798643505E0,8.881960809E-2,-3.835117817E-2,-5.248270035E-1,5.336694850E-1
3.803643505E0,9.285474569E-2,-1.950526237E-2,-4.445371628E-1,4.545500502E-1
3.808643505E0,8.429926634E-2,-8.261561394E-3,-4.017047882E-1,4.105378869E-1
3.813643505E0,8.687528968E-2,-1.760303974E-2,-3.758268356E-1,3.861385675E-1
3.818643505E0,1.072252393E-1,-1.449751854E-2,-3.563346863E-1,3.724001056E-1
3.823643505E0,1.052533239E-1,-1.964032650E-2,-3.085031509E-1,3.265550471E-1
3.828643505E0,1.000613123E-1,-2.572810650E-2,-3.027400970E-1,3.198839915E-1
3.833643505E0,4.867450893E-2,-4.959416389E-2,-2.906665802E-1,2.988575744E-1
3.838643505E0,4.153996706E-4,-1.030094624E-1,-2.994966507E-1,3.167165384E-1
3.843643505E0,-2.180966735E-2,-1.460307837E-1,-2.982892990E-1,3.328320256E-1
3.848643505E0,-3.440305591E-3,-1.602045298E-1,-2.859191895E-1,3.277607511E-1
3.853643505E0,-5.930989981E-3,-1.342160702E-1,-2.613229752E-1,2.938346941E-1
3.858643505E0,-3.221103549E-2,-1.063153744E-1,-2.044019699E-1,2.326385070E-1
3.863643505E0,-5.356501043E-2,-7.552194595E-2,-1.448268890E-1,1.718941606E-1
3.868643505E0,-8.900490403E-2,-5.022525787E-2,-8.330249786E-2,1.318474710E-1
3.873643505E0,-1.265458167E-1,-2.376723289E-2,-4.908657074E-2,1.377977376E-1
3.878643505E0,-1.398153156E-1,-4.445433617E-3,-2.237796783E-2,1.416645961E-1
3.883643505E0,-1.286117882E-1,2.897858620E-3,3.694534302E-3,1.286974717E-1
3.888643505E0,-1.269449890E-1,7.805824280E-3,-1.558113098E-2,1.281356030E-1
3.893643505E0,-1.279056668E-1,-1.244068146E-3,-4.910755157E-2,1.370144479E-1
3.898643505E0,-1.118453592E-1,-2.434074879E-2,-9.019660950E-2,1.457301780E-1
3.903643505E0,-8.670204878E-2,-6.295561790E-2,-1.089324951E-1,1.527970667E-1
3.908643505E0,-5.211523175E-2,-9.215283394E-2,-1.130790710E-1,1.549032553E-1
3.913643505E0,-3.635585308E-3,-1.124833822E-1,-1.631984711E-1,1.982409385E-1
3.918643505E0,3.849396110E-2,-1.155618429E-1,-1.974830627E-1,2.320256121E-1
3.923643505E0,7.058791071E-2,-1.255663633E-1,-2.200450897E-1,2.630007723E-1
3.928643505E0,1.116290987E-1,-1.153713465E-1,-2.408351898E-1,2.894359893E-1
3.933643505E0,1.501734257E-1,-8.762419224E-2,-2.856702805E-1,3.344212403E-1
3.938643505E0,1.317699850E-1,-8.651328087E-2,-3.319540024E-1,3.674797088E-1
3.943643505E0,1.092708483E-1,-7.771456242E-2,-3.614130020E-1,3.854854466E-1
3.948643505E0,8.117497712E-2,-7.807433605E-2,-3.855133057E-1,4.016285444E-1
3.953643505E0,5.240322649E-2,-9.821081161E-2,-4.145374298E-1,4.292234178E-1
3.958643505E0,5.625765026E-2,-1.046587229E-1,-4.651956558E-1,4.801305757E-1
3.963643505E0,7.495636493E-2,-8.671951294E-2,-4.684648514E-1,4.822841979E-1
3.968643505E0,6.320848316E-2,-6.295764446E-2,-4.394102097E-1,4.483751885E-1
3.973643505E0,-3.136380017E-2,-7.683944702E-2,-4.132318497E-1,4.214837484E-1
3.978643505E0,-1.156729460E-1,-7.930266857E-2,-4.042682648E-1,4.279041640E-1
3.983643505E0,-1.372826993E-1,-6.923520565E-2,-4.033470154E-1,4.316582769E-1
3.988643505E0,-1.322531998E-1,-5.554771423E-2,-3.716564178E-1,3.983778989E-1
3.993643505E0,-1.189298183E-1,-2.876806259E-2,-3.324747086E-1,3.542757894E-1
3.998643505E0,-8.704870939E-2,7.978558540E-3,-3.244009018E-1,3.359718445E-1
4.003643505E0,-5.274707079E-2,1.496434212E-2,-3.045663834E-1,3.094622221E-1
4.008643505E0,-1.820930839E-2,-1.594662666E-3,-3.000659943E-1,3.006222260E-1
4.013643505E0,3.962283581E-2,1.294279099E-2,-3.154373169E-1,3.181794868E-1
4.018643505E0,9.042006731E-2,-1.569998264E-2,-3.512830734E-1,3.630730997E-1
4.023643505E0,1.276662201E-1,-6.313824654E-2,-3.862152100E-1,4.116397580E-1
4.028643505E0,1.171429753E-1,-1.084113121E-1,-4.120521545E-1,4.418851291E-1
4.033643505E0,1.261398345E-1,-1.570391655E-1,-4.119005203E-1,4.585134633E-1
4.038643505E0,1.432182938E-1,-1.913795471E-1,-4.095535278E-1,4.742063927E-1
4.043643505E0,1.607109606E-1,-2.504137754E-1,-4.009637833E-1,4.993065464E-1
4.048643505E0,1.168755144E-1,-2.480825782E-1,-3.576231003E-1,4.506652120E-1
4.053643505E0,1.402152777E-1,-2.422668338E-1,-2.932920456E-1,4.054303477E-1
4.058643505E0,1.780485958E-1,-2.217775583E-1,-2.433271408E-1,3.742922458E-1
4.063643505E0,1.858597398E-1,-1.683329344E-1,-2.076444626E-1,3.255703342E-1
4.068643505E0,1.232321262E-1,-1.352075338E-1,-1.733760834E-1,2.520446398E-1
4.073643505E0,6.356754154E-2,-9.823894501E-2,-1.356258392E-1,1.791259080E-1
4.078643505E0,2.959175408E-2,-4.541361332E-2,-1.223402023E-1,1.338102884E-1
4.083643505E0,-2.597064525E-2,-8.970975876E-3,-1.261367798E-1,1.290946941E-1
4.088643505E0,-8.371727169E-2,2.125728130E-2,-1.494617462E-1,1.726246424E-1
4.093643505E0,-1.046072096E-1,3.969430923E-2,-1.985235214E-1,2.278813179E-1
4.098643505E0,-1.048014387E-1,2.329099178E-2,-2.332611084E-1,2.567811452E-1
4.103643505E0,-8.761875331E-2,-1.531720161E-3,-2.701520920E-1,2.840097620E-1
4.108643505E0,-3.849585354E-2,-1.223003864E-2,-2.866802216E-1,2.895117511E-1
4.113643505E0,-3.592871130E-3,-2.948093414E-2,-3.066873550E-1,3.081220017E-1
4.118643505E0,5.441680551E-2,-6.874728203E-2,-2.923507690E-1,3.052152514E-1
4.123643505E0,9.502041340E-2,-8.054602146E-2,-2.665796280E-1,2.942469007E-1
4.128643505E0,1.083820388E-1,-9.933757782E-2,-2.031526566E-1,2.507700591E-1
4.133643505E0,9.268344194E-2,-1.082948446E-1,-1.566171646E-1,2.117709377E-1
4.138643505E0,8.981622756E-2,-1.146302223E-1,-1.319923401E-1,1.965426683E-1
4.143643505E0,8.148035407E-2,-1.111031771E-1,-8.267402649E-2,1.606796773E-1
4.148643505E0,8.570348471E-2,-7.332277298E-2,-3.154945374E-2,1.171182495E-1
4.153643505E0,7.435168326E-2,-3.128135204E-2,-6.661415100E-3,8.093868198E-2
4.158643505E0,2.972536534E-2,1.857745647E-2,1.453971863E-2,3.794894796E-2
4.163643505E0,-1.504214108E-2,5.012464523E-2,2.262783051E-2,5.701547844E-2
4.168643505E0,-6.905204058E-2,6.013739109E-2,-7.421493530E-3,9.186821366E-2
4.173643505E0,-1.112799346E-1,5.381417274E-2,-6.166648865E-2,1.381374130E-1
4.178643505E0,-1.639871597E-1,5.026531219E-2,-1.359844208E-1,2.188838799E-1
4.183643505E0,-1.781369895E-1,6.603324413E-2,-1.739559174E-1,2.575923864E-1
4.188643505E0,-1.727817655E-1,5.508100986E-2,-2.116231918E-1,2.786966657E-1
4.193643505E0,-1.478092521E-1,7.940256596E-2,-2.463397980E-1,2.980530801E-1
4.198643505E0,-1.351641417E-1,6.899130344E-2,-2.672443390E-1,3.073250427E-1
4.203643505E0,-1.743490547E-1,3.320419788E-2,-2.817840576E-1,3.330200696E-1
4.208643505E0,-2.195817679E-1,-2.193737030E-2,-2.793550491E-1,3.560009052E-1
4.213643505E0,-2.178985327E-1,-6.928801537E-2,-2.475233078E-1,3.369694163E-1
4.218643505E0,-1.763373017E-1,-9.832656384E-2,-1.817846298E-1,2.716773984E-1
4.223643505E0,-9.212522209E-2,-1.008392572E-1,-1.498308182E-1,2.027434004E-1
4.228643505E0,-2.133947611E-2,-1.095902920E-1,-1.286592484E-1,1.703484885E-1
4.233643505E0,4.138251394E-2,-1.155804396E-1,-1.391534805E-1,1.855668117E-1
4.238643505E0,1.190555468E-1,-1.359974146E-1,-1.207256317E-1,2.173573053E-1
4.243643505E0,1.624930352E-1,-1.251763105E-1,-1.234836578E-1,2.394186897E-1
4.248643505E0,1.746760756E-1,-1.045838594E-1,-1.335411072E-1,2.434804763E-1
4.253643505E0,1.700419486E-1,-9.623205662E-2,-1.585092545E-1,2.515950253E-1
4.258643505E0,2.031417191E-1,-8.715152740E-2,-2.258596420E-1,3.160293098E-1
4.263643505E0,1.936931312E-1,-5.703294277E-2,-2.799406052E-1,3.451615970E-1
4.268643505E0,1.990774274E-1,-4.158353806E-2,-2.892160416E-1,3.535631930E-1
4.273643505E0,1.790420413E-1,-1.773715019E-3,-3.172426224E-1,3.642829670E-1
4.278643505E0,1.397454143E-1,2.469503880E-2,-3.026103973E-1,3.342329701E-1
4.283643505E0,8.740457892E-2,7.112181187E-2,-2.757978439E-1,2.979300644E-1
4.288643505E0,2.301997691E-2,8.061492443E-2,-2.661151886E-1,2.790089228E-1
4.293643505E0,-6.727220118E-2,6.151092052E-2,-2.538032532E-1,2.696761645E-1
4.298643505E0,-1.340122521E-1,6.023180485E-2,-2.744789124E-1,3.113291303E-1
4.303643505E0,-1.560828686E-1,5.314624310E-2,-2.942781448E-1,3.373218219E-1
4.308643505E0,-1.480350941E-1,2.927649021E-2,-2.991933823E-1,3.350942882E-1
4.313643505E0,-1.813418716E-1,-5.089116096E-2,-3.623466492E-1,4.083746795E-1
4.318643505E0,-1.513486803E-1,-1.254820824E-1,-4.039011002E-1,4.492084980E-1
4.323643505E0,-7.911708951E-2,-1.824883223E-1,-4.669952393E-1,5.075884702E-1
4.328643505E0,7.426576316E-2,-1.690859795E-1,-4.711713791E-1,5.060710825E-1
4.333643505E0,2.251211703E-1,-1.061668396E-1,-4.527502060E-1,5.166562573E-1
4.338643505E0,2.914182544E-1,-4.187893867E-2,-4.038686752E-1,4.997883065E-1
4.343643505E0,2.716324925E-1,-1.327526569E-2,-2.929458618E-1,3.997220555E-1
4.348643505E0,2.145770639E-1,7.778644562E-3,-1.847209930E-1,2.832413616E-1
4.353643505E0,1.514335275E-1,-1.063728333E-2,-1.162014008E-1,1.911753922E-1
4.358643505E0,9.288866818E-2,-9.389519691E-3,-7.620620728E-2,1.205149525E-1
4.363643505E0,5.907637626E-2,-1.602399349E-2,-6.737709045E-2,9.102998911E-2
4.368643505E0,4.467630014E-2,-1.824855804E-2,-5.838298798E-2,7.574664976E-2
4.373643505E0,-2.378031611E-3,-4.182827473E-2,-6.446552277E-2,7.688343922E-2
4.378643505E0,-6.868293136E-2,-6.705570221E-2,-7.875347137E-2,1.241608695E-1
4.383643505E0,-1.285270751E-1,-1.174741983E-1,-7.984638214E-2,1.915589754E-1
4.388643505E0,-1.646758914E-1,-1.463948488E-1,-4.646873474E-2,2.251864656E-1
4.393643505E0,-1.629551351E-1,-1.200988293E-1,4.088783264E-2,2.065185699E-1
4.398643505E0,-1.573254466E-1,-8.012211323E-2,1.152429581E-1,2.108359281E-1
4.403643505E0,-1.519528627E-1,-2.600812912E-2,1.992187500E-1,2.519011823E-1
4.408643505E0,-1.979334205E-1,-1.343321800E-2,3.008604050E-1,3.603818441E-1
4.413643505E0,-2.441187352E-1,-4.875898361E-2,3.432884216E-1,4.240499213E-1
4.418643505E0,-2.572898269E-1,-7.887065411E-2,3.588056564E-1,4.485087894E-1
4.423643505E0,-2.251141965E-1,-7.503783703E-2,3.673744202E-1,4.373454505E-1
4.428643505E0,-1.756508648E-1,-6.719374657E-2,3.511590958E-1,3.983477582E-1
4.433643505E0,-1.310272813E-1,-7.132756710E-2,3.240280151E-1,3.567210743E-1
4.438643505E0,-5.162966251E-2,-4.209792614E-2,3.016014099E-1,3.088709567E-1
4.443643505E0,2.515998483E-2,2.758622169E-3,2.378807068E-1,2.392234635E-1
4.448643505E0,1.149278507E-1,5.778431892E-2,1.732072830E-1,2.157503216E-1
4.453643505E0,1.170606911E-1,1.264121532E-1,7.990646362E-2,1.899165101E-1
4.458643505E0,5.236738920E-2,1.444562674E-1,-2.352046967E-2,1.554450679E-1
4.463643505E0,-4.770140350E-2,1.261600256E-1,-1.637172699E-1,2.121205328E-1
4.468643505E0,-1.185818017E-1,1.016306877E-1,-2.541322708E-1,2.982845142E-1
4.473643505E0,-1.489934623E-1,6.398463249E-2,-3.123636246E-1,3.519433462E-1
4.478643505E0,-1.853872538E-1,1.135957241E-2,-3.852224350E-1,4.276608448E-1
4.483643505E0,-1.373142451E-1,-3.814184666E-2,-4.407453537E-1,4.632132006E-1
4.488643505E0,-4.056426138E-2,-7.487761974E-2,-4.506263733E-1,4.586024919E-1
4.493643505E0,3.732001036E-2,-1.171967983E-1,-4.550323486E-1,4.713621867E-1
4.498643505E0,1.045236960E-1,-1.504203081E-1,-4.361667633E-1,4.730675613E-1
4.503643505E0,1.654392630E-1,-1.866723299E-1,-4.487419128E-1,5.134062844E-1
4.508643505E0,2.773182988E-1,-1.677441597E-1,-4.568042755E-1,5.601014980E-1
4.513643505E0,3.496951759E-1,-5.420589447E-2,-3.660259247E-1,5.091168555E-1
4.518643505E0,3.986163437E-1,7.050788403E-2,-3.344011307E-1,5.250623462E-1
4.523643505E0,3.327778578E-1,1.599489450E-1,-3.282184601E-1,4.940163208E-1
4.528643505E0,1.931968182E-1,1.215482950E-1,-3.658514023E-1,4.312148503E-1
4.533643505E0,5.790159479E-2,8.141052723E-2,-4.073858261E-1,4.194561717E-1
4.538643505E0,-2.885930985E-2,4.125571251E-2,-4.369716644E-1,4.398626253E-1
4.543643505E0,-5.429737270E-2,2.198696136E-2,-4.958400726E-1,4.992885026E-1
4.548643505E0,-3.922705352E-2,4.544496536E-3,-5.130195618E-1,5.145371560E-1
4.553643505E0,4.035852849E-3,1.777744293E-2,-5.087089539E-1,5.090354853E-1
4.558643505E0,7.163388282E-2,-6.006479263E-3,-4.764451981E-1,4.818376466E-1
4.563643505E0,1.053974405E-1,3.482890129E-2,-3.959989548E-1,4.112625013E-1
4.568643505E0,7.768942416E-2,4.468703270E-2,-2.834215164E-1,2.972546610E-1
4.573643505E0,-6.456084549E-3,2.150559425E-2,-1.751728058E-1,1.766060121E-1
4.578643505E0,-1.101113707E-1,-3.530764580E-2,-7.483768463E-2,1.377382403E-1
4.583643505E0,-1.722836047E-1,-1.111015081E-1,1.199054718E-2,2.053508188E-1
4.588643505E0,-1.960248202E-1,-1.668282747E-1,5.875110626E-2,2.640248016E-1
4.593643505E0,-1.342088580E-1,-1.648828983E-1,9.991931915E-2,2.349090421E-1
4.598643505E0,-7.111920416E-2,-1.459796429E-1,1.450672150E-1,2.177441025E-1
4.603643505E0,8.187443018E-5,-1.113904715E-1,1.464023590E-1,1.839605788E-1
4.608643505E0,-1.296774298E-2,-1.204106808E-1,1.560869217E-1,1.975601719E-1
4.613643505E0,-3.291854262E-2,-1.416435242E-1,1.445102692E-1,2.050115516E-1
4.618643505E0,-5.181135237E-2,-1.277291775E-1,1.560707092E-1,2.082239787E-1
4.623643505E0,-3.220638633E-2,-4.870152473E-2,1.907873154E-1,1.995216518E-1
4.628643505E0,-3.414762020E-2,4.053175449E-2,2.213010788E-1,2.275588947E-1
4.633643505E0,-6.876339018E-2,9.138798714E-2,2.705268860E-1,2.937089785E-1
4.638643505E0,-1.355267167E-1,1.378471851E-1,2.867107391E-1,3.457924021E-1
4.643643505E0,-1.675087363E-1,1.652681828E-1,2.886962891E-1,3.724490519E-1
4.648643505E0,-2.223855257E-1,1.769539118E-1,2.610616684E-1,3.859031014E-1
4.653643505E0,-2.958943248E-1,1.376565695E-1,1.985092163E-1,3.819799622E-1
4.658643505E0,-3.691163659E-1,4.580724239E-2,1.465339661E-1,3.997716826E-1
4.663643505E0,-3.749416471E-1,-2.971422672E-2,1.111583710E-1,3.921993848E-1
4.668643505E0,-2.763819695E-1,3.452098370E-2,7.279682159E-2,2.878855130E-1
4.673643505E0,-1.630754024E-1,1.336400509E-1,3.670978546E-2,2.140113511E-1
4.678643505E0,-1.361561120E-1,1.748988628E-1,-1.017570496E-2,2.218820498E-1
4.683643505E0,-1.662798524E-1,1.407995224E-1,-4.376029968E-2,2.222351427E-1
4.688643505E0,-2.156006396E-1,9.500181675E-2,-6.004142761E-2,2.431336135E-1
4.693643505E0,-2.134630382E-1,6.579554081E-2,-1.395034790E-1,2.633566831E-1
4.698643505E0,-1.992792636E-1,6.077623367E-2,-1.575555801E-1,2.612082241E-1
4.703643505E0,-1.628739685E-1,8.270740509E-4,-1.643781662E-1,2.314061261E-1
4.708643505E0,-1.114933193E-1,-3.795254230E-2,-1.558370590E-1,1.953364909E-1
4.713643505E0,1.477688551E-3,-3.368771076E-2,-1.475553513E-1,1.513592650E-1
4.718643505E0,1.596812010E-1,3.102219105E-2,-1.008920670E-1,1.914149196E-1
4.723643505E0,2.350374907E-1,1.264621019E-1,-8.739185333E-2,2.808426985E-1
4.728643505E0,1.922579110E-1,1.387480497E-1,-6.543540955E-2,2.459591805E-1
4.733643505E0,7.878880948E-2,8.402645588E-2,-8.453464508E-2,1.428783679E-1
4.738643505E0,-1.796409488E-2,2.346360683E-2,-1.488447189E-1,1.517497938E-1
4.743643505E0,-6.608226895E-2,1.255023479E-2,-2.204275131E-1,2.304618476E-1
4.748643505E0,-7.333298028E-2,5.020153522E-2,-2.812366486E-1,2.949440161E-1
4.753643505E0,-1.195861995E-1,3.300476074E-2,-2.990808487E-1,3.237893256E-1
4.758643505E0,-1.648843884E-1,-3.138196468E-2,-2.950201035E-1,3.394238511E-1
4.763643505E0,-1.438655853E-1,-1.118576527E-1,-2.896213531E-1,3.421841161E-1
4.768643505E0,-3.051369637E-2,-1.340031624E-1,-2.604436874E-1,2.944806403E-1
4.773643505E0,8.930778503E-2,-1.200091839E-1,-2.050838470E-1,2.538453644E-1
4.778643505E0,1.741085052E-1,-1.472754478E-1,-1.770248413E-1,2.886894934E-1
4.783643505E0,2.559902668E-1,-1.736959219E-1,-1.376428604E-1,3.385954031E-1
4.788643505E0,3.239563704E-1,-1.767547131E-1,-1.113424301E-1,3.854699667E-1
4.793643505E0,3.790799379E-1,-1.371307373E-1,-1.560392380E-1,4.322669109E-1
4.798643505E0,3.692232966E-1,-7.763171196E-2,-2.578125000E-1,4.569680630E-1
4.803643505E0,2.687800527E-1,-4.648292065E-2,-3.337049484E-1,4.310015907E-1
4.808643505E0,1.193136349E-1,-6.293964386E-2,-4.377450943E-1,4.580588497E-1
4.813643505E0,4.296728969E-2,-3.273677826E-2,-5.020465851E-1,5.049442130E-1
4.818643505E0,2.090124786E-2,1.902842522E-2,-5.165376663E-1,5.173104521E-1
4.823643505E0,1.174169779E-2,7.299792767E-2,-4.592247009E-1,4.651385717E-1
4.828643505E0,3.393671662E-2,8.917665482E-2,-3.508691788E-1,3.636115470E-1
4.833643505E0,3.640723974E-2,6.976604462E-2,-2.292442322E-1,2.423751350E-1
4.838643505E0,6.520451605E-2,3.300750256E-2,-4.504680634E-2,8.585067792E-2
4.843643505E0,1.091755405E-1,7.428288460E-3,1.097888947E-1,1.550099336E-1
4.848643505E0,1.754033267E-1,-1.840591431E-2,2.475605011E-1,3.039593828E-1
4.853643505E0,2.353933305E-1,-3.414618969E-2,3.940992355E-1,4.603153156E-1
4.858643505E0,3.030546904E-1,-1.694715023E-2,4.705572128E-1,5.599584286E-1
4.863643505E0,3.550902903E-1,6.410241127E-2,5.455217361E-1,6.540582528E-1
4.868643505E0,3.414028585E-1,9.539198875E-2,5.652351379E-1,6.671928540E-1
4.873643505E0,2.576578259E-1,7.888913155E-2,5.610008240E-1,6.223608076E-1
4.878643505E0,1.575456411E-1,4.563069344E-2,5.107088089E-1,5.364012273E-1
4.883643505E0,4.119445384E-2,-2.402782440E-3,4.848814011E-1,4.866340817E-1
4.888643505E0,-4.980686307E-2,9.060263634E-3,4.607124329E-1,4.634854451E-1
4.893643505E0,-8.186605573E-2,5.439984798E-2,4.990587234E-1,5.086462464E-1
4.898643505E0,-6.618903577E-2,1.197907925E-1,5.406131744E-1,5.576678463E-1
4.903643505E0,-4.989372194E-2,1.595408916E-1,6.137361526E-1,6.360933459E-1
4.908643505E0,-8.037213981E-2,2.187972069E-1,7.517919540E-1,7.870978597E-1
4.913643505E0,-1.238739938E-1,2.306094170E-1,8.459005356E-1,8.854790712E-1
4.918643505E0,-2.011605054E-1,2.617819309E-1,9.982595444E-1,1.051435897E0
4.923643505E0,-2.619767785E-1,2.720650434E-1,1.101346016E0,1.164308493E0
4.928643505E0,-3.271681070E-1,2.686909437E-1,1.161831856E0,1.236562596E0
4.933643505E0,-3.930751681E-1,2.409915924E-1,1.217168808E0,1.301570183E0
4.938643505E0,-4.321628809E-1,2.048528194E-1,1.206479073E0,1.297814003E0
4.943643505E0,-3.620277941E-1,2.080680132E-1,1.251336098E0,1.319165816E0
4.948643505E0,-2.944352329E-1,2.144861221E-1,1.278154373E0,1.329050415E0
4.953643505E0,-2.619259357E-1,1.664925814E-1,1.321627617E0,1.357580397E0
4.958643505E0,-2.495269179E-1,9.044587612E-2,1.348573685E0,1.374443568E0
4.963643505E0,-1.836398244E-1,1.916074753E-2,1.362310410E0,1.374765570E0
4.968643505E0,-7.017484307E-2,4.627060890E-2,1.429725647E0,1.432194436E0
4.973643505E0,5.608797073E-3,8.252286911E-2,1.439142227E0,1.441517198E0
4.978643505E0,-3.124237061E-3,7.711231709E-2,1.460008621E0,1.462046936E0
4.983643505E0,-4.720395803E-2,2.424871922E-2,1.464240074E0,1.465201423E0
4.988643505E0,-9.865939617E-3,1.466262341E-2,1.459351540E0,1.459458545E0
4.993643505E0,4.850649834E-2,7.322156429E-2,1.401234627E0,1.403984600E0
4.998643505E0,6.973575056E-2,1.420485973E-1,1.275277138E0,1.285057453E0
5.003643505E0,-2.357631922E-3,1.104501486E-1,1.115422249E0,1.120879827E0
5.008643505E0,-3.818678856E-2,3.217136860E-2,9.705114365E-1,9.717950793E-1
5.013643505E0,2.479724586E-2,1.154589653E-2,7.711277008E-1,7.716126892E-1
5.018643505E0,7.843741775E-2,5.375337601E-2,5.946378708E-1,6.021927028E-1
5.023643505E0,7.095950842E-2,7.785105705E-2,4.202108383E-1,4.332126355E-1
5.028643505E0,2.229113877E-2,1.364922523E-2,2.952194214E-1,2.963742617E-1
5.033643505E0,9.186074138E-3,-5.986440182E-2,2.077817917E-1,2.164287493E-1
5.038643505E0,4.042288661E-2,-7.956922054E-2,1.320304871E-1,1.593653668E-1
5.043643505E0,6.842783093E-2,-6.452500820E-2,1.218872070E-1,1.539556299E-1
5.048643505E0,6.350085139E-2,-5.194973946E-2,1.176128387E-1,1.434012322E-1
5.053643505E0,3.277844191E-2,-9.955883026E-2,1.228256226E-1,1.614698749E-1
5.058643505E0,1.626013219E-2,-1.223359108E-1,2.207250595E-1,2.528834096E-1
5.063643505E0,3.329187632E-2,-8.723700047E-2,3.067378998E-1,3.206349676E-1
5.068643505E0,7.157142460E-2,-8.639097214E-3,4.032983780E-1,4.096909622E-1
5.073643505E0,1.013898849E-1,6.422674656E-2,5.001182556E-1,5.143182413E-1
5.078643505E0,1.224096864E-1,1.356742382E-1,5.455617905E-1,5.753514556E-1
5.083643505E0,9.859427810E-2,1.918977499E-1,6.349744797E-1,6.706252068E-1
5.088643505E0,6.196054816E-2,2.481590509E-1,6.599073410E-1,7.077426953E-1
5.093643505E0,-1.934719086E-2,2.489544153E-1,6.871404648E-1,7.311050766E-1
5.098643505E0,-1.115866899E-1,2.171561718E-1,7.022228241E-1,7.434549664E-1
5.103643505E0,-2.077024877E-1,1.880402565E-1,7.604932785E-1,8.104625149E-1
5.108643505E0,-2.179563642E-1,1.765587330E-1,7.878513336E-1,8.362940193E-1
5.113643505E0,-1.888176501E-1,1.617387533E-1,8.225440979E-1,8.592964112E-1
5.118643505E0,-1.164902151E-1,1.482355595E-1,8.717288971E-1,8.918828518E-1
5.123643505E0,-7.458239794E-2,1.252515316E-1,9.314155579E-1,9.427541682E-1
5.128643505E0,-5.090266466E-2,5.186045170E-2,9.874315262E-1,9.901018163E-1
5.133643505E0,-4.873695970E-2,-2.404868603E-2,1.007732391E0,1.009196811E0
5.138643505E0,3.633111715E-3,-6.952655315E-2,1.026160240E0,1.028519314E0
5.143643505E0,9.975513816E-2,-3.540456295E-2,1.068735123E0,1.073964307E0
5.148643505E0,1.714874506E-1,4.975664616E-2,1.084574699E0,1.099175122E0
5.153643505E0,1.272608340E-1,9.554135799E-2,1.102997780E0,1.114418042E0
5.158643505E0,3.167641163E-2,2.960062027E-2,1.080816269E0,1.081685444E0
5.163643505E0,-6.367856264E-2,1.343011856E-3,1.014684677E0,1.016681738E0
5.168643505E0,-1.151059866E-1,-1.874172688E-2,9.509391785E-1,9.580636522E-1
5.173643505E0,-1.887205541E-1,-2.602612972E-2,8.676156998E-1,8.882847570E-1
5.178643505E0,-2.390161753E-1,-6.941282749E-2,7.743825912E-1,8.133973631E-1
5.183643505E0,-1.889183223E-1,-1.098184586E-1,7.097396851E-1,7.426174297E-1
5.188643505E0,-4.851600528E-2,-6.836533546E-2,6.729049683E-1,6.781067159E-1
5.193643505E0,1.344575286E-1,8.900654316E-2,6.818561554E-1,7.006631205E-1
5.198643505E0,2.723121643E-1,2.669064999E-1,6.783533096E-1,7.781749207E-1
5.203643505E0,3.022797108E-1,4.003152847E-1,6.977691650E-1,8.593643921E-1
5.208643505E0,1.921799779E-1,3.803100586E-1,6.664714813E-1,7.910455865E-1
5.213643505E0,1.478925347E-2,2.838572264E-1,6.148386002E-1,6.773626438E-1
5.218643505E0,-6.443586946E-2,2.206939459E-1,5.439634323E-1,5.905539897E-1
5.223643505E0,-5.676406622E-2,2.034161091E-1,4.589071274E-1,5.051693025E-1
5.228643505E0,-2.412539721E-2,1.587510109E-1,3.281106949E-1,3.652951496E-1
5.233643505E0,-1.289287210E-2,2.521491051E-2,2.084760666E-1,2.103907988E-1
5.238643505E0,-6.498932838E-3,-1.245238781E-1,1.286973953E-1,1.791966850E-1
5.243643505E0,1.203674823E-1,-1.911698580E-1,8.929920197E-2,2.429168435E-1
5.248643505E0,2.555207908E-1,-1.341879368E-1,5.491065979E-2,2.937898185E-1
5.253643505E0,3.016725481E-1,-3.462243080E-2,4.168796539E-2,3.065011018E-1
5.258643505E0,2.180122584E-1,2.061033249E-2,6.650257111E-2,2.288596133E-1
5.263643505E0,9.730610251E-2,4.119884968E-2,1.170568466E-1,1.576963162E-1
5.268643505E0,-2.014428377E-3,9.002530575E-2,1.350488663E-1,1.623170043E-1
5.273643505E0,-1.515822262E-1,1.856299639E-1,1.437034607E-1,2.794393304E-1
5.278643505E0,-2.987973094E-1,2.159879208E-1,1.480150223E-1,3.972896435E-1
5.283643505E0,-4.280849695E-1,2.072323561E-1,1.522636414E-1,4.993858298E-1
5.288643505E0,-5.092805028E-1,1.358052492E-1,1.365451813E-1,5.444761545E-1
5.293643505E0,-4.832683802E-1,5.529999733E-2,1.170635223E-1,5.003101890E-1
5.298643505E0,-3.724032640E-1,-1.044690609E-2,7.683372498E-2,3.803902604E-1
5.303643505E0,-2.311333418E-1,-1.698374748E-2,7.402133942E-2,2.432904192E-1
5.308643505E0,-1.016352326E-1,3.503501415E-2,1.227626801E-1,1.631804165E-1
5.313643505E0,4.327584803E-2,1.287169456E-1,1.985883713E-1,2.405788692E-1
5.318643505E0,8.752408624E-2,2.240474224E-1,2.787084579E-1,3.681523023E-1
5.323643505E0,-7.399022579E-4,2.745002508E-1,3.254375458E-1,4.257470274E-1
5.328643505E0,-1.079328805E-1,2.593392134E-1,3.406915665E-1,4.415620882E-1
5.333643505E0,-2.510870695E-1,2.144962549E-1,3.668899536E-1,4.936209051E-1
5.338643505E0,-3.932901919E-1,1.434601545E-1,3.773555756E-1,5.636091034E-1
5.343643505E0,-4.823756814E-1,7.131588459E-2,3.353548050E-1,5.918066396E-1
5.348643505E0,-4.674682319E-1,-6.041646004E-3,2.875766754E-1,5.488746611E-1
5.353643505E0,-3.595334589E-1,-5.155813694E-2,2.521352768E-1,4.421478796E-1
5.358643505E0,-2.093114853E-1,-2.486515045E-2,2.883129120E-1,3.571469009E-1
5.363643505E0,-3.851211071E-2,1.703357697E-2,3.472604752E-1,3.498044640E-1
5.368643505E0,1.051176637E-1,5.195307732E-2,4.408693314E-1,4.561958053E-1
5.373643505E0,1.796464324E-1,1.016244888E-1,5.649518967E-1,6.014740418E-1
5.378643505E0,2.165921032E-1,1.631172895E-1,6.869173050E-1,7.384949379E-1
5.383643505E0,1.845755875E-1,2.011619806E-1,7.852935791E-1,8.313965933E-1
5.388643505E0,1.238205433E-1,2.129237652E-1,8.529415131E-1,8.877934903E-1
5.393643505E0,5.726997554E-2,1.948807240E-1,9.208002090E-1,9.429376287E-1
5.398643505E0,5.847838521E-2,1.967170238E-1,9.721632004E-1,9.935887465E-1
5.403643505E0,4.489193857E-2,2.127062082E-1,9.579086304E-1,9.822668483E-1
5.408643505E0,3.074854612E-3,1.742826700E-1,9.111995697E-1,9.277222427E-1
5.413643505E0,1.072135568E-2,1.486566067E-1,8.459510803E-1,8.589801886E-1
5.418643505E0,6.582576036E-2,1.314480305E-1,8.020334244E-1,8.153951369E-1
5.423643505E0,1.205325127E-1,1.219532490E-1,7.528085709E-1,7.720890013E-1
5.428643505E0,1.522851288E-1,7.482337952E-2,6.606903076E-1,6.821297392E-1
5.433643505E0,1.530423313E-1,1.992297173E-2,5.926322937E-1,6.123984941E-1
5.438643505E0,1.814001799E-1,-2.215027809E-2,5.341587067E-1,5.645548547E-1
5.443643505E0,1.675720215E-1,-4.231989384E-2,5.049772263E-1,5.337352854E-1
5.448643505E0,1.079758108E-1,-9.379684925E-2,4.832582474E-1,5.039793233E-1
5.453643505E0,5.019658804E-2,-1.900306940E-1,3.733911514E-1,4.219624558E-1
5.458643505E0,7.467748225E-2,-2.240234613E-1,2.883930206E-1,3.727382083E-1
5.463643505E0,1.009197682E-1,-2.396212816E-1,2.804956436E-1,3.824669454E-1
5.468643505E0,1.309177876E-1,-2.156616449E-1,2.638683319E-1,3.650697314E-1
5.473643505E0,1.666693687E-1,-1.823282242E-1,2.274703979E-1,3.358050651E-1
5.478643505E0,1.992433965E-1,-1.330138445E-1,1.980085373E-1,3.108021794E-1
5.483643505E0,2.176726162E-1,-6.086158752E-2,1.981334686E-1,3.005700785E-1
5.488643505E0,1.758002490E-1,1.125299931E-2,2.264537811E-1,2.869035945E-1
5.493643505E0,1.021086872E-1,2.988946438E-2,2.141885757E-1,2.391575005E-1
5.498643505E0,1.213367283E-2,2.217137814E-2,1.616048813E-1,1.635693543E-1
5.503643505E0,-2.521440387E-2,3.548622131E-2,1.082839966E-1,1.167067349E-1
5.508643505E0,-3.681954741E-2,7.714021206E-2,7.338523865E-2,1.126573772E-1
5.513643505E0,-5.681538582E-2,1.159837246E-1,5.171108246E-2,1.391195475E-1
5.518643505E0,-8.042135835E-2,1.109194756E-1,4.859256744E-2,1.453683685E-1
5.523643505E0,-8.289635181E-2,1.044951677E-1,4.472637177E-2,1.406822432E-1
5.528643505E0,-4.869937897E-2,1.048971415E-1,1.494789124E-2,1.166125176E-1
5.533643505E0,-6.078532338E-2,1.149444580E-1,-1.420974731E-4,1.300273208E-1
5.538643505E0,-1.277796626E-1,6.108844280E-2,-1.196861267E-3,1.416364095E-1
5.543643505E0,-1.672257632E-1,7.545113564E-3,-1.685523987E-2,1.682423363E-1
5.548643505E0,-1.569386870E-1,-7.984280586E-3,-2.780914307E-2,1.595833595E-1
5.553643505E0,-1.120206118E-1,4.173755646E-2,-1.363182068E-2,1.203181932E-1
5.558643505E0,-1.096581370E-1,8.280968666E-2,1.497173309E-2,1.382262783E-1
5.563643505E0,-1.313378066E-1,1.312955618E-1,3.743553162E-2,1.894454091E-1
5.568643505E0,-1.315808296E-1,1.765819788E-1,6.772327423E-2,2.303934718E-1
5.573643505E0,-1.552591175E-1,2.281622887E-1,1.040267944E-1,2.949321913E-1
5.578643505E0,-2.175639272E-1,2.425774336E-1,9.838390350E-2,3.403781223E-1
5.583643505E0,-2.891329527E-1,2.382490635E-1,1.092290878E-1,3.902454026E-1
5.588643505E0,-3.047899306E-1,2.276070118E-1,1.363201141E-1,4.040854206E-1
5.593643505E0,-2.953918874E-1,2.299015522E-1,1.533470154E-1,4.045075994E-1
5.598643505E0,-2.499790490E-1,2.192858458E-1,1.754608154E-1,3.759817879E-1
5.603643505E0,-2.604941130E-1,1.689934731E-1,2.058305740E-1,3.725348333E-1
5.608643505E0,-2.499489486E-1,1.398226023E-1,2.604475021E-1,3.871146321E-1
5.613643505E0,-2.282755077E-1,1.076587439E-1,3.196220398E-1,4.072571189E-1
5.618643505E0,-2.156893015E-1,7.877349854E-2,4.052066803E-1,4.657462749E-1
5.623643505E0,-1.863335073E-1,4.097974300E-2,4.775247574E-1,5.142270016E-1
5.628643505E0,-1.499045193E-1,6.112098694E-3,5.088510513E-1,5.305074129E-1
5.633643505E0,-8.714461327E-2,7.175207138E-4,5.517702103E-1,5.586099385E-1
5.638643505E0,-2.196815610E-2,2.725708485E-2,5.560703278E-1,5.571712106E-1
5.643643505E0,3.673255444E-2,7.035183907E-2,5.643119812E-1,5.698654876E-1
5.648643505E0,8.932147920E-2,9.789323807E-2,5.502634048E-1,5.659957839E-1
5.653643505E0,1.282234490E-1,1.216652393E-1,5.210037231E-1,5.501713941E-1
5.658643505E0,1.673012078E-1,1.471601725E-1,4.939947128E-1,5.419193545E-1
5.663643505E0,1.920079440E-1,1.637452841E-1,4.366302490E-1,5.043069928E-1
5.668643505E0,1.967768371E-1,2.152048349E-1,3.882799149E-1,4.855878261E-1
5.673643505E0,2.207176685E-1,2.499856949E-1,3.107585907E-1,4.558289576E-1
5.678643505E0,1.981089413E-1,2.466194630E-1,2.819938660E-1,4.237792498E-1
5.683643505E0,1.059113294E-1,1.656950712E-1,2.204694748E-1,2.954299505E-1
5.688643505E0,3.188362718E-2,4.730165005E-2,1.783332825E-1,1.872345359E-1
5.693643505E0,4.866795242E-2,-4.666352272E-2,1.409339905E-1,1.562320185E-1
5.698643505E0,8.774805069E-2,-8.707702160E-2,1.184940338E-1,1.712394935E-1
5.703643505E0,1.384147704E-1,-1.018649340E-1,1.230926514E-1,2.113927961E-1
5.708643505E0,1.769570708E-1,-1.453714371E-1,1.527233124E-1,2.752654533E-1
5.713643505E0,2.160730660E-1,-1.600365639E-1,1.995496750E-1,3.348422680E-1
5.718643505E0,2.440718859E-1,-1.609443426E-1,2.501964569E-1,3.848018113E-1
5.723643505E0,2.088007182E-1,-2.084625959E-1,2.531042099E-1,3.887365881E-1
5.728643505E0,1.326403618E-1,-2.841413021E-1,1.970243454E-1,3.703354396E-1
5.733643505E0,8.319504559E-2,-3.700983524E-1,1.851501465E-1,4.221075489E-1
5.738643505E0,1.077371538E-1,-3.747751117E-1,1.780300140E-1,4.286704615E-1
5.743643505E0,1.532163620E-1,-3.272009492E-1,1.901073456E-1,4.082603551E-1
5.748643505E0,2.001090795E-1,-2.614403367E-1,1.718645096E-1,3.713921149E-1
5.753643505E0,2.642894983E-1,-1.697862148E-1,1.390085220E-1,3.435107959E-1
5.758643505E0,3.005027771E-1,-8.002912998E-2,1.347589493E-1,3.389196883E-1
5.763643505E0,3.134701848E-1,1.808965206E-2,1.315755844E-1,3.404451890E-1
5.768643505E0,1.918324232E-1,5.533337593E-2,1.580324173E-1,2.546285648E-1
5.773643505E0,3.412510455E-2,3.757381439E-2,1.421079636E-1,1.509005885E-1
5.778643505E0,-4.843306541E-2,-2.104282379E-3,1.317100525E-1,1.403485937E-1
5.783643505E0,-3.204277158E-2,1.514446735E-2,1.255569458E-1,1.304631777E-1
5.788643505E0,-1.225519180E-2,5.379867554E-2,1.122159958E-1,1.250476586E-1
5.793643505E0,-1.694917679E-2,4.561305046E-2,8.164978027E-2,9.505004779E-2
5.798643505E0,-4.943203926E-2,-2.698504925E-2,8.090019226E-2,9.857261535E-2
5.803643505E0,-5.793812871E-2,-9.674191475E-2,8.010196686E-2,1.383190150E-1
5.808643505E0,-5.368494987E-2,-1.274212599E-1,9.650039673E-2,1.686136942E-1
5.813643505E0,-8.657392859E-2,-1.052874327E-1,1.532773972E-1,2.051205720E-1
5.818643505E0,-9.830564260E-2,-7.184708118E-2,1.863327026E-1,2.225890350E-1
5.823643505E0,-1.147410870E-1,-5.793988705E-2,2.341070175E-1,2.670742279E-1
5.828643505E0,-7.599139214E-2,-2.235937119E-2,2.962884903E-1,3.066944777E-1
5.833643505E0,-4.456385970E-2,6.736600399E-2,3.484773636E-1,3.577157936E-1
5.838643505E0,-2.244243026E-2,1.936094761E-1,3.953008652E-1,4.407392267E-1
5.843643505E0,-4.582124949E-2,2.877277136E-1,4.237318039E-1,5.142328905E-1
5.848643505E0,-1.249395907E-1,2.916312218E-1,4.444646835E-1,5.460838083E-1
5.853643505E0,-2.462723255E-1,2.428685427E-1,4.090423584E-1,5.356779240E-1
5.858643505E0,-3.060470819E-1,1.693402529E-1,3.209037781E-1,4.746790204E-1
5.863643505E0,-2.856209278E-1,1.388472319E-1,2.690219879E-1,4.162099208E-1
5.868643505E0,-1.903677881E-1,1.372573376E-1,1.833248138E-1,2.978043969E-1
5.873643505E0,-1.021312177E-1,1.357101202E-1,1.280021667E-1,2.126795172E-1
5.878643505E0,-8.523738384E-2,1.165488958E-1,9.859752655E-2,1.748442992E-1
5.883643505E0,-1.028311551E-1,1.044511795E-1,1.089792252E-1,1.826493002E-1
5.888643505E0,-1.030474603E-1,8.445310593E-2,1.407699585E-1,1.938228247E-1
5.893643505E0,-1.269694567E-1,1.288652420E-1,2.012958527E-1,2.706427790E-1
5.898643505E0,-1.460359097E-1,1.629192829E-1,2.719087601E-1,3.490036582E-1
5.903643505E0,-1.911450028E-1,1.617538929E-1,3.097877502E-1,3.983330066E-1
5.908643505E0,-2.450464666E-1,1.203582287E-1,3.332290649E-1,4.307847301E-1
5.913643505E0,-3.027841449E-1,6.443858147E-2,3.361024857E-1,4.569414077E-1
5.918643505E0,-3.099338710E-1,-2.114295959E-3,3.052520752E-1,4.350198893E-1
5.923643505E0,-2.383615673E-1,-1.601457596E-3,2.597913742E-1,3.525767427E-1
5.928643505E0,-1.594260335E-1,2.713608742E-2,2.096748352E-1,2.647953246E-1
5.933643505E0,-9.536936879E-2,2.845036983E-2,1.643199921E-1,1.921088229E-1
5.938643505E0,-3.988081217E-2,1.027953625E-2,1.220483780E-1,1.288097613E-1
5.943643505E0,1.723539829E-2,-9.313344955E-3,7.713413239E-2,7.958311207E-2
5.948643505E0,1.039180905E-1,6.274509430E-2,7.750606537E-2,1.440246734E-1
5.953643505E0,1.635481119E-1,1.400161982E-1,6.155109406E-2,2.239219905E-1
5.958643505E0,1.361269653E-1,1.780656576E-1,6.592369080E-2,2.336318945E-1
5.963643505E0,2.271360159E-2,1.279802322E-1,6.808567047E-2,1.467327709E-1
5.968643505E0,-4.637008905E-2,6.206083298E-2,5.868053436E-2,9.718609603E-2
5.973643505E0,-6.134533882E-2,1.128292084E-2,7.145690918E-2,9.485064453E-2
5.978643505E0,2.111870050E-2,8.244514465E-3,6.304740906E-2,6.699960685E-2
5.983643505E0,1.054554433E-1,-1.418268681E-2,3.980350494E-2,1.136059775E-1
5.988643505E0,1.581735611E-1,-5.569732189E-2,3.630638123E-2,1.715786129E-1
5.993643505E0,2.209383398E-1,-8.691895008E-2,6.763744354E-2,2.468673281E-1
5.998643505E0,2.484694719E-1,-1.171222925E-1,9.161853790E-2,2.895663419E-1
6.003643505E0,2.304925323E-1,-1.623114347E-1,9.033775330E-2,2.960282401E-1
6.008643505E0,1.991730481E-1,-2.181465626E-1,8.756923676E-2,3.081009528E-1
6.013643505E0,1.842863262E-1,-2.447445393E-1,1.021671295E-1,3.229542721E-1
6.018643505E0,2.180595696E-1,-2.357913256E-1,1.103334427E-1,3.395894487E-1
6.023643505E0,2.187401354E-1,-1.886863708E-1,8.758544922E-2,3.018625586E-1
6.028643505E0,2.275654078E-1,-1.543611288E-1,8.542442322E-2,2.879421903E-1
6.033643505E0,2.282398045E-1,-7.977902889E-2,1.265153885E-1,2.728813759E-1
6.038643505E0,2.189591229E-1,-1.130497456E-2,1.721200943E-1,2.787404291E-1
6.043643505E0,1.655887663E-1,3.492891788E-2,2.014293671E-1,2.630845088E-1
6.048643505E0,7.257728279E-2,2.526879311E-3,2.147436142E-1,2.266906856E-1
6.053643505E0,-3.258460760E-2,-7.593274117E-2,2.010059357E-1,2.173267678E-1
6.058643505E0,1.719728112E-2,-9.427893162E-2,2.147998810E-1,2.352089545E-1
6.063643505E0,1.074380279E-1,-4.337477684E-2,2.439355850E-1,2.700534590E-1
6.068643505E0,1.419787705E-1,-3.627848625E-2,2.877979279E-1,3.229578101E-1
6.073643505E0,1.335991174E-1,-7.724726200E-2,2.909793854E-1,3.293704091E-1
6.078643505E0,1.275757402E-1,-1.430653334E-1,2.771072388E-1,3.369446258E-1
6.083643505E0,1.632704139E-1,-1.467235088E-1,3.007621765E-1,3.723478252E-1
6.088643505E0,1.597737968E-1,-1.063810587E-1,2.229070663E-1,2.941634852E-1
6.093643505E0,1.409780979E-1,-4.295921326E-2,1.762504578E-1,2.297488672E-1
6.098643505E0,1.438812017E-1,2.014994621E-2,1.239986420E-1,1.910065019E-1
6.103643505E0,1.611877531E-1,9.562838078E-2,6.696033478E-2,1.990225248E-1
6.108643505E0,9.327581525E-2,1.728594303E-1,4.351329803E-2,2.011819263E-1
6.113643505E0,-6.661847234E-3,2.093421221E-1,-4.588317871E-2,2.144149490E-1
6.118643505E0,-1.033311188E-1,1.913198233E-1,-5.210399628E-2,2.235965593E-1
6.123643505E0,-1.592921168E-1,1.735161543E-1,-7.750701904E-2,2.479701036E-1
6.128643505E0,-2.138876021E-1,1.277427673E-1,-8.326721191E-2,2.626776532E-1
6.133643505E0,-2.762896717E-1,3.691029549E-2,-1.176261902E-1,3.025463158E-1
6.138643505E0,-3.069885373E-1,-6.265580654E-2,-1.262397766E-1,3.377931221E-1
6.143643505E0,-2.234673947E-1,-2.675318718E-2,-8.884620667E-2,2.419649933E-1
6.148643505E0,-1.236620247E-1,6.280303001E-2,-2.305507660E-2,1.405989100E-1
6.153643505E0,-8.757583797E-2,1.470565796E-1,5.388927460E-2,1.794414080E-1
6.158643505E0,-1.297285259E-1,1.719286442E-1,7.533836365E-2,2.281771640E-1
6.163643505E0,-2.231106013E-1,1.274626255E-1,9.833908081E-2,2.751283994E-1
6.168643505E0,-3.352049291E-1,5.342793465E-2,5.373477936E-2,3.436630839E-1
6.173643505E0,-4.146940112E-1,-8.995532990E-4,2.723217010E-2,4.155881654E-1
6.178643505E0,-3.937303126E-1,-3.647804260E-4,1.633167267E-2,3.940690493E-1
6.183643505E0,-3.006317616E-1,2.976810932E-2,-6.008148193E-3,3.021617021E-1
6.188643505E0,-1.956553459E-1,5.308365822E-2,-2.372646332E-2,2.041123079E-1
6.193643505E0,-1.430558264E-1,5.581581593E-2,-2.832412720E-4,1.535592882E-1
6.198643505E0,-1.316322684E-1,4.701721668E-2,4.480648041E-2,1.467831511E-1
6.203643505E0,-9.024015069E-2,6.339609623E-2,7.065105438E-2,1.309729793E-1
6.208643505E0,-6.899654865E-3,1.217151880E-1,8.305549622E-2,1.475140932E-1
6.213643505E0,6.167292595E-3,1.575572491E-1,7.207965851E-2,1.733718530E-1
6.218643505E0,-3.399795294E-2,1.801210642E-1,1.418552399E-1,2.317808613E-1
6.223643505E0,-6.688347459E-2,2.337362766E-1,1.832952499E-1,3.044719935E-1
6.228643505E0,-5.907598138E-2,2.822223902E-1,2.054109573E-1,3.540241665E-1
6.233643505E0,-7.098916173E-2,2.895115614E-1,2.261190414E-1,3.741473322E-1
6.238643505E0,-1.134462953E-1,2.052382231E-1,2.520742416E-1,3.442879804E-1
6.243643505E0,-1.291158795E-1,8.060312271E-2,2.720746994E-1,3.117569819E-1
6.248643505E0,-8.280995488E-2,-6.062936783E-2,2.553634644E-1,2.752161111E-1
6.253643505E0,3.291279078E-3,-1.657671928E-1,2.865686417E-1,3.310757936E-1
6.258643505E0,1.132496744E-1,-2.103986740E-1,3.249607086E-1,4.033516492E-1
6.263643505E0,2.420664281E-1,-1.932642460E-1,3.625793457E-1,4.768763008E-1
6.268643505E0,3.394932449E-1,-1.139013767E-1,3.931503296E-1,5.317860177E-1
6.273643505E0,3.510345817E-1,-9.005045891E-2,3.843240738E-1,5.282417594E-1
6.278643505E0,2.030436695E-1,-1.671880484E-1,3.174819946E-1,4.122782945E-1
6.283643505E0,3.666575253E-2,-2.537486553E-1,2.541503906E-1,3.610057874E-1
6.288643505E0,-1.161354780E-2,-2.949447036E-1,1.826381683E-1,3.471079849E-1
6.293643505E0,5.710737407E-2,-2.520157099E-1,7.384777069E-2,2.687501878E-1
6.298643505E0,1.336780190E-1,-1.862466335E-1,-3.671455383E-2,2.321757518E-1
6.303643505E0,1.813672036E-1,-1.216753721E-1,-1.004085541E-1,2.403764474E-1
6.308643505E0,2.456698120E-1,-8.848857880E-2,-1.492767334E-1,3.007780381E-1
6.313643505E0,2.731988132E-1,-3.649973869E-2,-1.658487320E-1,3.216762726E-1
6.318643505E0,2.555708587E-1,1.190948486E-2,-1.478395462E-1,2.954908308E-1
6.323643505E0,1.991571337E-1,1.294577122E-2,-1.279563904E-1,2.370738171E-1
6.328643505E0,1.402366757E-1,-3.736257553E-3,-1.043834686E-1,1.748604969E-1
6.333643505E0,1.437307000E-1,4.371237755E-2,-7.443714142E-2,1.676608902E-1
6.338643505E0,1.467646956E-1,1.038086414E-1,-2.325344086E-2,1.812645372E-1
6.343643505E0,1.102016121E-1,1.456843615E-1,-1.539230347E-2,1.833173519E-1
6.348643505E0,8.353872597E-2,1.471958160E-1,-3.942394257E-2,1.737802470E-1
6.353643505E0,3.159135580E-2,1.213791370E-1,-5.632209778E-2,1.374884990E-1
6.358643505E0,-3.768992424E-2,9.801304340E-2,-3.810119629E-2,1.117084967E-1
6.363643505E0,-1.073913276E-1,-3.925085068E-3,-5.249595642E-2,1.195998703E-1
6.368643505E0,-1.125286967E-1,-6.672811508E-2,-6.971549988E-2,1.482416940E-1
6.373643505E0,-9.587854147E-3,-7.109105587E-2,-6.563377380E-2,9.722992048E-2
6.378643505E0,1.109022200E-1,7.724881172E-3,-1.525211334E-2,1.122123128E-1
6.383643505E0,1.498406529E-1,5.598461628E-2,1.170825958E-2,1.603857284E-1
6.388643505E0,8.807946742E-2,3.931152821E-2,6.077003479E-2,1.140016928E-1
6.393643505E0,1.734015346E-2,1.208090782E-2,1.105165482E-1,1.125190503E-1
6.398643505E0,-2.364473045E-2,1.789617538E-2,1.528387070E-1,1.556888458E-1
6.403643505E0,-7.411761582E-2,2.318596840E-2,1.819629669E-1,1.978421882E-1
6.408643505E0,-1.385277212E-1,9.223103523E-3,1.580572128E-1,2.103736621E-1
6.413643505E0,-1.853716075E-1,1.540029049E-2,1.230649948E-1,2.230354115E-1
6.418643505E0,-1.540765166E-1,2.428269386E-2,1.461524963E-1,2.137516652E-1
6.423643505E0,-8.981981874E-2,7.662796974E-2,1.282815933E-1,1.743433760E-1
6.428643505E0,-7.043346763E-2,1.314471960E-1,1.065759659E-1,1.832966863E-1
6.433643505E0,-1.324549615E-1,1.405526400E-1,1.161680222E-1,2.253760653E-1
6.438643505E0,-1.793150902E-1,1.356064081E-1,1.173324585E-1,2.535939773E-1
6.443643505E0,-2.428686023E-1,6.812024117E-2,7.911682129E-2,2.643577058E-1
6.448643505E0,-3.044691384E-1,-4.312396049E-3,2.154636383E-2,3.052610338E-1
6.453643505E0,-3.133366108E-1,-5.915760994E-2,1.023483276E-2,3.190363714E-1
6.458643505E0,-2.452130020E-1,-6.297898293E-2,4.359436035E-2,2.568973275E-1
6.463643505E0,-1.485996544E-1,-3.710079193E-2,6.652069092E-2,1.669830182E-1
6.468643505E0,-1.302958429E-1,-3.117668629E-2,8.069229126E-2,1.563976928E-1
6.473643505E0,-1.201737225E-1,-3.144037724E-2,1.405448914E-1,1.875715527E-1
6.478643505E0,-8.383271098E-2,-8.946537971E-3,2.003984451E-1,2.174109031E-1
6.483643505E0,-2.122542262E-2,3.384757042E-2,2.472524643E-1,2.504594931E-1
6.488643505E0,-2.539923787E-2,9.265148640E-2,3.048982620E-1,3.196754126E-1
6.493643505E0,-5.996140838E-2,9.733998775E-2,3.080949783E-1,3.286228224E-1
6.498643505E0,-6.746718287E-2,1.163660288E-1,3.104524612E-1,3.383394806E-1
6.503643505E0,-7.917231321E-2,1.275321245E-1,3.121480942E-1,3.463656026E-1
6.508643505E0,-9.439894557E-2,1.399781704E-1,2.780447006E-1,3.252904927E-1
6.513643505E0,-1.461520493E-1,1.344274282E-1,2.522621155E-1,3.210410097E-1
6.518643505E0,-1.722344160E-1,5.930089951E-2,1.773738861E-1,2.542494567E-1
6.523643505E0,-1.247702241E-1,-1.780974865E-2,9.550380707E-2,1.581321382E-1
6.528643505E0,-7.579347491E-2,-9.443318844E-2,-5.366325378E-3,1.212067464E-1
6.533643505E0,1.133963466E-2,-1.513227224E-1,-7.689476013E-2,1.701174823E-1
6.538643505E0,1.085117459E-1,-1.619043350E-1,-1.244688034E-1,2.312580717E-1
6.543643505E0,2.302618921E-1,-9.921240807E-2,-1.158676147E-1,2.762045347E-1
6.548643505E0,3.126868308E-1,-1.272976398E-2,-8.935260773E-2,3.254519773E-1
6.553643505E0,2.762610614E-1,8.333444595E-3,-7.903385162E-2,2.874647284E-1
6.558643505E0,1.615839899E-1,-3.305697441E-2,-1.042280197E-1,1.951041502E-1
6.563643505E0,6.607931852E-2,-7.302880287E-2,-1.370410919E-1,1.687600168E-1
6.568643505E0,7.549881935E-3,-6.505000591E-2,-1.439275742E-1,1.581254268E-1
6.573643505E0,-3.793150187E-3,-4.928433895E-2,-1.760644913E-1,1.828716466E-1
6.578643505E0,-6.604492664E-4,-4.492914677E-2,-2.279310226E-1,2.323179190E-1
6.583643505E0,6.555995345E-2,-3.090286255E-2,-2.654275894E-1,2.751452337E-1
6.588643505E0,1.213712990E-1,-8.671045303E-3,-2.471399307E-1,2.754710958E-1
6.593643505E0,1.506432891E-1,1.606798172E-2,-2.036218643E-1,2.537980382E-1
6.598643505E0,1.412735581E-1,6.962943077E-2,-1.571559906E-1,2.224960252E-1
6.603643505E0,1.240179464E-1,9.286427498E-2,-1.026277542E-1,1.858404707E-1
6.608643505E0,8.695514500E-2,1.056883335E-1,-2.533626556E-2,1.391874543E-1
6.613643505E0,2.231155336E-2,7.951724529E-2,6.737041473E-2,1.065812859E-1
6.618643505E0,-7.084588706E-2,2.642273903E-3,1.167554855E-1,1.365941607E-1
6.623643505E0,-8.862321079E-2,-3.698933125E-2,1.482572556E-1,1.766422881E-1
6.628643505E0,-1.038505137E-2,-2.765488625E-2,1.687917709E-1,1.713572408E-1
6.633643505E0,5.305162072E-2,-2.824044228E-2,1.653566360E-1,1.759398026E-1
6.638643505E0,1.449517906E-2,-8.367359638E-2,9.418773651E-2,1.268176275E-1
6.643643505E0,-3.335179389E-2,-1.749283075E-1,-9.025573730E-3,1.783079244E-1
6.648643505E0,1.580208540E-3,-2.163627148E-1,-5.909442902E-2,2.242932744E-1
6.653643505E0,9.724047780E-2,-1.144067049E-1,-3.836536407E-2,1.549725970E-1
6.658643505E0,1.191505045E-1,-1.630926132E-2,-3.021717072E-2,1.239996457E-1
6.663643505E0,8.432029188E-2,6.558346748E-2,2.606391907E-3,1.068545559E-1
6.668643505E0,4.553347826E-2,1.337807178E-1,8.986377716E-2,1.674696288E-1
6.673643505E0,-4.617899656E-3,1.959882975E-1,1.715145111E-1,2.604802589E-1
6.678643505E0,-9.277510643E-2,2.033392191E-1,1.959800720E-1,2.972578797E-1
6.683643505E0,-1.887584627E-1,1.498397589E-1,1.749649048E-1,2.978160984E-1
6.688643505E0,-1.969573796E-1,1.271092892E-1,1.630401611E-1,2.855364686E-1
6.693643505E0,-1.642152667E-1,1.409314871E-1,1.367406845E-1,2.559811569E-1
6.698643505E0,-1.942541301E-1,1.415443420E-1,8.417510986E-2,2.546662855E-1
6.703643505E0,-2.767146230E-1,7.261693478E-2,1.609802246E-2,2.865368181E-1
6.708643505E0,-2.941131592E-1,2.907884121E-2,2.823829651E-3,2.955606595E-1
6.713643505E0,-1.849774718E-1,2.187621593E-2,4.645252228E-2,1.919715363E-1
6.718643505E0,-1.487665474E-1,3.716075420E-2,1.019010544E-1,1.841092941E-1
6.723643505E0,-2.053762972E-1,-1.474058628E-2,1.968860626E-1,2.848873988E-1
6.728643505E0,-2.022261918E-1,-4.479837418E-2,3.093461990E-1,3.722867145E-1
6.733643505E0,-1.328124702E-1,-2.593398094E-2,4.056510925E-1,4.276266274E-1
6.738643505E0,-4.031556845E-2,1.424121857E-2,4.613780975E-1,4.633550542E-1
6.743643505E0,-1.663240790E-2,2.951216698E-2,4.567728043E-1,4.580272914E-1
6.748643505E0,-2.471971512E-2,8.113980293E-3,4.120731354E-1,4.128936545E-1
6.753643505E0,-2.490109205E-2,-1.543414593E-2,3.733854294E-1,3.745329840E-1
6.758643505E0,-1.008644700E-2,-4.192590714E-2,2.659997940E-1,2.694724634E-1
6.763643505E0,-2.916142344E-2,-2.475917339E-2,1.535100937E-1,1.582047855E-1
6.768643505E0,-2.891263366E-2,-4.934144020E-2,2.445602417E-2,6.219819310E-2
6.773643505E0,-7.132798433E-3,-5.382370949E-2,-6.669998169E-2,8.600439567E-2
6.778643505E0,2.696359158E-2,-9.141445160E-3,-1.209392548E-1,1.242453405E-1
6.783643505E0,1.600360870E-2,2.473568916E-2,-1.882677078E-1,1.905589138E-1
6.788643505E0,6.556212902E-4,6.466197968E-2,-2.259378433E-1,2.350095966E-1
6.793643505E0,-2.844685316E-2,7.676744461E-2,-1.931009293E-1,2.097389637E-1
6.798643505E0,-5.064237118E-2,8.413267136E-2,-1.447801590E-1,1.749407059E-1
6.803643505E0,-5.535891652E-2,5.857813358E-2,-1.146097183E-1,1.401120798E-1
6.808643505E0,-3.626507521E-2,2.681434155E-2,-1.081619263E-1,1.171885954E-1
6.813643505E0,6.116977334E-2,2.856314182E-2,-9.732151031E-2,1.184443777E-1
6.818643505E0,1.578058898E-1,4.059219360E-2,-9.176731110E-2,1.870071240E-1
6.823643505E0,2.660735250E-1,4.795527458E-2,-9.519481659E-2,2.866302185E-1
6.828643505E0,2.870743275E-1,-5.385875702E-3,-1.289310455E-1,3.147441686E-1
6.833643505E0,2.780076861E-1,-8.512258530E-2,-2.183656693E-1,3.636175100E-1
6.838643505E0,2.706160545E-1,-1.359769106E-1,-2.794809341E-1,4.121072212E-1
6.843643505E0,2.314503491E-1,-1.754996777E-1,-3.217563629E-1,4.334703658E-1
6.848643505E0,1.482546031E-1,-2.156494856E-1,-3.337268829E-1,4.240964046E-1
6.853643505E0,1.214218736E-1,-2.001059055E-1,-3.192338943E-1,3.958483600E-1
6.858643505E0,1.593437493E-1,-1.243412495E-1,-2.661266327E-1,3.341774400E-1
6.863643505E0,1.731250584E-1,-2.558743954E-2,-2.042407990E-1,2.689633932E-1
6.868643505E0,1.317398548E-1,4.894733429E-2,-1.001157761E-1,1.725525992E-1
6.873643505E0,3.826326132E-2,7.546174526E-2,2.362155914E-2,8.784378305E-2
6.878643505E0,-2.228155732E-2,9.379065037E-2,1.359453201E-1,1.666561849E-1
6.883643505E0,-6.819757819E-2,8.074438572E-2,2.116060257E-1,2.365326100E-1
6.888643505E0,-1.108531058E-1,2.837932110E-2,2.573480606E-1,2.816412989E-1
6.893643505E0,-1.202938855E-1,-2.138304710E-2,2.638149261E-1,2.907338454E-1
6.898643505E0,-5.248966813E-2,-5.427336693E-2,2.769117355E-1,2.870206837E-1
6.903643505E0,2.420765162E-2,-7.116103172E-2,2.900505066E-1,2.996317727E-1
6.908643505E0,6.468649209E-2,-9.265148640E-2,2.763795853E-1,2.985871989E-1
6.913643505E0,5.385544896E-2,-1.286541224E-1,2.454042435E-1,2.822685517E-1
6.918643505E0,8.130040765E-2,-1.590147018E-1,2.097520828E-1,2.754838796E-1
6.923643505E0,1.413256526E-1,-1.191995144E-1,1.798706055E-1,2.579435966E-1
6.928643505E0,1.536948383E-1,-4.383218288E-2,2.386541367E-1,2.872266710E-1
6.933643505E0,7.327087224E-2,2.621412277E-3,2.695713043E-1,2.793638857E-1
6.938643505E0,1.507046819E-2,4.379773140E-2,3.120956421E-1,3.155139460E-1
6.943643505E0,-2.052828670E-2,1.021192074E-1,3.508701324E-1,3.660049083E-1
6.948643505E0,-8.818218112E-2,1.579973698E-1,3.743286133E-1,4.157657714E-1
6.953643505E0,-2.054543197E-1,1.368411779E-1,3.603782654E-1,4.368174443E-1
6.958643505E0,-3.248222172E-1,6.063663960E-2,3.111934662E-1,4.539026859E-1
6.963643505E0,-3.459713459E-1,7.895112038E-3,2.581548691E-1,4.317434903E-1
6.968643505E0,-2.684634924E-1,6.347537041E-3,1.844997406E-1,3.258114367E-1
6.973643505E0,-1.975799501E-1,1.771521568E-2,9.326457977E-2,2.192029822E-1
6.978643505E0,-1.432468593E-1,8.817553520E-3,6.458663940E-2,1.573812122E-1
6.983643505E0,-8.328598738E-2,3.595376015E-2,1.517581940E-2,9.197572537E-2
6.988643505E0,-6.098312140E-2,6.408464909E-2,-6.548881531E-3,8.870553079E-2
6.993643505E0,-1.055758297E-1,5.255913734E-2,-6.175231934E-2,1.331242566E-1
6.998643505E0,-1.346550882E-1,-5.152225494E-3,-1.389570236E-1,1.935654737E-1
7.003643505E0,-1.114662290E-1,-2.910137177E-3,-1.824388504E-1,2.138156291E-1
7.008643505E0,-5.044037104E-2,4.352140427E-2,-1.917581558E-1,2.030013152E-1
7.013643505E0,-4.608085752E-2,7.067537308E-2,-2.198333740E-1,2.354679726E-1
7.018643505E0,-9.554901719E-2,4.622864723E-2,-2.123937607E-1,2.374401232E-1
7.023643505E0,-1.524817944E-1,-4.494786263E-3,-1.968908310E-1,2.490720780E-1
7.028643505E0,-1.325085461E-1,-2.332568169E-3,-1.696386337E-1,2.152701134E-1
7.033643505E0,-6.436008215E-2,3.433549404E-2,-1.646089554E-1,1.800479228E-1
7.038643505E0,-5.673632026E-2,1.799094677E-2,-1.266603470E-1,1.399483037E-1
7.043643505E0,8.156955242E-3,9.198904037E-3,-9.013938904E-2,9.097398095E-2
7.048643505E0,1.246595830E-1,4.558920860E-2,-8.114433289E-2,1.555724601E-1
7.053643505E0,1.974038929E-1,1.097214222E-1,-5.850410461E-2,2.333019881E-1
7.058643505E0,1.632309407E-1,1.489299536E-1,-4.352760315E-2,2.252090658E-1
7.063643505E0,1.203240454E-1,1.653634310E-1,-1.078605652E-2,2.047908182E-1
7.068643505E0,7.462941110E-2,1.622146368E-1,-2.350997925E-2,1.800995739E-1
7.073643505E0,3.562346101E-2,1.097657681E-1,-4.966545105E-2,1.256352333E-1
7.078643505E0,5.888938904E-5,2.822017670E-2,-7.887935638E-2,8.377550182E-2
7.083643505E0,-3.081676364E-2,-4.167592525E-2,-1.047964096E-1,1.169138278E-1
7.088643505E0,3.960986435E-2,-8.234703541E-2,-1.116247177E-1,1.442569000E-1
7.093643505E0,1.025044471E-1,-9.830391407E-2,-1.006631851E-1,1.740801483E-1
7.098643505E0,1.161080450E-1,-1.258072853E-1,-7.770061493E-2,1.880051507E-1
7.103643505E0,1.150409132E-1,-1.633645296E-1,-8.296298981E-2,2.163451847E-1
7.108643505E0,1.670840532E-1,-1.633841991E-1,-5.631160736E-2,2.403798545E-1
7.113643505E0,1.647557318E-1,-1.362802982E-1,-2.369880676E-2,2.151241602E-1
7.118643505E0,8.889754117E-2,-1.799746752E-1,6.392478943E-3,2.008345596E-1
7.123643505E0,3.559307754E-2,-2.073924541E-1,5.509376526E-3,2.104966756E-1
7.128643505E0,8.438903093E-2,-2.064684629E-1,1.821613312E-2,2.237913364E-1
7.133643505E0,1.656276137E-1,-1.278282404E-1,5.851268768E-2,2.172470945E-1
7.138643505E0,2.111152112E-1,-2.892506123E-2,8.319282532E-2,2.287516946E-1
7.143643505E0,1.764409840E-1,-5.315899849E-3,1.140184402E-1,2.101425334E-1
7.148643505E0,1.196221113E-1,-8.490085602E-3,1.310586929E-1,1.776454673E-1
7.153643505E0,8.957251906E-2,3.335082531E-2,1.649370193E-1,1.906298352E-1
7.158643505E0,2.245128155E-2,8.848249912E-2,1.782474518E-1,2.002632437E-1
7.163643505E0,-9.896099567E-2,1.001949310E-1,1.773328781E-1,2.264492273E-1
7.168643505E0,-1.510848403E-1,8.035671711E-2,1.494626999E-1,2.272067992E-1
7.173643505E0,-1.716289818E-1,7.537412643E-2,1.642475128E-1,2.492288342E-1
7.178643505E0,-1.518511474E-1,9.029686451E-2,1.925172806E-1,2.612952316E-1
7.183643505E0,-1.828365922E-1,1.156570911E-1,1.776275635E-1,2.799237994E-1
7.188643505E0,-1.963116229E-1,1.221674681E-1,1.572074890E-1,2.796021068E-1
7.193643505E0,-2.077217400E-1,7.878553867E-2,1.564378738E-1,2.717136190E-1
7.198643505E0,-1.667192876E-1,3.947699070E-2,1.693992615E-1,2.409353927E-1
7.203643505E0,-1.453554034E-1,2.085340023E-2,1.504783630E-1,2.102541209E-1
7.208643505E0,-1.378330886E-1,-2.126336098E-2,1.084823608E-1,1.766876155E-1
7.213643505E0,-1.133344173E-1,-2.344131470E-2,1.153345108E-1,1.633898246E-1
7.218643505E0,-8.107119799E-2,-5.698919296E-3,1.108961105E-1,1.374880510E-1
7.223643505E0,-6.396371126E-2,-2.667903900E-4,9.709453583E-2,1.162702732E-1
7.228643505E0,-4.267877340E-2,-4.516541958E-2,3.453731537E-2,7.109303044E-2
7.233643505E0,-3.627049923E-2,-1.713609695E-2,4.855251312E-2,6.298048478E-2
7.238643505E0,-1.913389564E-2,5.560755730E-2,9.616851807E-2,1.127239560E-1
7.243643505E0,-2.504211664E-2,1.000616550E-1,8.472728729E-2,1.334846644E-1
7.248643505E0,-6.558525562E-2,9.451735020E-2,4.468727112E-2,1.234176140E-1
7.253643505E0,-7.151767612E-2,3.937542439E-2,-3.318786621E-3,8.170811702E-2
7.258643505E0,-4.090124369E-2,4.509258270E-2,-3.414916992E-2,6.980271167E-2
7.263643505E0,-2.338835597E-2,7.207882404E-2,-6.611919403E-2,1.005689808E-1
7.268643505E0,-5.997544527E-2,3.750956059E-2,-1.165332794E-1,1.363232423E-1
7.273643505E0,-1.150901616E-1,-3.809845448E-2,-1.722145081E-1,2.106064441E-1
7.278643505E0,-9.445178509E-2,-1.060574055E-1,-2.158985138E-1,2.584211315E-1
7.283643505E0,-3.556135297E-2,-1.176438332E-1,-2.423992157E-1,2.717757551E-1
7.288643505E0,-2.811938524E-3,-9.442937374E-2,-2.401123047E-1,2.580285497E-1
7.293643505E0,1.796449721E-2,-6.002342701E-2,-2.296304703E-1,2.380245530E-1
7.298643505E0,3.789992630E-2,-2.937185764E-2,-1.890373230E-1,1.950236394E-1
7.303643505E0,6.939707696E-2,4.163587093E-2,-1.404266357E-1,1.620775742E-1
7.308643505E0,6.360067427E-2,1.167098284E-1,-8.961677551E-2,1.603040744E-1
7.313643505E0,2.881254256E-2,1.429709196E-1,-7.406425476E-2,1.635737152E-1
7.318643505E0,-9.867668152E-3,1.297906637E-1,-2.696514130E-2,1.329289514E-1
7.323643505E0,2.585151792E-2,1.361725330E-1,-6.908416748E-3,1.387767486E-1
7.328643505E0,4.894262552E-2,1.181243658E-1,-1.263141632E-2,1.284846258E-1
7.333643505E0,5.080296099E-2,8.580398560E-2,-1.095676422E-2,1.003160778E-1
7.338643505E0,9.408867359E-2,6.516659260E-2,2.570438385E-2,1.173033616E-1
7.343643505E0,1.310217381E-1,4.303181171E-2,3.089618683E-2,1.413258894E-1
7.348643505E0,1.164442599E-1,-3.647255898E-2,2.734947205E-2,1.250500173E-1
7.353643505E0,6.440061331E-2,-1.437742710E-1,1.954078674E-2,1.587460940E-1
7.358643505E0,7.395654917E-2,-1.918357611E-1,3.696060181E-2,2.088937923E-1
7.363643505E0,1.307527125E-1,-1.838304996E-1,8.983612061E-2,2.428177362E-1
7.368643505E0,1.684994102E-1,-1.398659945E-1,1.488170624E-1,2.647660584E-1
7.373643505E0,1.496433765E-1,-1.195033789E-1,1.756458282E-1,2.598569889E-1
7.378643505E0,1.205972582E-1,-1.283847094E-1,1.886901855E-1,2.581284920E-1
7.383643505E0,9.983135760E-2,-1.015571356E-1,2.013702393E-1,2.466376391E-1
7.388643505E0,5.822835863E-2,-9.680557251E-2,1.821508408E-1,2.143380260E-1
7.393643505E0,1.632888615E-2,-1.537439823E-1,8.528423309E-2,1.765707933E-1
7.398643505E0,3.794401884E-3,-2.212889194E-1,-5.908393860E-2,2.290722488E-1
7.403643505E0,7.645675540E-2,-2.163875103E-1,-1.078205109E-1,2.535635081E-1
7.408643505E0,2.155989707E-1,-9.815931320E-2,-1.133747101E-1,2.626251926E-1
7.413643505E0,2.778910398E-1,2.971231937E-2,-1.306581497E-1,3.085090016E-1
7.418643505E0,1.770914793E-1,6.464612484E-2,-1.326532364E-1,2.305154976E-1
7.423643505E0,1.908279955E-2,4.841136932E-2,-1.010808945E-1,1.136888787E-1
7.428643505E0,-8.643713593E-2,6.544542313E-2,-2.216911316E-2,1.106614271E-1
7.433643505E0,-2.025110424E-1,1.099370718E-1,7.255649567E-2,2.415808914E-1
7.438643505E0,-3.144477308E-1,1.299524307E-1,1.552591324E-1,3.739925238E-1
7.443643505E0,-3.468274772E-1,1.321473122E-1,2.271137238E-1,4.351239531E-1
7.448643505E0,-2.860506475E-1,1.339753866E-1,2.883863449E-1,4.277160987E-1
7.453643505E0,-2.136439085E-1,1.200064421E-1,2.993011475E-1,3.868157735E-1
7.458643505E0,-1.771038771E-1,5.809020996E-2,2.486886978E-1,3.107834040E-1
7.463643505E0,-1.263414323E-1,5.096077919E-3,1.937370300E-1,2.313485776E-1
7.468643505E0,-3.428715467E-2,-1.979959011E-2,1.507129669E-1,1.558269269E-1
7.473643505E0,2.784460783E-2,-1.942062378E-2,5.099868774E-2,6.126458165E-2
7.478643505E0,1.266172528E-2,-5.514776707E-2,-1.094436646E-2,5.763136869E-2
7.483643505E0,2.039170265E-2,-6.293380260E-2,-4.762363434E-2,8.151377549E-2
7.488643505E0,5.898642540E-2,-2.797055244E-2,-4.732131958E-2,8.062913538E-2
7.493643505E0,8.101177216E-2,3.887426853E-2,-5.903244019E-2,1.075125340E-1
7.498643505E0,1.510021091E-2,6.828141212E-2,-5.266284943E-2,8.754280850E-2
7.503643505E0,-8.793383837E-2,2.710723877E-2,-6.513118744E-2,1.127352381E-1
7.508643505E0,-1.126344800E-1,1.225483418E-2,-4.808616638E-2,1.230812189E-1
7.513643505E0,-1.109871566E-1,3.960680962E-2,-5.066394806E-2,1.282719141E-1
7.518643505E0,-1.218433380E-1,7.165455818E-2,-3.090476990E-2,1.446902883E-1
7.523643505E0,-1.641482711E-1,6.699812412E-2,-6.474781036E-2,1.887476688E-1
7.528643505E0,-1.356688440E-1,5.236208439E-2,-1.639661789E-1,2.191637081E-1
7.533643505E0,-4.866936803E-2,6.426739693E-2,-2.241659164E-1,2.382212497E-1
7.538643505E0,-2.267587185E-2,7.713532448E-2,-2.222270966E-1,2.363237946E-1
7.543643505E0,-3.512153029E-2,6.215405464E-2,-2.204427719E-1,2.317146178E-1
7.548643505E0,-5.722495914E-2,3.619229794E-2,-2.004051208E-1,2.115343727E-1
7.553643505E0,-2.543076873E-2,3.068161011E-2,-1.415185928E-1,1.470224381E-1
7.558643505E0,-1.202985644E-2,1.486897469E-2,-1.711463928E-2,2.566543847E-2
7.563643505E0,-3.992509842E-2,-2.690434456E-2,4.259014130E-2,6.427890304E-2
7.568643505E0,-7.374623418E-2,-9.664130211E-2,1.359300613E-1,1.823596170E-1
7.573643505E0,-4.798918962E-2,-1.406705379E-1,2.073459625E-1,2.551147011E-1
7.578643505E0,3.301122785E-2,-1.406368017E-1,2.699136734E-1,3.061402330E-1
7.583643505E0,1.088789701E-1,-1.350641251E-1,3.067502975E-1,3.524098368E-1
7.588643505E0,1.621035188E-1,-1.256092787E-1,3.454742432E-1,4.017557646E-1
7.593643505E0,2.322504818E-1,-9.154152870E-2,3.667478561E-1,4.436486535E-1
7.598643505E0,2.777571678E-1,-4.500174522E-2,3.463869095E-1,4.462713215E-1
7.603643505E0,2.633723021E-1,-1.156377792E-2,3.062200546E-1,4.040660989E-1
7.608643505E0,2.261195630E-1,2.635312080E-2,2.116289139E-1,3.108236492E-1
7.613643505E0,1.708452404E-1,5.802071095E-2,1.447315216E-1,2.313043718E-1
7.618643505E0,1.049260646E-1,4.778695107E-2,3.929042816E-2,1.218064427E-1
7.623643505E0,2.545176446E-2,9.654164314E-3,-3.891849518E-2,4.749362557E-2
7.628643505E0,1.759752631E-2,2.706766129E-3,-1.144285202E-1,1.158053788E-1
7.633643505E0,5.689625442E-2,1.099848747E-2,-1.579818726E-1,1.682748423E-1
7.638643505E0,5.465757847E-2,-8.536934853E-3,-1.691722870E-1,1.779876199E-1
7.643643505E0,-3.344941139E-2,-9.372591972E-2,-1.824522018E-1,2.078273733E-1
7.648643505E0,-7.662454247E-2,-1.909025908E-1,-1.707429886E-1,2.673355341E-1
7.653643505E0,5.035161972E-3,-2.103025913E-1,-1.335115433E-1,2.491542995E-1
7.658643505E0,1.195647418E-1,-1.528999805E-1,-7.911777496E-2,2.096038021E-1
7.663643505E0,1.254864186E-1,-1.251912117E-1,-4.971504211E-2,1.840958070E-1
7.668643505E0,6.680123508E-2,-1.588033438E-1,-4.387092590E-2,1.777795408E-1
7.673643505E0,7.661102712E-2,-1.601346731E-1,-4.071140289E-2,1.821257295E-1
7.678643505E0,1.618959755E-1,-7.939493656E-2,-1.903915405E-2,1.813183725E-1
7.683643505E0,2.238103449E-1,6.608092785E-2,-3.408336639E-2,2.358377311E-1
7.688643505E0,1.907449067E-1,1.515301466E-1,-4.295635223E-2,2.473666367E-1
7.693643505E0,6.505289674E-2,1.586893797E-1,-5.199813843E-2,1.792149687E-1
7.698643505E0,-2.527862787E-3,1.638365984E-1,-1.129245758E-2,1.642447584E-1
7.703643505E0,-7.862600684E-2,1.700689793E-1,6.535530090E-3,1.874785849E-1
7.708643505E0,-1.888613999E-1,1.029459238E-1,-4.068660736E-2,2.189106932E-1
7.713643505E0,-2.507890463E-1,1.060009003E-3,-8.668422699E-2,2.653496270E-1
7.718643505E0,-1.325284839E-1,1.336216927E-3,-9.364509583E-2,1.622805857E-1
7.723643505E0,-8.195415139E-3,3.861534595E-2,-1.115741730E-1,1.183516195E-1
7.728643505E0,-2.874842286E-2,3.517973423E-2,-1.302194595E-1,1.379173418E-1
7.733643505E0,-1.231029630E-1,-1.972734928E-2,-1.495733261E-1,1.947195103E-1
7.738643505E0,-1.365510523E-1,-3.812468052E-2,-1.206560135E-1,1.861653962E-1
7.743643505E0,-9.586501122E-2,1.944172382E-2,-2.876567841E-2,1.019585467E-1
7.748643505E0,-1.314796209E-1,4.906749725E-2,4.757213593E-2,1.481810316E-1
7.753643505E0,-2.108874321E-1,3.351497650E-2,1.240673065E-1,2.469604406E-1
7.758643505E0,-2.111637890E-1,3.874695301E-2,2.232856750E-1,3.097546850E-1
7.763643505E0,-1.025551558E-1,1.279894114E-1,3.657693863E-1,4.008566993E-1
7.768643505E0,-3.192782402E-2,1.940839291E-1,4.253692627E-1,4.686437529E-1
7.773643505E0,-8.490023017E-2,1.450587511E-1,4.127092361E-1,4.456220416E-1
7.778643505E0,-1.255137026E-1,4.012668133E-2,3.746423721E-1,3.971407145E-1
7.783643505E0,-8.093816042E-2,-2.455902100E-2,3.126010895E-1,3.238418942E-1
7.788643505E0,-1.152744889E-2,-2.206325531E-2,2.029447556E-1,2.044657505E-1
7.793643505E0,-1.038530469E-2,-2.063333988E-2,1.048355103E-1,1.073502374E-1
7.798643505E0,-2.159327269E-2,-4.288458824E-2,1.649188995E-2,5.076750701E-2
7.803643505E0,2.363464236E-2,-3.485691547E-2,2.401828766E-2,4.848173902E-2
7.808643505E0,6.699842215E-2,2.287900448E-2,5.799674988E-2,9.151972690E-2
7.813643505E0,2.217304707E-2,5.098426342E-2,6.164360046E-2,8.301188235E-2
7.818643505E0,-9.613922238E-2,2.487146854E-2,4.551315308E-2,1.092372973E-1
7.823643505E0,-1.507245600E-1,-1.565110683E-2,8.246994019E-2,1.725228714E-1
7.828643505E0,-1.498826444E-1,-6.285250187E-2,8.279895782E-2,1.824031565E-1
7.833643505E0,-1.853313446E-1,-1.206853390E-1,3.986454010E-2,2.247261442E-1
7.838643505E0,-2.278227210E-1,-1.922669411E-1,1.631736755E-3,2.981147957E-1
7.843643505E0,-1.693313718E-1,-2.076747417E-1,-5.080223083E-3,2.680069411E-1
7.848643505E0,-3.048551083E-2,-1.741956472E-1,-3.826427460E-2,1.809354708E-1
7.853643505E0,5.058991909E-2,-9.784114361E-2,-9.022712708E-2,1.423838606E-1
7.858643505E0,8.857466280E-2,-6.539666653E-2,-1.139745712E-1,1.584689174E-1
7.863643505E0,1.566565335E-1,-1.326406002E-2,-1.103076935E-1,1.920546589E-1
7.868643505E0,2.437402606E-1,9.509348869E-2,-9.067630768E-2,2.769012080E-1
7.873643505E0,2.425180078E-1,2.456895113E-1,-1.020793915E-1,3.599979475E-1
7.878643505E0,1.571328938E-1,2.844464779E-1,-1.473236084E-1,3.567979690E-1
7.883643505E0,6.857533753E-2,2.786474228E-1,-2.214298248E-1,3.624612124E-1
7.888643505E0,1.460373402E-3,2.401102781E-1,-2.955236435E-1,3.807746082E-1
7.893643505E0,-7.807269692E-2,1.568051577E-1,-3.856325150E-1,4.235512248E-1
7.898643505E0,-1.404953897E-1,1.546978951E-3,-4.976463318E-1,5.171007825E-1
7.903643505E0,-3.206139803E-2,-9.767675400E-2,-5.573463440E-1,5.667482939E-1
7.908643505E0,1.679175645E-1,-7.159876823E-2,-5.388717651E-1,5.689512030E-1
7.913643505E0,2.725361586E-1,-3.483462334E-2,-4.186677933E-1,5.007715346E-1
7.918643505E0,2.652989030E-1,-3.280985355E-2,-3.010253906E-1,4.025869847E-1
7.923643505E0,1.910013407E-1,-1.034133434E-1,-1.550569534E-1,2.668679272E-1
7.928643505E0,1.327160001E-1,-1.392104626E-1,-8.316993713E-3,1.925156148E-1
7.933643505E0,4.069533944E-2,-1.502645016E-1,1.221342087E-1,1.978693913E-1
