"Time (s)","Linear Acceleration x (m/s^2)","Linear Acceleration y (m/s^2)","Linear Acceleration z (m/s^2)"
3.646396000E-3,2.601560056E-1,-7.915999740E-2,-1.276009977E-1
2.369034300E-2,-1.092630029E-1,1.014460027E-1,5.183999892E-3
4.373411200E-2,-1.480299979E-1,1.199479997E-1,-1.946039945E-1
6.377811200E-2,2.829100005E-2,2.287199907E-2,4.035879970E-1
8.382178000E-2,8.850599825E-2,-9.362400323E-2,6.263089776E-1
1.038657660E-1,4.735799879E-2,-2.242000075E-3,1.880919933E-1
1.239096940E-1,-4.238799959E-2,1.124029979E-1,8.027999848E-2
1.439533900E-1,-6.368999835E-3,-2.162999939E-3,5.366709828E-1
1.639971740E-1,-1.719399914E-2,-8.259999752E-2,6.665660143E-1
1.840410860E-1,-3.918499872E-2,-9.119600058E-2,7.109090090E-1
2.040850900E-1,-2.466700040E-2,-7.688900083E-2,3.491989970E-1
2.241288740E-1,-3.069000086E-3,2.148799971E-2,-3.805089891E-1
2.441728190E-1,9.244900197E-2,6.636299938E-2,-4.726819992E-1
2.642166040E-1,3.370000049E-2,1.253920048E-1,-5.870289803E-1
2.842605300E-1,9.132000059E-2,1.317439973E-1,-3.995589912E-1
3.043042720E-1,7.998800278E-2,9.846600145E-2,-2.495999932E-1
3.243481880E-1,2.471599914E-2,-3.717600182E-2,2.025900036E-2
3.443919440E-1,5.690100044E-2,-2.406450063E-1,5.541669726E-1
3.644358810E-1,-8.123099804E-2,-2.032459974E-1,5.839470029E-1
3.844796470E-1,-6.967099756E-2,-9.928800166E-2,9.152700007E-2
4.045235770E-1,-1.254000068E-1,4.158399999E-2,-1.371780038E-1
4.245673480E-1,-5.780899897E-2,2.286799997E-2,-4.209010005E-1
4.446112690E-1,-6.901499629E-2,1.028259993E-1,-6.495710015E-1
4.646550360E-1,-6.049000099E-2,7.345899940E-2,-5.514190197E-1
4.846989380E-1,1.292070001E-1,-8.922199905E-2,-3.224900067E-1
5.047427040E-1,2.400829941E-1,-1.026669964E-1,-2.882049978E-1
5.247866200E-1,8.443299681E-2,-1.128899958E-2,-3.964959979E-1
5.448304060E-1,-5.379100144E-2,6.262800097E-2,-2.106059939E-1
5.648743320E-1,-1.451310068E-1,2.959799953E-2,1.491910070E-1
5.849181030E-1,-1.461150050E-1,-3.864099830E-2,4.089570045E-1
6.049620870E-1,-2.064300030E-1,4.336500168E-2,3.049040139E-1
6.250060260E-1,-1.142650023E-1,-6.074999925E-3,8.675099909E-2
6.450497180E-1,-8.254700154E-2,3.145899996E-2,-1.964859962E-1
6.650934860E-1,9.429100156E-2,-3.500999883E-2,-5.350499973E-2
6.851373950E-1,5.506499857E-2,-7.383999974E-2,2.222529948E-1
7.051813660E-1,1.933600008E-1,-1.094959974E-1,-4.607500136E-2
7.252250600E-1,3.019790053E-1,-3.801799938E-2,-2.240619957E-1
7.452688410E-1,2.121240050E-1,-5.249499902E-2,-2.577400021E-2
7.653127360E-1,1.915339977E-1,-1.115700006E-1,2.420729995E-1
7.853565030E-1,-1.505520046E-1,1.035119966E-1,1.825049967E-1
8.054005050E-1,-1.942220032E-1,1.189249977E-1,1.175329983E-1
8.254444160E-1,-9.143099934E-2,4.446600005E-2,5.303400010E-2
8.454881850E-1,-2.286020070E-1,9.850899875E-2,1.400730014E-1
8.655320910E-1,-7.865200192E-2,-4.685100168E-2,7.713799924E-2
8.855758440E-1,-2.352700010E-2,-4.300000146E-2,-2.637020051E-1
9.056197650E-1,5.203400180E-2,-2.778399922E-2,-3.284240067E-1
9.256635650E-1,-1.068999991E-2,2.180399932E-2,-5.311160088E-1
9.457075050E-1,1.794530004E-1,-4.822000116E-2,-5.274209976E-1
9.657512770E-1,1.783130020E-1,-7.405500114E-2,-2.783679962E-1
9.857951780E-1,4.599300027E-2,-5.086699873E-2,-2.583410144E-1
1.005838935E0,9.712799639E-2,-8.246400207E-2,-2.890219986E-1
1.025882890E0,-1.293559968E-1,1.388200000E-2,-1.969570071E-1
1.045926656E0,-1.730400026E-1,1.320009977E-1,-2.935720086E-1
1.065970649E0,1.287859976E-1,-8.263800293E-2,-3.636760116E-1
1.086014377E0,1.644099951E-1,-2.276290059E-1,-6.340499967E-2
1.106058375E0,4.142300040E-2,-9.939999878E-2,-4.290859997E-1
1.126102314E0,2.758000046E-2,-2.371300012E-2,-7.492160201E-1
1.146146083E0,-6.284400076E-2,1.360700000E-2,-4.579260051E-1
1.166190004E0,4.094000161E-2,-2.355800010E-2,-2.905139923E-1
1.186233790E0,2.862799913E-2,-6.523999851E-3,-4.337599874E-1
1.206277492E0,-1.193109974E-1,1.335539967E-1,-5.488899946E-1
1.226321489E0,-1.665910035E-1,6.573700160E-2,-4.538860023E-1
1.246365405E0,6.991499662E-2,-6.976599991E-2,-3.833029866E-1
1.266409141E0,8.668000251E-2,-8.916900307E-2,-3.047550023E-1
1.286453058E0,-5.007399991E-2,-9.583000094E-3,-5.854460001E-1
1.306496834E0,2.084900066E-2,-1.250510067E-1,-4.741140008E-1
1.326540755E0,1.210089996E-1,-1.419139951E-1,-6.035500169E-1
1.346584526E0,7.089299709E-2,-1.297219992E-1,-5.013279915E-1
1.366628514E0,5.970500037E-2,-9.409900010E-2,-4.552359879E-1
1.386672209E0,4.013900086E-2,-4.387800023E-2,-4.357680082E-1
1.406716125E0,2.390499972E-2,-1.769999944E-4,-7.130129933E-1
1.426760130E0,-3.982200101E-2,5.181900039E-2,-8.403789997E-1
1.446803824E0,-3.053800017E-2,-4.472999834E-3,-5.633479953E-1
1.466847841E0,8.253499866E-2,-9.179499745E-2,-2.997039855E-1
1.486891603E0,1.188910007E-1,-1.258649975E-1,-4.734570086E-1
1.506935510E0,6.390199810E-2,-7.108999789E-2,-7.006880045E-1
1.526979281E0,9.439899772E-2,-1.605900005E-2,-9.753789902E-1
1.547023188E0,5.698100105E-2,-2.842500061E-2,-8.882290125E-1
1.567066940E0,3.403799981E-2,-8.266299963E-2,-7.082390189E-1
1.587110870E0,1.194150001E-1,-1.638039947E-1,-6.478509903E-1
1.607154860E0,6.492500007E-2,-1.692399979E-1,-6.858819723E-1
1.627198570E0,3.635499999E-2,-1.399630010E-1,-6.814569831E-1
1.647242351E0,-3.264300153E-2,-9.138999879E-2,-9.042739868E-1
1.667286337E0,5.748099834E-2,-1.037710011E-1,-9.971029758E-1
1.687330271E0,4.279199988E-2,-1.014930010E-1,-1.017442942E0
1.707373964E0,-6.186899915E-2,-7.857000455E-3,-1.171365976E0
1.727417957E0,4.218700156E-2,-6.963200122E-2,-1.033166051E0
1.747461728E0,5.886999890E-3,-9.566599876E-2,-1.037655950E0
1.767505654E0,3.441499919E-2,-3.807500005E-2,-9.442780018E-1
1.787549425E0,9.676799923E-2,-6.931400299E-2,-9.378709793E-1
1.807593346E0,9.127700329E-2,-1.647900045E-1,-9.087380171E-1
1.827637127E0,1.109390035E-1,-2.051260024E-1,-7.968680263E-1
1.847681048E0,4.820499942E-2,-2.230999991E-2,-1.019083977E0
1.867725034E0,1.151510030E-1,1.879999996E-3,-1.121168017E0
1.887768805E0,-1.241390035E-1,3.437300026E-2,-7.347429991E-1
1.907812745E0,3.947500139E-2,-4.676900059E-2,-3.600740135E-1
1.927856517E0,3.849099949E-2,-1.011840031E-1,-3.065539896E-1
1.947900453E0,-1.298040003E-1,-4.408999812E-3,-5.032320023E-1
1.967944224E0,1.555999974E-3,-5.137199908E-2,-8.186420202E-1
1.987988154E0,1.151250005E-1,-9.039899707E-2,-9.069949985E-1
2.008031925E0,8.493500203E-2,-3.477999941E-3,-1.102758050E0
2.028075838E0,8.823399991E-2,-6.448700279E-2,-1.109251022E0
2.048119599E0,9.217000008E-2,-1.264010072E-1,-9.250869751E-1
2.068163515E0,-1.354999957E-3,-1.087879986E-1,-1.019345999E0
2.088207262E0,-2.336500026E-2,-1.103420034E-1,-8.630959988E-1
2.108251164E0,4.337099940E-2,-1.173690036E-1,-6.608380079E-1
2.128294945E0,4.648499936E-2,-3.166799992E-2,-9.470270276E-1
2.148338948E0,1.536590010E-1,-9.270899743E-2,-9.782860279E-1
2.168382854E0,1.889999956E-2,-9.907600284E-2,-7.561540008E-1
2.188426642E0,5.646499991E-2,-1.677110046E-1,-7.852129936E-1
2.208470577E0,8.827900141E-2,-6.441800296E-2,-1.120736957E0
2.228514343E0,4.752099887E-2,-8.173400164E-2,-9.042019844E-1
2.248558265E0,5.665599927E-2,-9.969700128E-2,-7.432960272E-1
2.268602022E0,8.317399770E-2,-7.765500247E-2,-7.476009727E-1
2.288645943E0,-6.142599881E-2,1.120899990E-2,-8.492519855E-1
2.308689947E0,-2.555200085E-2,-1.097999979E-3,-8.129870296E-1
2.328733704E0,-1.580799930E-2,-6.212199852E-2,-6.106190085E-1
2.348777654E0,4.557599872E-2,-1.188250035E-1,-5.253649950E-1
2.368821435E0,6.073499843E-2,-1.026619971E-1,-8.118709922E-1
2.388865361E0,5.493399873E-2,3.847900033E-2,-1.135736942E0
2.408909132E0,8.174300194E-2,5.197999999E-3,-1.143327951E0
2.428953067E0,1.918299943E-1,-1.329569966E-1,-8.825730085E-1
2.448996830E0,1.829120070E-1,-1.647450030E-1,-6.419929862E-1
2.469040813E0,-3.134000115E-3,-1.353600025E-1,-5.459610224E-1
2.489084743E0,-6.014300138E-2,-2.080249935E-1,-3.601160049E-1
2.509128507E0,-8.203999698E-2,-4.818199947E-2,-6.004710197E-1
2.529172423E0,3.061600029E-2,-4.742800072E-2,-8.852580190E-1
2.549216214E0,2.930600010E-2,-7.101800293E-2,-8.267359734E-1
2.569260135E0,4.227200150E-2,-1.496499963E-2,-9.187039733E-1
2.589303892E0,9.238400310E-2,-5.772000179E-3,-9.678800106E-1
2.609347818E0,-2.376999939E-3,-2.044899948E-2,-6.949639916E-1
2.629391818E0,-9.856799990E-2,8.759999648E-3,-4.533770084E-1
2.649435622E0,-3.620500118E-2,-6.152699888E-2,-2.562429905E-1
2.669479529E0,-5.651599914E-2,-2.291999944E-2,-4.715299904E-1
2.689523311E0,-5.918199942E-2,6.071100011E-2,-8.312230110E-1
2.709567246E0,1.148770005E-1,-1.982999966E-3,-9.076669812E-1
2.729611265E0,1.629049927E-1,-1.023650020E-1,-6.529589891E-1
2.749654949E0,5.285400152E-2,-1.397709996E-1,-4.582389891E-1
2.769698942E0,2.347999951E-3,-1.242249981E-1,-6.148689985E-1
2.789742710E0,1.606900059E-2,-1.119450033E-1,-6.081190109E-1
2.809786640E0,-7.484999951E-3,-3.281000070E-3,-6.683350205E-1
2.829830392E0,7.804799825E-2,-3.525999933E-2,-8.074859977E-1
2.849874318E0,8.409400284E-2,-4.571799934E-2,-7.239590287E-1
2.869918036E0,-2.736999886E-3,-6.413099915E-2,-6.399409771E-1
2.889962034E0,-2.475999994E-3,-4.908400029E-2,-5.254359841E-1
2.910005959E0,2.789499983E-2,-8.690500259E-2,-4.852930009E-1
2.930049709E0,9.045799822E-2,-4.789000005E-2,-5.935770273E-1
2.950093635E0,-2.623999957E-3,1.762400009E-2,-5.770779848E-1
2.970137392E0,6.397199631E-2,-5.529800057E-2,-4.442510009E-1
2.990181298E0,-4.655800015E-2,2.860300057E-2,-5.731670260E-1
3.010225051E0,-2.415999956E-2,-1.316499989E-2,-3.966250122E-1
3.030268958E0,-4.035999998E-2,-4.869399965E-2,-8.163899928E-2
3.050312728E0,5.876599997E-2,-7.438299805E-2,-2.436809987E-1
3.070356741E0,-4.980700091E-2,-2.189599909E-2,-5.543889999E-1
3.090400671E0,1.040809974E-1,2.206500061E-2,-9.873210192E-1
3.110444383E0,-7.502199709E-2,6.435000151E-2,-7.942399979E-1
3.130488386E0,8.585800231E-2,-1.059210002E-1,-3.564879894E-1
3.150532176E0,1.542059928E-1,-1.506469995E-1,-1.843699962E-1
3.170576169E0,3.908000141E-2,-7.027599961E-2,-2.800860107E-1
3.190619901E0,1.077300031E-2,1.009500027E-2,-6.865109801E-1
3.210663914E0,-5.219899863E-2,2.886299975E-2,-3.351230025E-1
3.230707848E0,2.347799949E-2,-1.069500018E-2,-2.188069969E-1
3.250751618E0,9.079500288E-2,-1.086099967E-1,-2.548309863E-1
3.270795530E0,-1.982299984E-2,-4.296100140E-2,-4.913859963E-1
3.290839272E0,4.677699879E-2,-3.152399883E-2,-5.366489887E-1
3.310883202E0,-2.946799994E-2,-1.174100023E-2,-3.310430050E-1
3.330927183E0,-3.868800029E-2,-5.154000130E-3,-2.439610064E-1
3.350970955E0,-5.885300040E-2,1.650699973E-2,-2.556630075E-1
3.371014857E0,3.802900016E-2,-1.620000042E-2,-2.303429991E-1
3.391058618E0,-8.994000033E-3,2.812400088E-2,-3.141539991E-1
3.411102534E0,1.182959974E-1,-6.765600294E-2,-2.737599909E-1
3.431146305E0,4.356199875E-2,-4.834600165E-2,-2.855499983E-1
3.451190207E0,4.323400185E-2,-9.759800136E-2,-1.029080003E-1
3.471234222E0,7.139799744E-2,-1.065440029E-1,-1.323769987E-1
3.491277998E0,3.915100172E-2,-2.071700059E-2,-4.932860136E-1
3.511321914E0,-4.664999992E-2,5.538300052E-2,-5.017619729E-1
3.531365685E0,-2.704700083E-2,7.459700108E-2,-4.325000048E-1
3.551409688E0,8.822999895E-3,-1.330500003E-2,-1.438689977E-1
3.571453627E0,3.464699909E-2,-1.071140021E-1,2.229700051E-2
3.591497368E0,2.297100052E-2,-9.912800044E-2,-2.336400002E-2
3.611541303E0,-1.916299947E-2,4.931999836E-3,-2.072400004E-1
3.631585050E0,-3.170699999E-2,4.698200151E-2,-2.698259950E-1
3.651628986E0,3.344900161E-2,4.173099995E-2,-1.910379976E-1
3.671672741E0,1.588999992E-3,3.142099828E-2,-7.858800143E-2
3.691716735E0,7.654800266E-2,-3.455499932E-2,-1.303970069E-1
3.711760444E0,-4.164800048E-2,1.528299972E-2,-2.853569984E-1
3.731804432E0,-4.953800142E-2,5.793099850E-2,-1.438360065E-1
3.751848357E0,-6.276600063E-2,6.023000181E-2,4.039900005E-2
3.771892145E0,8.213999681E-3,9.114000015E-3,-2.889000112E-3
3.791936066E0,2.257899940E-2,7.837999612E-3,-6.131799892E-2
3.811980066E0,-8.204600215E-2,7.539500296E-2,-2.365459949E-1
3.832023824E0,-7.686199993E-2,2.199300006E-2,-2.280399948E-1
3.852067730E0,1.256279945E-1,-1.447689980E-1,8.104299754E-2
3.872111506E0,3.180199862E-2,-7.410000265E-2,1.663899980E-2
3.892155427E0,2.095000073E-2,-7.880999893E-2,-8.707600087E-2
3.912199228E0,3.916199878E-2,-9.162999690E-3,-1.137560010E-1
3.932243226E0,-1.026600003E-1,7.796200365E-2,5.228099972E-2
3.952287180E0,8.937299997E-2,-1.008900031E-1,2.347089946E-1
3.972330953E0,4.777099937E-2,-1.400479972E-1,3.518880010E-1
3.992374870E0,1.256249994E-1,-9.106200188E-2,1.885139942E-1
4.012418665E0,-6.564199924E-2,6.906499714E-2,4.563400149E-2
4.032462582E0,-7.758200169E-2,8.831200004E-2,1.189310029E-1
4.052506362E0,-6.401000172E-2,1.266690046E-1,1.127099991E-2
4.072550341E0,-4.808700085E-2,1.337549984E-1,-1.706079990E-1
4.092594252E0,-9.229400009E-2,5.666000023E-2,-7.726799697E-2
4.112638006E0,-1.151790023E-1,6.148200110E-2,1.097690016E-1
4.132681908E0,1.685699970E-1,-1.069350019E-1,1.590179950E-1
4.152725694E0,-1.565000042E-3,-5.838099867E-2,8.544799685E-2
4.172769625E0,-6.363900006E-2,-3.017199971E-2,2.302819937E-1
4.192813606E0,-1.050100010E-2,-1.148329973E-1,3.103139997E-1
4.212857372E0,8.064900339E-2,-1.303180009E-1,1.347060055E-1
4.232901297E0,3.411100060E-2,-1.200699992E-2,-2.330670059E-1
4.252945069E0,2.491199970E-2,5.693100020E-2,-3.545320034E-1
4.272988961E0,3.449400142E-2,5.378999934E-2,-1.535730064E-1
4.293032747E0,4.385900125E-2,-3.809700161E-2,1.745550036E-1
4.313076673E0,-2.324499935E-2,-1.179100014E-2,1.206300035E-1
4.333120653E0,-1.855799928E-2,7.963000238E-2,-1.767950058E-1
4.353164419E0,-6.701999903E-2,1.019539982E-1,-5.631799996E-2
4.373208441E0,-6.679599732E-2,7.207500190E-2,2.383839935E-1
4.393252372E0,4.112000111E-3,-2.314100042E-2,2.745009959E-1
4.413296155E0,-5.498399958E-2,-2.203500085E-2,1.314260066E-1
4.433340076E0,-1.162030026E-1,2.178400010E-2,7.868999988E-2
4.453383867E0,3.907899931E-2,-4.898599908E-2,1.205490008E-1
4.473427797E0,8.243100345E-2,-8.781900257E-2,2.843699977E-2
4.493471588E0,8.623000234E-2,-6.430699676E-2,-1.467279941E-1
4.513515509E0,5.608800054E-2,-1.461800002E-2,-3.123730123E-1
4.533559509E0,6.205999851E-2,-1.110000012E-4,-1.528680027E-1
4.553603285E0,4.310400039E-2,1.363299973E-2,-1.929900050E-2
4.573647220E0,-4.430799931E-2,5.962200090E-2,-1.132600009E-2
4.593691254E0,-9.708999842E-2,1.380839944E-1,8.459299803E-2
4.613735012E0,-2.035519928E-1,1.597039998E-1,4.568099976E-2
4.633778948E0,2.456899919E-2,5.228000227E-3,-1.602450013E-1
4.653822714E0,3.073699959E-2,-7.396200299E-2,3.067019880E-1
4.673866640E0,7.275699824E-2,-1.218400002E-1,2.756620049E-1
4.693910391E0,8.775400370E-2,-1.032069996E-1,7.743900269E-2
4.713954399E0,3.470100090E-2,-3.285200149E-2,1.124980003E-1
4.733998330E0,1.268399972E-2,1.881100051E-2,7.637999952E-2
4.754042113E0,1.620600000E-2,5.466299877E-2,6.996399909E-2
4.774086111E0,-5.361299962E-2,9.731599689E-2,-8.571600169E-2
4.794129796E0,-5.820799991E-2,1.053880006E-1,-2.375990003E-1
4.814173779E0,6.626600027E-2,1.288700011E-2,-1.479899976E-2
4.834217723E0,-3.814699873E-2,-1.536200009E-2,3.143360019E-1
4.854261484E0,5.315999966E-3,-2.372599952E-2,1.857050061E-1
4.874305462E0,-1.336099952E-1,7.175099850E-2,4.778999835E-3
4.894349156E0,-7.833199948E-2,4.376399890E-2,-9.147999808E-3
4.914393150E0,5.200500041E-2,-3.086199984E-2,5.778900161E-2
4.934437074E0,-1.925200038E-2,-1.778700016E-2,-1.437100023E-2
4.954480829E0,-9.500999935E-3,-3.470100090E-2,-2.951399982E-2
4.974524769E0,6.661400199E-2,-6.205200031E-2,3.521599993E-2
4.994568545E0,-2.342000045E-2,-1.249899995E-2,-1.634179950E-1
5.014612557E0,4.064499959E-2,-2.681099996E-2,4.569000006E-2
5.034656487E0,1.468569934E-1,-1.261570007E-1,2.513779998E-1
5.054700251E0,7.669100165E-2,-5.649000034E-2,1.567510068E-1
5.074744244E0,6.814000197E-3,2.104100026E-2,3.075999953E-2
5.094787939E0,-5.626399815E-2,8.673600107E-2,-6.801900268E-2
5.114831942E0,-1.126130000E-1,1.350409985E-1,-6.181599945E-2
5.134875853E0,-9.325000457E-3,2.915100008E-2,6.817000359E-2
5.154919612E0,-5.005899817E-2,1.476099994E-2,2.124059945E-1
5.174963533E0,-1.674409956E-1,4.046500102E-2,1.287530065E-1
5.195007547E0,1.444090009E-1,-9.124200046E-2,5.271799862E-2
5.215051319E0,-3.514099866E-2,2.888399921E-2,-8.898899704E-2
5.235095235E0,2.461099997E-2,2.690199949E-2,-1.230219975E-1
5.255139021E0,1.224540025E-1,-9.965000302E-2,-9.321299940E-2
5.275182957E0,7.000699639E-2,-7.810600102E-2,2.107499912E-2
5.295226962E0,-1.442119926E-1,-1.550399978E-2,1.466829926E-1
5.315270729E0,7.842200249E-2,-1.325410008E-1,2.456929982E-1
5.335314727E0,3.332599998E-2,-5.696500093E-2,1.518909931E-1
5.355358421E0,1.173999975E-3,5.591500178E-2,-2.422869951E-1
5.375402433E0,9.300699830E-2,8.246199787E-2,-1.899349988E-1
5.395446363E0,-1.573950052E-1,1.515190005E-1,9.243000299E-3
5.415490118E0,-1.942149997E-1,1.851029992E-1,1.950200088E-2
5.435534111E0,3.590000095E-3,8.512199670E-2,4.571399838E-2
5.455578041E0,-6.360500306E-2,4.258999974E-2,4.835800081E-2
5.475621801E0,3.539299965E-2,-5.957100168E-2,1.592050046E-1
5.495665731E0,1.830710024E-1,-1.652259976E-1,2.000869960E-1
5.515709488E0,3.343699872E-2,-6.763400137E-2,9.526000172E-2
5.535753486E0,1.035999972E-3,-3.816000000E-2,-1.076500025E-2
5.555797420E0,-2.471599914E-2,-2.823900059E-2,2.180940062E-1
5.575841190E0,-1.167239994E-1,2.123000100E-3,2.781729996E-1
5.595885188E0,-6.955300272E-2,5.852700025E-2,6.920000073E-3
5.615929099E0,2.614800073E-2,6.635700166E-2,-1.418090016E-1
5.635972868E0,-5.906999856E-2,9.151100367E-2,-2.330020070E-1
5.656016871E0,-1.116750017E-1,9.312999994E-2,-1.676360071E-1
5.676060796E0,1.854889989E-1,-6.034599990E-2,2.639500052E-2
5.696104537E0,8.528900146E-2,-6.151099876E-2,-5.483999848E-2
5.716148438E0,1.174890026E-1,-7.758399844E-2,5.694299936E-2
5.736192224E0,2.205120027E-1,-1.146930009E-1,1.626079977E-1
5.756236227E0,-7.261399925E-2,7.813000120E-3,2.407560050E-1
5.776280217E0,-1.021800004E-2,-4.569999874E-4,8.566799760E-2
5.796324152E0,-9.561699629E-2,4.555200040E-2,-1.669199951E-2
5.816367896E0,-2.366289943E-1,1.674799994E-2,2.256940007E-1
5.836411833E0,-1.631509960E-1,-5.498399958E-2,2.921409905E-1
5.856455833E0,-1.369709969E-1,8.279000409E-3,-8.098000288E-2
5.876499599E0,-5.940699950E-2,4.351599887E-2,-2.266319990E-1
5.896543505E0,1.873500086E-2,1.043699980E-1,-3.973760009E-1
5.916587251E0,2.570600063E-2,6.551700085E-2,-1.921409965E-1
5.936631187E0,7.981300354E-2,-1.650300063E-2,9.686999768E-2
5.956675183E0,4.472399876E-2,-1.266899984E-2,-2.476499975E-2
5.976719178E0,-1.059800014E-2,9.086900204E-2,-1.162910014E-1
5.996762872E0,2.354099974E-2,-4.660400003E-2,9.242799878E-2
6.016806880E0,9.689799696E-2,-1.242289990E-1,3.280180097E-1
6.036850665E0,1.496369988E-1,-1.116489992E-1,2.680259943E-1
6.056894644E0,4.269500077E-2,-1.053600013E-2,1.377039999E-1
6.076938554E0,1.883199997E-2,5.669400096E-2,9.453800321E-2
6.096982343E0,-5.259599909E-2,8.389399946E-2,1.505829990E-1
6.117026360E0,-9.271500260E-2,9.638399631E-2,1.554380059E-1
6.137070314E0,-7.704500109E-2,1.259689927E-1,-1.536599994E-1
6.157114083E0,6.883999705E-2,1.654000022E-3,-1.148530021E-1
6.177157999E0,8.644200116E-2,-8.713900298E-2,1.084889993E-1
6.197201985E0,5.132199824E-2,-7.918699831E-2,1.458259970E-1
6.217245766E0,4.724700004E-2,-5.815299973E-2,-1.671699993E-2
6.237289789E0,1.225799993E-1,-9.171000123E-2,1.300189942E-1
6.257333709E0,-8.506099880E-2,2.125000115E-3,2.635729909E-1
6.277377488E0,-8.320199698E-2,6.044200063E-2,5.411000177E-2
6.297421486E0,-9.332100302E-2,9.081400186E-2,1.616999973E-3
6.317465411E0,-1.257849932E-1,8.250799775E-2,-6.411600113E-2
6.337509176E0,-4.505999852E-3,1.300700009E-2,-8.786900342E-2
6.357553102E0,1.189749986E-1,-9.787900001E-2,4.676400125E-2
6.377597107E0,1.112359986E-1,-9.992299974E-2,4.508600011E-2
6.397640878E0,1.100139990E-1,-7.300099730E-2,2.696900070E-2
6.417684861E0,8.747400343E-2,-2.462900057E-2,-3.821099922E-2
6.437728767E0,-5.836899951E-2,6.494499743E-2,5.475199968E-2
6.457772536E0,-1.824299991E-2,4.971799999E-2,1.965029985E-1
6.477816529E0,-1.205120012E-1,7.880199701E-2,2.861439884E-1
6.497860460E0,-6.288599968E-2,9.789399803E-2,2.204100043E-1
6.517904243E0,-2.833300084E-2,8.496899903E-2,1.209449992E-1
6.537948232E0,-4.253200069E-2,2.057000063E-2,3.288590014E-1
6.557992157E0,1.578000025E-3,-5.616899952E-2,4.024870098E-1
6.578036159E0,2.432999946E-2,-4.106299952E-2,2.759250104E-1
6.598079916E0,-6.938699633E-2,-5.644999910E-3,1.695999992E-3
6.618123914E0,-6.693600118E-2,4.416099936E-2,-4.676000029E-2
6.638167820E0,-1.715639979E-1,9.004600346E-2,1.273850054E-1
6.658211809E0,8.563199639E-2,-7.875800133E-2,5.297030210E-1
6.678255560E0,1.391189992E-1,-2.186470032E-1,3.906039894E-1
6.698299481E0,-7.449000143E-3,-8.061199635E-2,2.463559955E-1
6.718343477E0,-2.001800016E-2,6.938199699E-2,-3.519799933E-2
6.738387262E0,-5.022900179E-2,1.582279950E-1,1.159499958E-2
6.758431250E0,-1.549880058E-1,1.946599931E-1,4.078440070E-1
6.778475245E0,-8.832900226E-2,1.438229978E-1,4.340449870E-1
6.798519176E0,3.465000167E-2,6.309600174E-2,2.269980013E-1
6.818562945E0,3.354400024E-2,-1.203600038E-2,4.219239950E-1
6.838606943E0,2.757200040E-2,-5.634799972E-2,5.223649740E-1
6.858650943E0,9.036300331E-2,-9.923599660E-2,6.165440083E-1
6.878694923E0,-2.621000074E-2,-3.253800049E-2,4.003289938E-1
6.898738833E0,-1.087400038E-2,-8.495000191E-3,3.457170129E-1
6.918782597E0,-4.341899976E-2,6.284499913E-2,2.311940044E-1
6.938826518E0,2.819999936E-4,8.833199739E-2,2.177080065E-1
6.958870505E0,-1.497029960E-1,7.908400148E-2,4.288539886E-1
6.978914510E0,4.081400111E-2,-4.844999872E-3,4.397979975E-1
6.998958285E0,-1.262750030E-1,7.429499924E-2,3.957119882E-1
7.019002298E0,-3.827999905E-2,7.287999988E-2,3.749159873E-1
7.039046317E0,-1.681599952E-2,2.974699996E-2,3.715870082E-1
7.059090242E0,1.074080020E-1,1.968800090E-2,3.974969983E-1
7.079134025E0,1.472399980E-1,8.346999995E-3,1.790789962E-1
7.099177994E0,8.954600245E-2,-5.592000205E-3,1.716469973E-1
7.119221990E0,-7.798700035E-2,3.805400059E-2,2.518459857E-1
7.139265901E0,-6.331999786E-3,3.162000095E-3,4.353590012E-1
7.159309665E0,-4.476400092E-2,-7.820000174E-4,5.805029869E-1
7.179353658E0,-7.560999691E-2,9.590000263E-4,4.890770018E-1
7.199397678E0,-1.995499991E-2,2.374999924E-3,4.702000022E-1
7.219441613E0,-3.893699870E-2,4.445400089E-2,3.879629970E-1
7.239485616E0,-8.478300273E-2,1.044790000E-1,1.787350029E-1
7.259529382E0,-6.786400080E-2,8.560500294E-2,3.162899986E-2
7.279573394E0,-5.074800178E-2,7.589899749E-2,1.497379988E-1
7.299617394E0,6.102399901E-2,-1.719200052E-2,2.611989975E-1
7.319661320E0,1.218049973E-1,-1.283120066E-1,3.332760036E-1
7.339705318E0,1.012400016E-1,-1.089019999E-1,3.577120006E-1
7.359749089E0,6.758899987E-2,-2.038300037E-2,2.894780040E-1
7.379793082E0,-1.182099991E-2,9.800700098E-2,3.271900117E-1
7.399837082E0,-6.492400169E-2,8.926899731E-2,4.880619943E-1
7.419881022E0,-1.336369962E-1,1.007900015E-1,6.619259715E-1
7.439925020E0,-9.111399949E-2,6.369499862E-2,5.464619994E-1
7.459969015E0,-7.414299995E-2,1.000839993E-1,3.702850044E-1
7.480012787E0,-4.899999872E-2,3.870000073E-4,4.716010094E-1
7.500056785E0,6.703999639E-2,-1.148729995E-1,6.839389801E-1
7.520100710E0,-2.636200003E-2,-5.031700060E-2,4.231280088E-1
7.540144712E0,1.352799963E-2,-3.888399899E-2,-7.630299777E-2
7.560188493E0,2.836100012E-2,4.049099982E-2,-1.068269983E-1
7.580232491E0,6.333999801E-3,7.954400033E-2,1.321600005E-2
7.600276496E0,1.221099962E-2,5.867199972E-2,1.235620007E-1
7.620320421E0,-6.778100133E-2,4.527200013E-2,3.989880085E-1
7.640364433E0,-4.630900174E-2,3.530000104E-3,5.864149928E-1
7.660408433E0,-1.080579981E-1,4.707999900E-2,5.184990168E-1
7.680452205E0,-7.521300018E-2,1.170589998E-1,3.247190118E-1
7.700496188E0,-9.572800249E-2,1.512829959E-1,1.645330042E-1
7.720540183E0,2.547599934E-2,1.714500040E-2,4.958359897E-1
7.740584188E0,7.798299938E-2,-1.418730021E-1,8.560019732E-1
7.760628113E0,4.381199926E-2,-1.448719949E-1,4.981260002E-1
7.780672130E0,6.106799841E-2,-4.642700031E-2,2.538999915E-2
7.800715892E0,5.605300143E-2,3.308900073E-2,1.169700027E-1
7.820759909E0,-1.487900037E-2,4.412000068E-3,3.096149862E-1
7.840803909E0,8.442600071E-2,-1.527199987E-2,2.096139938E-1
7.860847894E0,-8.669599891E-2,9.303099662E-2,2.609339952E-1
7.880891880E0,-1.405439973E-1,7.734599710E-2,4.173640013E-1
7.900935806E0,3.331999993E-3,4.789699987E-2,3.741619885E-1
7.920979813E0,-1.602100022E-2,8.987399936E-2,4.115830064E-1
7.941023594E0,-1.458220035E-1,1.626269966E-1,1.953639984E-1
7.961067578E0,-8.205999620E-3,1.061770022E-1,1.583099961E-1
7.981111563E0,5.991100147E-2,-6.722799689E-2,3.671770096E-1
8.001155558E0,7.099000365E-2,-1.516750008E-1,5.611159801E-1
8.021199503E0,1.115119979E-1,-1.009019986E-1,4.410139918E-1
8.041243491E0,1.000270024E-1,-6.986399740E-2,3.936319947E-1
8.061287505E0,1.648700051E-2,3.010700084E-2,4.489009976E-1
8.081331496E0,-8.145400137E-2,1.167180017E-1,2.303189933E-1
8.101375486E0,-1.412429959E-1,1.481139958E-1,3.519980013E-1
8.121419258E0,-9.179999679E-2,8.340000361E-2,4.415970147E-1
8.141463241E0,-2.367600054E-2,4.505100101E-2,4.131470025E-1
8.161507207E0,-8.800400048E-2,5.564400181E-2,5.049160123E-1
8.181551207E0,-1.216069981E-1,6.868399680E-2,3.452210128E-1
8.201595146E0,2.309899963E-2,-1.879400015E-2,3.526630104E-1
8.221639144E0,-3.320499882E-2,-4.891999997E-3,3.782379925E-1
8.241683134E0,-3.968799859E-2,5.508900061E-2,3.609400094E-1
8.261727139E0,-1.743200049E-2,2.336799912E-2,3.805260062E-1
8.281771153E0,-5.764700100E-2,1.008199994E-2,5.218160152E-1
8.301815153E0,-2.383499965E-2,7.414999884E-3,5.359330177E-1
8.321858929E0,8.341799676E-2,-1.348800026E-2,4.345979989E-1
8.341902927E0,7.552400231E-2,1.378399972E-2,2.472710013E-1
8.361946932E0,8.886600286E-2,3.707800061E-2,1.345109940E-1
8.381990933E0,7.174299657E-2,2.109500021E-2,2.174949944E-1
8.402034947E0,4.351300001E-2,-5.884999875E-3,2.912530005E-1
8.422078882E0,-9.540800005E-2,1.355700009E-2,4.681859910E-1
8.442122894E0,-9.948900342E-2,2.312299982E-2,5.206720233E-1
8.462166908E0,-8.828599751E-2,8.747000247E-3,6.546180248E-1
8.482210943E0,-6.837099791E-2,3.647000063E-3,4.567959905E-1
8.502254953E0,-2.151999995E-2,5.780600011E-2,1.480759978E-1
8.522298953E0,-1.918720007E-1,1.892309934E-1,7.789699733E-2
8.542342709E0,-7.952900231E-2,7.023800164E-2,3.658449948E-1
8.562386722E0,5.852400139E-2,-3.696599975E-2,4.039050043E-1
8.582430707E0,5.506000016E-3,9.300000034E-3,3.201490045E-1
8.602474688E0,-2.563199960E-2,-5.011000205E-3,3.740710020E-1
8.622518613E0,1.392550021E-1,-1.122160032E-1,3.191579878E-1
8.642562597E0,1.944299936E-1,-1.166800037E-1,3.144840002E-1
8.662606583E0,1.772059947E-1,4.428999964E-3,7.096099854E-2
8.682650636E0,1.501899958E-2,3.061899915E-2,2.209780067E-1
8.702694561E0,-1.185949966E-1,5.734200031E-2,6.639930010E-1
8.722738544E0,-1.187779978E-1,6.138399988E-2,6.392830014E-1
8.742782306E0,-1.772390008E-1,1.478880048E-1,3.758380115E-1
8.762826520E0,-1.028830037E-1,1.510549933E-1,2.721469998E-1
8.782870503E0,7.090699673E-2,4.132900015E-2,1.797589958E-1
8.802914267E0,-7.218000293E-2,2.597000077E-2,3.592570126E-1
8.822958251E0,-8.622000366E-2,-1.137799956E-2,4.142690003E-1
8.843002236E0,-6.313300133E-2,-5.015699938E-2,4.251759946E-1
8.863046236E0,5.014999956E-2,-1.377670020E-1,5.523639917E-1
8.883090236E0,8.275999874E-2,-3.700099885E-2,3.335770071E-1
8.903134250E0,1.133199967E-2,8.701100200E-2,4.483399913E-2
8.923178260E0,-6.933300197E-2,1.815840006E-1,3.232700005E-2
8.943222186E0,-9.250999987E-2,1.444379985E-1,2.918620110E-1
8.963266261E0,-6.201000139E-2,5.288200080E-2,5.408710241E-1
8.983310263E0,2.686399966E-2,-5.217599869E-2,7.270640135E-1
9.003354214E0,-5.265000090E-2,-8.777199686E-2,6.270430088E-1
9.023398198E0,9.978000075E-3,-7.144799829E-2,6.305419803E-1
9.043442193E0,3.008300066E-2,3.644400090E-2,3.987529874E-1
9.063486188E0,4.194299877E-2,6.732100248E-2,7.200000109E-4
9.083530203E0,-8.985599875E-2,1.499370039E-1,-1.002639979E-1
9.103574207E0,-8.643300086E-2,7.495000213E-2,2.685559988E-1
9.123618187E0,1.607600041E-2,-3.384799883E-2,4.381389916E-1
9.143662192E0,-4.588999785E-3,-7.005199790E-2,4.467740059E-1
9.163706206E0,5.600799993E-2,-2.194000036E-2,2.693920135E-1
9.183749997E0,-1.100519970E-1,4.229100049E-2,3.571990132E-1
9.203793975E0,-6.186100096E-2,7.003999781E-3,4.886919856E-1
9.223837975E0,7.598000020E-2,3.418099880E-2,2.357259989E-1
9.243881967E0,-7.429599762E-2,1.398710012E-1,2.477560043E-1
9.263925952E0,5.452999845E-3,1.664800011E-2,4.525679946E-1
9.283970177E0,5.188899860E-2,-1.524930000E-1,6.612750292E-1
9.304013949E0,7.824499905E-2,-1.261689961E-1,4.942109883E-1
9.324057928E0,1.343239993E-1,-2.280900069E-2,2.441709936E-1
9.344101938E0,8.546000347E-3,7.907199860E-2,2.806169987E-1
9.364145957E0,-7.424599677E-2,1.553850025E-1,1.608880013E-1
9.384189966E0,-1.050769985E-1,1.710270047E-1,1.753479987E-1
9.404233962E0,-1.527490020E-1,1.475259960E-1,3.801549971E-1
9.424277886E0,-7.669200003E-2,5.821299925E-2,4.976629913E-1
9.444321894E0,5.100499839E-2,-4.415300116E-2,5.076270103E-1
9.464365894E0,-2.156399935E-2,3.690399975E-2,2.726419866E-1
9.484409880E0,-4.158699885E-2,1.096700039E-2,3.249129951E-1
9.504453942E0,-2.513699979E-2,-7.164000068E-3,3.959980011E-1
9.524497867E0,-1.598999952E-3,-1.557900012E-2,3.882800043E-1
9.544541851E0,-6.013000011E-2,5.058300123E-2,3.600549996E-1
9.564585855E0,7.013999857E-3,5.718500167E-2,2.921099961E-1
9.584629870E0,-3.134999890E-3,8.540900052E-2,1.341470033E-1
9.604673884E0,6.283199787E-2,2.285099961E-2,3.707030118E-1
9.624717889E0,-1.974800043E-2,-2.219999908E-3,5.409749746E-1
9.644761670E0,1.180400029E-1,-9.486900270E-2,7.356079817E-1
9.664805899E0,9.179099649E-2,-4.518700019E-2,4.712390006E-1
9.684849882E0,4.367800057E-2,2.934500016E-2,2.896099985E-1
9.704893641E0,-1.131739989E-1,1.330100000E-1,2.756679952E-1
9.724937625E0,-1.231269985E-1,9.018599987E-2,5.032500029E-1
9.744981639E0,-4.635500163E-2,3.594399989E-2,5.113829970E-1
9.765025655E0,-8.187200129E-2,2.833100036E-2,3.913779855E-1
9.785069664E0,-1.211230010E-1,1.027719975E-1,1.032809988E-1
9.805113659E0,-2.058500051E-2,3.043599986E-2,1.246410012E-1
9.825157669E0,2.155099995E-2,1.269899961E-2,2.845749855E-1
9.845201654E0,-8.507499844E-2,4.406199977E-2,3.056040108E-1
9.865245640E0,3.057000041E-2,-7.150000334E-2,2.356950045E-1
9.885289635E0,5.721500143E-2,-1.214049980E-1,3.422879875E-1
9.905333635E0,-9.241099656E-2,-7.985999808E-3,2.879270017E-1
9.925377551E0,-7.995000109E-3,-4.201000091E-3,3.486469984E-1
9.945421554E0,2.524299920E-2,-3.527700156E-2,6.011090279E-1
9.965465641E0,3.177100047E-2,1.728500053E-2,3.882839978E-1
9.985509551E0,2.807299979E-2,7.133600116E-2,2.279520035E-1
1.000555355E1,1.860100031E-2,9.900999814E-2,3.045330048E-1
1.002559756E1,-1.058700010E-1,1.025390029E-1,5.970770121E-1
1.004564166E1,-1.259859949E-1,9.231200069E-2,6.182699800E-1
1.006568557E1,-7.885800302E-2,1.135869995E-1,4.663980007E-1
1.008572956E1,-1.319899969E-2,6.379099935E-2,3.494989872E-1
1.010577353E1,6.933800131E-2,2.805699967E-2,3.473989964E-1
1.012581754E1,-1.937000081E-2,-6.649999879E-3,2.923449874E-1
1.014586155E1,5.969999824E-3,-3.979200125E-2,2.916809916E-1
1.016590557E1,-2.768399939E-2,-2.249499969E-2,3.980579972E-1
1.018594958E1,4.915099964E-2,-6.555800140E-2,4.805600047E-1
1.020599360E1,-3.302599862E-2,9.788000025E-3,3.319990039E-1
1.022603761E1,6.746800244E-2,7.318499684E-2,5.558599904E-2
1.024608140E1,-1.500700042E-2,9.125199914E-2,1.459299959E-2
1.026612562E1,-3.377000103E-3,4.354299977E-2,4.104689956E-1
1.028616961E1,2.665399946E-2,-5.616400018E-2,8.156480193E-1
1.030621362E1,8.419299871E-2,-7.761199772E-2,8.339170218E-1
1.032625762E1,-2.038599923E-2,3.131200001E-2,5.107970238E-1
1.034630138E1,-1.429199986E-2,8.282200247E-2,3.888730109E-1
1.036634559E1,4.422499985E-2,6.135100126E-2,3.372870088E-1
1.038638936E1,-1.120409966E-1,1.023349985E-1,2.241329998E-1
1.040643336E1,-1.131139994E-1,5.577600002E-2,3.455669880E-1
1.042647739E1,-1.201160029E-1,-6.250999868E-3,3.876950145E-1
1.044652136E1,-1.290560067E-1,-7.410000078E-3,3.996660113E-1
1.046656534E1,6.624999922E-3,-2.589800023E-2,3.426150084E-1
1.048660958E1,-1.303400006E-2,3.783600032E-2,2.289399952E-1
1.050665334E1,-2.119269967E-1,1.230069995E-1,2.955240011E-1
1.052669732E1,-8.840899915E-2,4.892399907E-2,2.847979963E-1
1.054674132E1,3.414800018E-2,-4.714800045E-2,4.421150088E-1
1.056678532E1,-2.786999941E-2,3.434000164E-2,4.935289919E-1
1.058682932E1,2.509599924E-2,1.292799972E-2,4.273470044E-1
1.060687331E1,2.424679995E-1,-1.257520020E-1,4.044409990E-1
1.062691731E1,6.968499720E-2,-5.654900149E-2,3.738389909E-1
1.064696131E1,5.654900149E-2,-2.434499934E-2,3.772650063E-1
1.066700533E1,5.520199984E-2,8.833999746E-3,4.074029922E-1
1.068704934E1,-9.213999845E-3,1.926600002E-2,4.152120054E-1
1.070709329E1,-4.160200059E-2,1.285530031E-1,1.633419991E-1
1.072713730E1,-6.221299991E-2,1.137470007E-1,1.525170058E-1
1.074718126E1,4.060000065E-4,4.516699910E-2,3.390640020E-1
1.076722520E1,-8.670000359E-3,-1.875199936E-2,4.839389920E-1
1.078726921E1,1.212299988E-2,-2.604999952E-2,5.596989989E-1
1.080731328E1,4.290000070E-3,-1.646699943E-2,3.940519989E-1
1.082735722E1,-1.725599915E-2,-3.791299835E-2,3.933849931E-1
1.084740124E1,-7.633999735E-2,8.262000047E-3,4.203070104E-1
1.086744523E1,-9.127900004E-2,1.023470014E-1,2.045840025E-1
1.088748922E1,-1.364700049E-1,1.505839974E-1,1.794900000E-2
1.090753323E1,-9.852399677E-2,9.645400196E-2,2.684209943E-1
1.092757725E1,-4.434400052E-2,3.539999947E-2,4.959189892E-1
1.094762102E1,4.951000214E-3,-3.902300075E-2,5.498930216E-1
1.096766526E1,5.468200147E-2,-4.972400144E-2,5.176110268E-1
1.098770904E1,2.851199917E-2,-1.309099980E-2,4.999960065E-1
1.100775303E1,1.631199941E-2,1.047800016E-2,4.254660010E-1
1.102779702E1,-1.200999948E-3,6.254000217E-2,3.993529975E-1
1.104784101E1,3.638299927E-2,1.042980030E-1,3.847469985E-1
1.106788515E1,4.027000070E-2,7.244899869E-2,3.538250029E-1
1.108792939E1,-2.501999959E-2,2.451900020E-2,4.806329906E-1
1.110797316E1,4.726999998E-2,6.062999833E-3,3.494220078E-1
1.112801717E1,-2.912499942E-2,2.328599989E-2,1.770810038E-1
1.114806118E1,-4.963399842E-2,1.408299990E-2,1.927279979E-1
1.116810516E1,-6.391199678E-2,-1.827700064E-2,5.390020013E-1
1.118814916E1,-1.909600012E-2,-1.189699955E-2,4.716970026E-1
1.120819318E1,-1.707250029E-1,4.702499881E-2,4.050180018E-1
1.122823719E1,-1.455850005E-1,8.138100058E-2,5.046420097E-1
1.124828119E1,-1.042300016E-1,1.053749993E-1,2.277980000E-1
1.126832519E1,1.095419973E-1,-3.882399946E-2,1.033629999E-1
1.128836919E1,1.207000017E-2,-4.858300090E-2,2.408149987E-1
1.130841318E1,2.501000091E-2,-5.464899912E-2,4.929940104E-1
1.132845711E1,1.027360037E-1,-2.843599953E-2,5.930420160E-1
1.134850118E1,-4.570600018E-2,8.160299808E-2,4.597969949E-1
1.136854518E1,-8.002399653E-2,1.849180013E-1,4.400469959E-1
1.138858910E1,-5.171999801E-3,1.529050022E-1,2.065840065E-1
1.140863310E1,-3.015300073E-2,8.358900249E-2,4.960739911E-1
1.142867709E1,7.530400157E-2,-6.069099903E-2,7.400100231E-1
1.144872109E1,-4.887299985E-2,2.137999982E-3,5.331060290E-1
1.146876509E1,-4.976699874E-2,-3.334299847E-2,4.679090083E-1
1.148880907E1,5.680999905E-2,-4.737100005E-2,4.599699974E-1
1.150885307E1,1.118999999E-2,-1.193100028E-2,3.399310112E-1
1.152889707E1,1.572100073E-2,8.403799683E-2,9.934899956E-2
1.154894109E1,-6.229799986E-2,9.927400202E-2,1.025860012E-1
1.156898508E1,-5.245300010E-2,3.311299905E-2,3.064689934E-1
1.158902910E1,-8.923800290E-2,-4.073499888E-2,5.640659928E-1
1.160907287E1,1.089099981E-2,-8.443400264E-2,6.038399935E-1
1.162911690E1,1.092300005E-2,-1.498399954E-2,3.957520127E-1
1.164916091E1,-6.397599727E-2,9.015099704E-2,2.754450142E-1
1.166920492E1,-5.411000177E-2,1.192319989E-1,7.746899873E-2
1.168924893E1,-5.985000171E-3,4.159099981E-2,3.406470120E-1
1.170929293E1,4.035700113E-2,-6.651999895E-3,4.219540060E-1
1.172933694E1,6.484999787E-3,-6.587000098E-3,4.103470147E-1
1.174938095E1,-1.602200046E-2,2.813600004E-2,3.646709919E-1
1.176942495E1,1.720399968E-2,2.688400075E-2,2.972100079E-1
1.178946895E1,1.145000011E-2,2.903000079E-2,3.502419889E-1
1.180951299E1,-2.339000115E-3,1.970000012E-4,1.066619977E-1
1.182955699E1,-5.869700015E-2,2.218299918E-2,2.669880092E-1
1.184960090E1,-5.629000068E-2,-6.982100010E-2,3.379029930E-1
1.186964488E1,1.073499955E-2,-4.880400002E-2,4.387789965E-1
1.188968888E1,-9.234300256E-2,1.024909988E-1,1.046489999E-1
1.190973285E1,-1.012049988E-1,8.212400228E-2,4.791799933E-2
1.192977685E1,1.707189977E-1,-6.124500185E-2,2.852600068E-2
1.194982082E1,-1.381000038E-3,-1.408299990E-2,1.401190013E-1
1.196986481E1,5.920799822E-2,-4.603699967E-2,2.707479894E-1
1.198990879E1,9.359700233E-2,-3.023100086E-2,3.513349891E-1
1.200995280E1,-4.176500067E-2,6.472100317E-2,3.068619967E-1
1.202999657E1,-1.282860041E-1,1.737869978E-1,1.676509976E-1
1.205004079E1,-8.186999708E-2,1.469430029E-1,2.582570016E-1
1.207008457E1,-2.615400031E-2,4.510200024E-2,2.848320007E-1
1.209012880E1,4.005400091E-2,-2.704600058E-2,1.863580048E-1
1.211017256E1,-2.858000109E-3,-3.291400149E-2,2.472089976E-1
1.213021678E1,6.199999916E-5,-7.290299982E-2,2.913840115E-1
1.215026054E1,3.161299974E-2,-6.288900226E-2,1.515700072E-1
1.217030455E1,2.668800019E-2,-3.271200135E-2,-1.067309976E-1
1.219034853E1,4.267700016E-2,2.039599977E-2,-2.285699993E-1
1.221039253E1,-1.196699962E-2,-3.253000090E-3,-1.073409989E-1
1.223043654E1,-2.861900069E-2,-4.000300169E-2,2.991999984E-1
1.225048053E1,1.868899912E-2,-4.007799923E-2,2.203299999E-1
1.227052454E1,-6.492999941E-2,4.120200127E-2,1.642539948E-1
1.229056854E1,-1.410840005E-1,1.204420030E-1,-7.776200026E-2
1.231061254E1,-4.388999939E-2,9.773399681E-2,-1.766110063E-1
1.233065643E1,8.168999851E-2,-2.416000003E-3,-4.892599955E-2
1.235070051E1,-5.779699981E-2,-1.143999980E-3,8.712899685E-2
1.237074452E1,-2.420000033E-3,-4.373399913E-2,1.268759966E-1
1.239078852E1,1.211759970E-1,-8.479999751E-2,1.379619986E-1
1.241083251E1,3.771600127E-2,-1.616300084E-2,-8.543100208E-2
1.243087651E1,-8.275999688E-3,-9.499000385E-3,-8.330500126E-2
1.245092042E1,2.557599917E-2,-9.363000281E-3,3.874899819E-2
1.247096443E1,-2.507999912E-2,1.449699979E-2,-6.752000190E-3
1.249100852E1,7.521000225E-3,-1.897099987E-2,4.382000118E-2
1.251105245E1,2.742700092E-2,-2.307800017E-2,7.921499759E-2
1.253109646E1,-4.071500152E-2,7.548200339E-2,9.218499810E-2
1.255114046E1,-7.536999881E-2,4.158399999E-2,3.795000166E-2
1.257118446E1,7.028599828E-2,-7.354199886E-2,-8.174999617E-3
1.259122854E1,7.572700083E-2,-7.760900259E-2,4.745399952E-2
1.261127246E1,9.686099738E-2,-5.271999910E-2,-2.589399926E-2
1.263131647E1,7.041899860E-2,-6.909000222E-3,2.579999855E-4
1.265136048E1,-6.190599874E-2,9.223400056E-2,-4.874800146E-2
1.267140447E1,-1.531569958E-1,1.156100035E-1,9.416600317E-2
1.269144847E1,-9.682399780E-2,9.093199670E-2,2.493579984E-1
1.271149247E1,-1.188500039E-2,1.215799991E-2,1.058539972E-1
1.273153646E1,1.173370034E-1,-4.366999865E-2,8.314400166E-2
1.275158047E1,1.755099930E-2,-9.634000249E-3,1.375869960E-1
1.277162423E1,-4.356800020E-2,9.570000111E-4,6.136000156E-2
1.279166844E1,3.354999935E-3,-2.121799998E-2,-8.890599757E-2
1.281171219E1,-3.611000022E-3,1.341699995E-2,-7.476899773E-2
1.283175641E1,5.672600120E-2,-1.092000050E-3,-2.158250064E-1
1.285180041E1,-5.796299875E-2,-5.940999836E-3,-6.492199749E-2
1.287184417E1,-5.925599858E-2,1.507799979E-2,1.246460006E-1
1.289188816E1,-4.947999865E-2,-2.349299937E-2,2.797780037E-1
1.291193216E1,4.186199978E-2,-3.143100068E-2,1.981009990E-1
1.293197616E1,-5.280699953E-2,3.017500043E-2,6.862399727E-2
1.295202016E1,8.058399707E-2,1.133599970E-2,-1.152700037E-1
1.297206415E1,5.650600046E-2,1.031399984E-2,-3.430699930E-2
1.299210815E1,-2.125999890E-3,-2.696399949E-2,1.135030016E-1
1.301215215E1,-1.833700016E-2,2.577000065E-3,2.072400041E-2
1.303219614E1,-3.562799841E-2,4.159000143E-2,-1.259980053E-1
1.305224014E1,-8.612999693E-3,5.294099823E-2,-2.563599944E-1
1.307228406E1,-3.341700137E-2,2.387800068E-2,-8.021900058E-2
1.309232837E1,8.315999806E-2,-6.744600087E-2,2.394790053E-1
1.311237208E1,-9.648700058E-2,-1.398800034E-2,3.781670034E-1
1.313241610E1,-1.243599970E-2,1.443799958E-2,3.441600129E-2
1.315246019E1,-6.785699725E-2,3.660399839E-2,-6.374900043E-2
1.317250411E1,2.642700076E-2,1.123800036E-2,2.145500034E-1
1.319254812E1,-4.838800058E-2,6.095600128E-2,-3.689799830E-2
1.321259212E1,6.502500176E-2,-5.383799970E-2,-8.288399875E-2
1.323263608E1,2.984100021E-2,-1.374229938E-1,1.143480018E-1
1.325268007E1,6.737700105E-2,-5.999200046E-2,-9.285199642E-2
1.327272407E1,3.941899911E-2,4.263399914E-2,-9.400000272E-5
1.329276817E1,-2.136499994E-2,1.144080013E-1,1.392370015E-1
1.331281210E1,-1.144919991E-1,1.561030000E-1,2.676199973E-1
1.333285586E1,-1.284260005E-1,1.153709963E-1,4.157609940E-1
1.335290009E1,-8.814500272E-2,3.979500011E-2,4.611760080E-1
1.337294410E1,2.008999931E-3,-6.051800027E-2,5.172569752E-1
1.339298810E1,-2.063100040E-2,-5.064100027E-2,4.510419965E-1
1.341303211E1,4.687200114E-2,-4.184199870E-2,2.758089900E-1
1.343307611E1,4.979899898E-2,-2.946000081E-3,1.106140018E-1
1.345312011E1,2.882299945E-2,2.331100032E-2,-1.021829993E-1
1.347316389E1,9.207099676E-2,8.657000028E-3,-1.625909954E-1
1.349320790E1,1.172930002E-1,-6.291799992E-2,-8.168999851E-2
1.351325190E1,-1.943599992E-2,-4.477699846E-2,6.092000008E-2
1.353329592E1,6.831999868E-3,-2.467299998E-2,1.275389940E-1
1.355334019E1,2.960900031E-2,5.800599977E-2,-1.293369979E-1
1.357338397E1,-9.170199931E-2,1.169530004E-1,-1.467269957E-1
1.359342799E1,-2.698699944E-2,7.203699648E-2,-2.800489962E-1
1.361347201E1,5.501999985E-3,-4.841199890E-2,-4.833599925E-2
1.363351601E1,-2.694899961E-2,-8.922299743E-2,1.520150006E-1
1.365356002E1,-2.960100025E-2,-3.976500034E-2,-8.951800317E-2
1.367360403E1,-1.288450062E-1,2.277999930E-2,-1.231459975E-1
1.369364803E1,5.960600078E-2,-5.451299995E-2,-5.851199850E-2
1.371369202E1,-3.186099976E-2,-3.461100161E-2,-1.260000020E-1
1.373373602E1,-1.263999962E-3,-2.736799978E-2,1.352719963E-1
1.375378002E1,-8.660000167E-4,-2.005100064E-2,-5.409900099E-2
1.377382395E1,4.857400060E-2,-2.145400085E-2,4.818199947E-2
1.379386801E1,2.081399970E-2,3.156000050E-3,1.504060030E-1
1.381391200E1,3.892799839E-2,1.413199957E-2,1.357270032E-1
1.383395598E1,5.440000095E-4,6.278000027E-2,2.796620131E-1
1.385399997E1,-3.782099858E-2,9.729400277E-2,1.528580040E-1
1.387404388E1,9.968400002E-2,1.894300058E-2,1.528059989E-1
1.389408787E1,2.012800053E-2,-7.231699675E-2,1.299320012E-1
1.391413184E1,1.929000020E-3,-5.912100151E-2,1.668519974E-1
1.393417581E1,7.351300120E-2,-8.931700140E-2,7.053399831E-2
1.395421981E1,1.781300083E-2,2.019600011E-2,-1.633940041E-1
1.397426380E1,-1.278939992E-1,9.405200183E-2,-1.546549946E-1
1.399430778E1,-1.517110020E-1,9.651099890E-2,-1.668700017E-2
1.401435178E1,-2.017600089E-2,3.615099937E-2,2.506100014E-2
1.403439578E1,2.193100005E-2,9.790999815E-3,-1.323229969E-1
1.405443978E1,-6.138899922E-2,1.287500001E-2,3.262199834E-2
1.407448376E1,2.131900005E-2,-5.843500048E-2,1.608539969E-1
1.409452776E1,-1.534499973E-2,-6.053800136E-2,2.219859958E-1
1.411457176E1,5.278100073E-2,-7.326799631E-2,6.345999986E-2
1.413461576E1,2.986700088E-2,-7.739999797E-3,-5.921199918E-2
1.415465978E1,-2.732699923E-2,3.643399850E-2,6.669899821E-2
1.417470377E1,3.816099837E-2,1.199899986E-2,1.141740009E-1
1.419474776E1,5.323500186E-2,9.569000453E-3,2.403599955E-2
1.421479154E1,-6.355999969E-3,4.245600104E-2,-1.859419942E-1
1.423483553E1,6.661000103E-2,1.196699962E-2,-1.173160002E-1
1.425487955E1,7.703500241E-2,-3.223500028E-2,2.847490013E-1
1.427492352E1,1.423320025E-1,-7.417999953E-2,2.718310058E-1
1.429496752E1,2.605899982E-2,8.929999894E-4,4.480800033E-2
1.431501150E1,-3.878999967E-3,4.537900165E-2,-1.141389981E-1
1.433505549E1,-1.868689954E-1,1.074440032E-1,6.825300306E-2
1.435509949E1,-6.238599867E-2,2.448200062E-2,3.010689914E-1
1.437514349E1,-9.270000271E-3,-1.580199972E-2,1.246810034E-1
1.439518749E1,-1.073039994E-1,1.641299948E-2,-8.468499780E-2
1.441523149E1,-1.073239967E-1,-1.123400033E-2,1.376799960E-2
1.443527548E1,-1.060799975E-2,-4.436900094E-2,1.096630022E-1
1.445531947E1,-1.340900064E-1,-9.422999807E-3,2.027069926E-1
1.447536347E1,8.615099639E-2,-7.035999745E-2,-9.583400190E-2
1.449540748E1,7.597299665E-2,-6.424999796E-3,-1.617790014E-1
1.451545142E1,-1.011329964E-1,6.777500361E-2,-2.788090110E-1
1.453549550E1,1.029950008E-1,-7.992599905E-2,-7.240999956E-3
1.455553951E1,9.620500356E-2,-8.525999635E-2,9.660899639E-2
1.457558350E1,6.737100333E-2,-3.022999968E-3,-5.150999874E-3
1.459562751E1,1.087459996E-1,-4.445400089E-2,-3.485799953E-2
1.461567147E1,1.401299983E-2,1.997300051E-2,-1.846400090E-2
1.463571542E1,-1.766999997E-2,5.904499814E-2,1.975769997E-1
1.465575942E1,-1.261519939E-1,8.890400082E-2,1.797090024E-1
1.467580344E1,-5.847499892E-2,1.227219999E-1,1.425590068E-1
1.469584745E1,1.569099911E-2,4.521799833E-2,9.823899716E-2
1.471589146E1,-6.536699831E-2,1.898900047E-2,1.588329971E-1
1.473593554E1,-1.555850059E-1,1.214400027E-2,3.181970119E-1
1.475597948E1,5.232099816E-2,-1.438670009E-1,5.184999704E-1
1.477602348E1,-6.557899714E-2,-2.775299922E-2,1.093979999E-1
1.479606749E1,1.074540019E-1,1.579499990E-2,-4.625680149E-1
1.481611148E1,6.052799895E-2,1.043649986E-1,-7.502059937E-1
1.483615548E1,2.738399990E-2,6.852100044E-2,-4.250569940E-1
1.485619948E1,1.499820054E-1,-7.669900358E-2,9.145000018E-3
1.487624347E1,6.858500093E-2,-1.009930000E-1,2.181430012E-1
1.489628747E1,-4.956000019E-3,-7.725399733E-2,2.860420048E-1
1.491633147E1,-3.669799864E-2,-3.654599935E-2,3.189559877E-1
1.493637552E1,-1.398420036E-1,-6.060999818E-3,3.477680087E-1
1.495641952E1,-8.597400039E-2,-2.322999993E-3,2.353679985E-1
1.497646352E1,-5.057999864E-2,4.389999900E-3,1.310839951E-1
1.499650750E1,-4.101699963E-2,6.332399696E-2,-2.763799950E-2
1.501655127E1,-2.710000053E-2,1.145469993E-1,-2.908869982E-1
1.503659527E1,-1.956200041E-2,8.520299941E-2,-2.281070054E-1
1.505663950E1,1.308249980E-1,-2.311600000E-2,-9.967599809E-2
1.507668350E1,9.678100049E-2,-5.255699903E-2,-5.279900134E-2
1.509672727E1,9.152399749E-2,-8.399999933E-4,5.163000152E-2
1.511677123E1,6.445299834E-2,-5.731999874E-3,1.173999975E-3
1.513681525E1,-3.373400122E-2,-8.721999824E-3,-1.092899963E-2
1.515685925E1,-9.057000279E-2,6.329099834E-2,9.223400056E-2
1.517690326E1,-9.080400318E-2,5.976200104E-2,2.928450108E-1
1.519694728E1,9.293700010E-2,-1.044389978E-1,2.825460136E-1
1.521699130E1,2.228200063E-2,-7.586000115E-2,3.371400014E-2
1.523703532E1,-4.342199862E-2,9.565999731E-3,-6.188600138E-2
1.525707932E1,1.349900011E-2,-3.302099928E-2,1.440750062E-1
1.527712333E1,-7.123000175E-2,6.364200264E-2,8.827400208E-2
1.529716733E1,-6.235700101E-2,1.145159975E-1,-1.363729984E-1
1.531721128E1,2.649500035E-2,1.069099978E-1,-2.201389968E-1
1.533725536E1,3.310000151E-2,5.740400031E-2,-1.190349981E-1
1.535729936E1,5.728700012E-2,-3.931099921E-2,7.167100161E-2
1.537734335E1,1.875600033E-2,-7.350099832E-2,1.746480018E-1
1.539738735E1,1.334789991E-1,-1.077020019E-1,1.716070026E-1
1.541743127E1,6.582199782E-2,-1.241099983E-1,1.841650009E-1
1.543747539E1,-4.459000193E-3,-7.408999652E-2,1.789110005E-1
1.545751931E1,-5.803899840E-2,4.365200177E-2,-6.183300167E-2
1.547756331E1,-1.476410031E-1,1.182760000E-1,5.482700095E-2
1.549760728E1,-1.399360001E-1,1.180479974E-1,4.811000079E-2
1.551765126E1,-9.176799655E-2,8.989600092E-2,1.061199978E-2
1.553769534E1,-1.871800050E-2,2.452100068E-2,-4.975299910E-2
1.555773932E1,2.532999963E-2,-3.945000097E-2,-6.385999918E-2
1.557778324E1,6.297799945E-2,-6.952600181E-2,-1.445000023E-1
1.559782723E1,1.854220033E-1,-9.538000077E-2,-5.885599926E-2
1.561787124E1,2.028310001E-1,-1.077890024E-1,5.061599985E-2
1.563791524E1,8.890499920E-2,-1.883199997E-2,-1.095999964E-3
1.565795922E1,-1.293599978E-2,6.080500036E-2,1.303869933E-1
1.567800322E1,-8.267900348E-2,4.875899851E-2,1.952040046E-1
1.569804724E1,7.807000075E-3,1.810199954E-2,2.054699957E-1
1.571809123E1,-1.114640012E-1,6.613299996E-2,-1.289000036E-3
1.573813523E1,-7.874599844E-2,6.987900287E-2,8.184400201E-2
1.575817900E1,-6.869100034E-2,2.687400021E-2,-5.820399895E-2
1.577822299E1,-4.684799910E-2,-2.377700061E-2,-5.459100008E-2
1.579826722E1,-5.230699852E-2,4.761999939E-3,-2.961900085E-2
1.581831123E1,-1.009420007E-1,1.113540009E-1,-1.494159997E-1
1.583835524E1,9.410000406E-3,1.625899971E-2,-1.328230053E-1
1.585839924E1,1.979829967E-1,-1.644169986E-1,-7.851099968E-2
1.587844302E1,6.735700369E-2,-1.319929957E-1,2.171539962E-1
1.589848702E1,6.543599814E-2,-5.552300066E-2,1.873989999E-1
1.591853126E1,2.493700013E-2,4.717100039E-2,1.562300045E-2
1.593857505E1,-1.515029967E-1,1.298560053E-1,1.322620064E-1
1.595861904E1,-1.207600012E-1,9.592700005E-2,2.057359964E-1
1.597866306E1,-2.841899917E-2,2.443400025E-2,1.093489975E-1
1.599870729E1,6.701000035E-3,-2.871299908E-2,6.459999830E-3
1.601875106E1,7.458700240E-2,-6.151999906E-2,-7.029099762E-2
1.603879506E1,-4.707799852E-2,1.358900033E-2,-4.215800017E-2
1.605883907E1,5.489800125E-2,-2.982899919E-2,-2.733499929E-2
1.607888307E1,-5.880099908E-2,-1.694999984E-3,-2.803800069E-2
1.609892708E1,3.232600167E-2,-3.691700101E-2,4.845999926E-2
1.611897099E1,3.611000022E-3,9.274999611E-3,-5.516099930E-2
1.613901505E1,6.844399869E-2,-2.061199956E-2,7.913699746E-2
1.615905906E1,-7.421799749E-2,5.089199916E-2,1.173349991E-1
1.617910304E1,-3.079199977E-2,5.712000187E-3,2.295500040E-1
1.619914704E1,5.439500138E-2,-4.309999943E-2,1.673209965E-1
1.621919094E1,4.667099938E-2,1.949499920E-2,9.944000281E-3
1.623923492E1,6.761000026E-3,2.671699971E-2,-2.004210055E-1
1.625927898E1,4.416399822E-2,2.348100021E-2,-1.076710001E-1
1.627932298E1,9.984499961E-2,-3.540600091E-2,1.664999989E-3
1.629936698E1,3.588299826E-2,-1.537299994E-2,-3.495000070E-3
1.631941089E1,-7.222999632E-2,3.175000101E-2,-2.766400017E-2
1.633945496E1,5.796499923E-2,-3.322799876E-2,1.137000024E-1
1.635949887E1,-1.083829999E-1,3.140600026E-2,1.013009995E-1
1.637954286E1,3.069400042E-2,-2.024000045E-3,3.717900068E-2
1.639958686E1,-4.444099963E-2,5.798700079E-2,1.127899997E-2
1.641963092E1,-6.347399950E-2,4.779899865E-2,-8.611100167E-2
1.643967486E1,-7.125999779E-3,-1.642799936E-2,1.053109989E-1
1.645971887E1,-5.973000079E-3,-2.590199932E-2,1.211320013E-1
1.647976287E1,1.947999932E-2,-2.395300008E-2,7.986599952E-2
1.649980686E1,1.853300072E-2,-5.204899982E-2,3.727500141E-2
1.651985086E1,2.249200083E-2,-7.884000428E-3,-2.394839972E-1
1.653989486E1,-7.264299691E-2,8.792900294E-2,-1.851159930E-1
1.655993885E1,2.324759960E-1,-8.940800279E-2,1.332429945E-1
1.657998285E1,1.454059929E-1,-7.990899682E-2,3.479999900E-1
1.660002685E1,-1.308529973E-1,1.024380028E-1,2.878769934E-1
1.662007085E1,-7.659699917E-1,8.440179825E-1,-2.852334023E0
1.664011486E1,4.712960124E-1,-6.119970083E-1,1.941594005E0
