"Time (s)","Linear Acceleration x (m/s^2)","Linear Acceleration y (m/s^2)","Linear Acceleration z (m/s^2)","Absolute acceleration (m/s^2)"
6.237021900E-2,3.973960876E-3,6.020021439E-2,2.892951965E-1,2.955191515E-1
6.737193700E-2,-3.560900688E-2,4.119157791E-2,2.767877579E-1,2.820925564E-1
7.237365600E-2,-3.750842810E-2,3.588867188E-2,2.569456100E-1,2.621372264E-1
7.737537500E-2,-5.451315641E-2,5.508756638E-2,2.434148788E-1,2.554547464E-1
8.237709400E-2,-8.573934436E-2,7.289505005E-2,1.718492508E-1,2.054192992E-1
8.737876000E-2,-1.260567009E-1,1.158890724E-1,1.347017288E-1,2.178649231E-1
9.224396900E-2,-1.157539785E-1,1.277475357E-1,1.039543152E-1,2.013080129E-1
9.724568700E-2,-7.165870070E-2,1.064953804E-1,5.635833740E-2,1.401873662E-1
1.022474060E-1,-3.367084265E-2,6.951713562E-2,5.259704590E-2,9.344948917E-2
1.072491250E-1,-3.145933151E-3,8.218336105E-2,5.391216278E-2,9.833881749E-2
1.122508440E-1,2.539139986E-2,5.826902390E-2,2.855777740E-2,6.968176937E-2
1.172525620E-1,6.590294838E-2,3.579950333E-2,8.606815338E-2,1.141601072E-1
1.220965210E-1,1.181681156E-1,2.804040909E-2,1.249580383E-1,1.742540658E-1
1.270982390E-1,1.475165486E-1,-2.266359329E-2,1.623601913E-1,2.205348098E-1
1.320999580E-1,1.348498464E-1,-5.106449127E-2,2.168855667E-1,2.604446436E-1
1.371016770E-1,3.191393614E-2,-2.864742279E-2,1.898136139E-1,1.945980015E-1
1.421033960E-1,-4.333531857E-2,-5.328321457E-2,6.619739532E-2,9.538944353E-2
1.471051140E-1,-1.105740368E-1,-4.936361313E-2,-8.863544464E-2,1.500654056E-1
1.519104790E-1,-1.383063197E-1,-5.435037613E-2,-1.892623901E-1,2.406301182E-1
1.569121980E-1,-1.491516829E-1,1.918983459E-2,-2.541131973E-1,2.952761272E-1
1.619139170E-1,-1.185405254E-1,2.820253372E-2,-2.134504318E-1,2.457810528E-1
1.669155830E-1,-1.290253699E-1,2.568244934E-2,-1.747245789E-1,2.187139976E-1
1.719173020E-1,-1.260921657E-1,3.970146179E-2,-1.723585129E-1,2.172162454E-1
1.769190210E-1,-6.605273485E-2,3.728532791E-2,-1.356697083E-1,1.554330377E-1
1.817940730E-1,1.485514641E-2,8.604860306E-2,-1.629323959E-1,1.848567097E-1
1.867957920E-1,6.536227465E-2,7.325553894E-2,-2.081432343E-1,2.301351927E-1
1.917975100E-1,6.127989292E-2,4.724597931E-2,-2.151651382E-1,2.286557337E-1
1.967992290E-1,7.430177927E-2,8.266448975E-3,-1.711902618E-1,1.868025544E-1
2.018009480E-1,9.480160475E-2,-1.476287842E-3,-6.371307373E-2,1.142316920E-1
2.068026670E-1,1.249018312E-1,-4.099845886E-3,3.600692749E-2,1.300529699E-1
2.116066770E-1,1.385967135E-1,7.095813751E-3,2.825927734E-2,1.416262205E-1
2.166083960E-1,7.542413473E-2,-1.489353180E-2,9.203910828E-3,7.742951223E-2
2.216101140E-1,-5.115538836E-2,-3.179216385E-2,-5.359745026E-2,8.062445109E-2
2.266118330E-1,-9.970021248E-2,-2.003669739E-2,-1.149568558E-1,1.534818566E-1
2.316135000E-1,-1.285322011E-1,-1.063585281E-2,-2.123699188E-1,2.484645457E-1
2.366152190E-1,-1.381892860E-1,4.349756241E-2,-2.961416245E-1,3.296789020E-1
2.414563640E-1,-1.574527621E-1,5.494928360E-2,-2.942390442E-1,3.382120802E-1
2.464580830E-1,-1.206839979E-1,4.088115692E-2,-2.085227966E-1,2.443719563E-1
2.514597500E-1,-1.269906759E-2,4.840469360E-2,-2.426815033E-2,5.561675827E-2
2.564615210E-1,2.915871143E-2,6.286191940E-2,5.048179626E-2,8.573367552E-2
2.614631870E-1,2.054435015E-2,4.400014877E-2,6.284523010E-2,7.942044045E-2
2.664649060E-1,2.375668287E-2,1.378679276E-2,9.610843658E-2,9.995642660E-2
2.713217810E-1,8.567142487E-2,-2.073812485E-2,1.593427658E-1,1.820982698E-1
2.763234480E-1,1.465173364E-1,-2.422094345E-2,1.768455505E-1,2.309292807E-1
2.813251670E-1,1.902191639E-1,-5.832529068E-2,2.176046371E-1,2.948507215E-1
2.863268850E-1,1.629590988E-1,-6.861877441E-2,2.084836960E-1,2.733672540E-1
2.913286040E-1,1.319101453E-1,-1.025619507E-1,2.138662338E-1,2.714000850E-1
2.963303230E-1,4.064160585E-2,-8.447360992E-2,2.334566116E-1,2.515740853E-1
3.013320420E-1,-3.002524376E-2,-8.559370041E-2,1.845960617E-1,2.056781535E-1
3.061300100E-1,-8.779591322E-2,-7.267713547E-2,8.498859406E-2,1.421729563E-1
3.111317290E-1,-1.096660793E-1,-3.885746002E-2,-1.014709473E-3,1.163511099E-1
3.161333960E-1,-8.236426115E-2,-5.455017090E-3,-4.556179047E-2,9.428417405E-2
3.211351140E-1,-2.554756403E-2,1.821756363E-2,-8.474540710E-2,9.036781328E-2
3.261368330E-1,1.086384058E-2,3.216075897E-2,-1.397819519E-1,1.438448175E-1
3.311385520E-1,-9.973704815E-3,6.245326996E-2,-6.677627563E-2,9.197258670E-2
3.360162600E-1,-3.040379286E-2,7.100772858E-2,-5.622482300E-2,9.553909597E-2
3.410179790E-1,-8.561387658E-2,4.867839813E-2,6.042480469E-3,9.867032927E-2
3.460196980E-1,-8.524838090E-2,5.257511139E-2,3.903961182E-2,1.074966049E-1
3.510214170E-1,-5.153334141E-2,3.979063034E-2,2.441215515E-2,6.953368147E-2
3.560231350E-1,2.669477463E-2,5.533266068E-2,-2.056598663E-2,6.478637307E-2
3.610248020E-1,9.446924925E-2,3.988742828E-2,-5.067253113E-2,1.143816043E-1
3.658286040E-1,1.118265986E-1,5.846023560E-3,-7.565212250E-2,1.351392163E-1
3.708302710E-1,8.430141211E-2,-3.940916061E-2,-5.785369873E-2,1.095758207E-1
3.758320420E-1,1.234066486E-2,-8.874464035E-2,-9.631156921E-3,9.011471791E-2
3.808337600E-1,-3.275358677E-2,-1.019744873E-1,4.850387573E-3,1.072152963E-1
3.858354270E-1,-1.319634318E-1,-1.030220985E-1,-3.291130066E-2,1.706196174E-1
3.908371460E-1,-2.418302894E-1,-4.938554764E-2,-9.867668152E-2,2.658155538E-1
3.957146460E-1,-2.276917994E-1,-1.504564285E-2,-1.849870682E-1,2.937518379E-1
4.007163640E-1,-1.572901011E-1,3.582191467E-2,-2.940216064E-1,3.353685890E-1
4.057180830E-1,-6.656154990E-2,4.871082306E-2,-3.097448349E-1,3.205386825E-1
4.107198020E-1,-3.272414207E-3,2.634716034E-2,-3.089466095E-1,3.100852932E-1
4.157214690E-1,7.088291645E-2,6.360578537E-2,-2.444791794E-1,2.623740706E-1
4.207231870E-1,1.254403591E-1,1.029324532E-1,-1.526069641E-1,2.227538083E-1
4.255598540E-1,1.489860415E-1,8.255434036E-2,-4.061317444E-2,1.751042250E-1
4.305615730E-1,1.159492135E-1,2.451229095E-2,2.977371216E-2,1.221947072E-1
4.355632920E-1,7.654571533E-2,2.342224121E-3,1.089172363E-1,1.331453977E-1
4.405650100E-1,1.432275772E-2,-3.891706467E-2,1.731166840E-1,1.780142286E-1
4.455666770E-1,-2.575612068E-2,-3.736162186E-2,2.390737534E-1,2.433424091E-1
4.505683960E-1,-5.320131779E-2,-9.984016418E-3,2.428178787E-1,2.487781804E-1
4.554129270E-1,-9.214732051E-2,-3.283882141E-2,1.803674698E-1,2.051875752E-1
4.604146460E-1,-1.166159809E-1,-6.008005142E-2,1.186342239E-1,1.768699484E-1
4.654163640E-1,-1.080188155E-1,-5.580186844E-2,1.953887939E-2,1.231408983E-1
4.704180830E-1,-9.531104565E-2,-2.277231216E-2,-2.649497986E-2,1.015123519E-1
4.754198020E-1,-1.211900115E-1,-4.676866531E-2,-1.049804688E-2,1.303247326E-1
4.804215210E-1,-2.890700102E-2,-3.241777420E-2,3.131675720E-2,5.354685867E-2
4.852644370E-1,3.616636992E-2,1.232337952E-2,1.178293228E-1,1.238693720E-1
4.902661560E-1,7.719010115E-2,-7.637023926E-3,8.267688751E-2,1.133671186E-1
4.952678750E-1,1.065606475E-1,-2.530002594E-2,1.570291519E-1,1.914508226E-1
5.002695940E-1,1.078372002E-1,-5.262231827E-2,2.544555664E-1,2.813282876E-1
5.052712600E-1,7.655507326E-2,-3.532457352E-2,3.227634430E-1,3.335936823E-1
5.102729790E-1,8.625721931E-2,-1.882219315E-2,2.911262512E-1,3.042187979E-1
5.150890730E-1,3.204280138E-2,1.953125000E-3,2.149438858E-1,2.173279316E-1
5.200907920E-1,2.834415436E-2,2.233362198E-2,8.273983002E-2,9.026661192E-2
5.250925100E-1,7.765650749E-3,2.599191666E-2,-3.154182434E-2,4.160254494E-2
5.300942290E-1,1.055240631E-2,2.264070511E-2,-1.020307541E-1,1.050439412E-1
5.350958960E-1,5.789381266E-2,5.046844482E-2,-1.529874802E-1,1.711838969E-1
5.400976140E-1,5.203598738E-2,4.286527634E-2,-1.680593491E-1,1.810776648E-1
5.449353750E-1,3.860479593E-2,7.123136520E-2,-1.902446747E-1,2.067783207E-1
5.499317810E-1,5.969524384E-3,7.588863373E-2,-1.649074554E-1,1.816292620E-1
5.549281870E-1,-9.815752506E-3,5.222463608E-2,-1.826286316E-1,1.902024676E-1
5.599245940E-1,-1.332819462E-3,1.702594757E-2,-1.694297791E-1,1.702883124E-1
5.649210000E-1,1.709496975E-2,8.403778076E-3,-1.113891602E-1,1.130062232E-1
5.699174580E-1,2.420020103E-2,-2.841711044E-2,-1.561002731E-1,1.605007077E-1
5.747879790E-1,3.166329861E-2,-2.904510498E-2,-1.934528351E-1,1.981670558E-1
5.797843850E-1,8.769571781E-3,-6.024646759E-2,-1.713237762E-1,1.818196319E-1
5.847807920E-1,-6.426632404E-3,-9.558916092E-2,-1.234893799E-1,1.562952854E-1
5.897771980E-1,-1.422774792E-2,-1.186084747E-1,-7.380199432E-2,1.404177106E-1
5.947736040E-1,-4.567939043E-2,-1.127600670E-1,-3.890037537E-2,1.277289263E-1
5.997700620E-1,-4.629182816E-2,-1.020340919E-1,-9.224033356E-2,1.451281103E-1
6.046329790E-1,-4.394888878E-3,-9.816074371E-2,-1.429243088E-1,1.734422229E-1
6.096293850E-1,1.154482365E-3,-6.048583984E-2,-2.148380280E-1,2.231932972E-1
6.146257920E-1,-2.796828747E-3,-3.902101517E-2,-3.364133835E-1,3.386804194E-1
6.196221980E-1,6.683468819E-4,-1.211833954E-2,-4.669475555E-1,4.671052563E-1
6.246186040E-1,-1.953089237E-2,-2.020359039E-2,-5.327358246E-1,5.334764284E-1
6.296150620E-1,-6.322562695E-2,-3.725528717E-3,-5.105018616E-1,5.144156978E-1
6.344824580E-1,7.266503572E-2,1.893339157E-1,-4.889926910E-1,5.293783061E-1
6.394788640E-1,-5.917745829E-2,1.080341339E-1,-3.965806961E-1,4.152705072E-1
6.444752710E-1,-1.744779944E-1,-2.780675888E-2,-7.650566101E-2,1.925328610E-1
6.494716770E-1,-2.517873347E-1,-1.397938728E-1,2.747592926E-1,3.980349955E-1
6.544680830E-1,-1.624904871E-1,-9.054803848E-2,5.263576508E-1,5.582602280E-1
6.594645420E-1,-2.097797394E-2,-9.479045868E-3,6.789445877E-1,6.793347340E-1
6.643338640E-1,3.929734230E-3,2.960062027E-2,7.499055862E-1,7.504998520E-1
6.693302710E-1,-2.740204334E-2,1.183509827E-3,7.207775116E-1,7.212991709E-1
6.743267290E-1,-3.888326883E-2,-1.524448395E-3,5.852937698E-1,5.865859098E-1
6.793230830E-1,-5.019649863E-2,-7.146358490E-3,5.129833221E-1,5.154829267E-1
6.843194890E-1,-4.264187813E-2,-1.319265366E-2,4.700355530E-1,4.721501847E-1
6.893159480E-1,-2.606582642E-2,-2.194261551E-2,4.442930222E-1,4.455975709E-1
6.941709480E-1,-1.020330191E-2,-3.356552124E-2,4.143381119E-1,4.158206615E-1
6.991673020E-1,-2.380239964E-2,-1.447963715E-2,3.396844864E-1,3.408251229E-1
7.041637600E-1,-2.449512482E-3,-2.907848358E-2,2.539577484E-1,2.556288252E-1
7.091601670E-1,1.038717031E-1,-3.271102905E-3,1.761465073E-1,2.045180257E-1
7.141565730E-1,1.784719825E-1,-2.510166168E-2,3.004550934E-2,1.827158301E-1
7.191529790E-1,1.980706453E-1,-2.276992798E-2,-2.469635010E-2,2.008988797E-1
7.240600100E-1,2.391680479E-1,-1.330327988E-2,-9.089088440E-2,2.562020399E-1
7.290564170E-1,2.921766043E-1,-3.813743591E-3,-6.871414185E-2,3.001721939E-1
7.340528230E-1,3.142839670E-1,-1.339054108E-2,-7.763957977E-2,3.240086771E-1
7.390492290E-1,3.128274679E-1,-8.616924286E-3,-7.226848602E-2,3.211822071E-1
7.440456350E-1,2.996703386E-1,-4.661607742E-2,-1.144771576E-1,3.241610559E-1
7.490420940E-1,1.892959476E-1,-7.680225372E-2,-2.135381699E-1,2.955166525E-1
7.539086040E-1,7.032501698E-2,-8.024740219E-2,-2.763204575E-1,2.962064293E-1
7.589050100E-1,3.529161215E-2,-9.020090103E-2,-2.961063385E-1,3.115456052E-1
7.639014170E-1,7.379496098E-2,-5.465888977E-2,-2.707061768E-1,2.858585745E-1
7.688978230E-1,1.114881635E-1,-2.612113953E-3,-1.790580750E-1,2.109460309E-1
7.738942290E-1,1.201280355E-1,3.226613998E-2,-9.523296356E-2,1.566562034E-1
7.788906870E-1,1.073867083E-1,2.652168274E-3,-3.108406067E-2,1.118264635E-1
7.837215730E-1,1.093393564E-1,-4.350376129E-2,4.209327698E-2,1.249780624E-1
7.887179790E-1,1.020458937E-1,-3.496742249E-2,1.361894608E-1,1.737344361E-1
7.937143850E-1,9.525626898E-2,-3.400468826E-2,2.462930679E-1,2.662524195E-1
7.987107920E-1,2.974194288E-2,-1.452350616E-2,1.988954544E-1,2.016306454E-1
8.037071980E-1,-5.155187845E-2,1.397466660E-2,2.042980194E-1,2.111647892E-1
8.087036040E-1,-9.891128540E-2,-5.678176880E-3,2.454929352E-1,2.647309300E-1
8.136074060E-1,-1.627047062E-1,1.730251312E-2,2.152357101E-1,2.703675448E-1
8.186038120E-1,-2.094422281E-1,6.375074387E-2,1.235246658E-1,2.513733226E-1
8.236002710E-1,-2.040663660E-1,2.193641663E-2,3.735065460E-2,2.086129418E-1
8.285966250E-1,-1.637099087E-1,2.096652985E-3,-7.805824280E-3,1.639093074E-1
8.335930310E-1,-7.024344802E-2,4.446363449E-2,-6.690788269E-2,1.067137365E-1
8.385894890E-1,9.983456135E-2,-6.013393402E-3,-6.377029419E-2,1.186159811E-1
8.434566250E-1,5.236220360E-2,6.046295166E-2,2.716922760E-2,8.447328464E-2
8.484530310E-1,-1.061250567E-1,5.056333542E-2,3.884506226E-2,1.238067745E-1
8.534494370E-1,-1.133303940E-1,1.966571808E-2,1.143932343E-1,1.622230894E-1
8.584458440E-1,-1.104615033E-1,4.583454132E-2,2.463960648E-1,2.738860522E-1
8.634423020E-1,-1.068001390E-1,4.753589630E-2,3.371143341E-1,3.568080792E-1
8.684387080E-1,-1.071268022E-1,2.958774567E-2,3.964643478E-1,4.117469679E-1
8.732990730E-1,-9.263834357E-2,3.033399582E-2,3.272361755E-1,3.414462309E-1
8.782954790E-1,-5.192837119E-2,5.680608749E-2,2.611503601E-1,2.722553909E-1
8.832918850E-1,-2.082562447E-2,3.056144714E-2,2.479820251E-1,2.507245371E-1
8.882882920E-1,-1.879245043E-2,5.419111252E-2,2.136793137E-1,2.212434902E-1
8.932846980E-1,-2.497899532E-2,5.378055573E-2,1.393871307E-1,1.514763037E-1
8.982811560E-1,-6.779956818E-2,2.938079834E-2,1.371631622E-1,1.558003396E-1
9.031563640E-1,-1.278210580E-1,4.558324814E-2,1.350059509E-1,1.914227316E-1
9.081527710E-1,-6.908619404E-2,8.291721344E-2,1.068267822E-1,1.518556153E-1
9.131492290E-1,3.655499220E-2,1.890921593E-1,3.124713898E-2,1.951114959E-1
9.181455830E-1,-7.616880536E-2,9.932470322E-2,1.352405548E-2,1.258967182E-1
9.231419890E-1,-1.935946941E-1,-3.541517258E-2,1.507120132E-1,2.478855603E-1
9.281384480E-1,-1.790388525E-1,-1.744604111E-2,2.513303757E-1,3.090731835E-1
9.330067290E-1,-1.568855047E-1,8.811855316E-2,2.086210251E-1,2.755007679E-1
9.380031350E-1,-1.249138415E-1,1.712899208E-1,1.758098602E-1,2.754138917E-1
9.429995420E-1,-1.952900589E-1,1.417169571E-1,1.648550034E-1,2.922312015E-1
9.479960000E-1,-3.060309291E-1,9.067296982E-2,1.399478912E-1,3.485138868E-1
9.529924060E-1,-3.522064686E-1,4.697895050E-2,1.866521835E-1,4.013669841E-1
9.579888120E-1,-3.557806909E-1,6.045579910E-2,9.770393372E-2,3.738727890E-1
9.628188640E-1,-2.857971191E-1,1.003575325E-1,-4.952430725E-3,3.029457942E-1
9.678152190E-1,-1.116661429E-1,1.049065590E-1,-2.519845963E-1,2.949083762E-1
9.728116770E-1,1.183616519E-1,1.985359192E-1,-5.831203461E-1,6.272601772E-1
9.778080830E-1,-3.414714336E-2,-5.209302902E-2,-6.957845688E-1,6.985670170E-1
9.828044890E-1,-1.674091816E-2,-8.809852600E-2,-6.845502853E-1,6.903989439E-1
9.878008960E-1,1.475459337E-2,-6.582069397E-2,-7.119140625E-1,7.151025760E-1
9.927017810E-1,-8.472508192E-2,-1.382255554E-1,-5.801525116E-1,6.023799303E-1
9.976981870E-1,-7.090115547E-2,-1.004099846E-1,-3.927049637E-1,4.114928035E-1
1.002694594E0,-1.251276135E-1,-7.451152802E-2,-3.067951202E-1,3.396058499E-1
1.007691052E0,-1.949284077E-1,-6.083297729E-2,-2.762107849E-1,3.434969184E-1
1.012687406E0,-2.138236463E-1,-7.100343704E-2,-2.221660614E-1,3.164171276E-1
1.017683864E0,-1.919961572E-1,-7.142305374E-2,-2.945709229E-1,3.587977223E-1
1.022532042E0,-1.462418735E-1,-6.895208359E-2,-3.832883835E-1,4.159940628E-1
1.027528396E0,5.386376381E-2,1.030859947E-1,-5.216474533E-1,5.344568204E-1
1.032524854E0,-5.011284351E-2,-8.659315109E-2,-6.235837936E-1,6.315587214E-1
1.037521260E0,-2.732038498E-2,-1.621470451E-1,-5.825958252E-1,6.053560632E-1
1.042517667E0,1.223695278E-2,-1.861586571E-1,-4.997358322E-1,5.334235565E-1
1.047514125E0,2.077001333E-2,-2.947411537E-1,-2.801752090E-1,4.071877809E-1
1.052403969E0,1.200483441E-1,-2.385125160E-1,6.418228149E-3,2.670973959E-1
1.057396104E0,2.024981380E-1,-1.140804291E-1,2.764492035E-1,3.611703231E-1
1.062388292E0,2.633543611E-1,-3.907012939E-2,5.470247269E-1,6.083732788E-1
1.067380479E0,2.909195423E-1,-7.036924362E-2,6.805028915E-1,7.434179147E-1
1.072372667E0,2.302964926E-1,-1.026921272E-1,6.828737259E-1,7.279413939E-1
1.077364802E0,1.456344128E-1,-1.739230156E-1,6.359853745E-1,6.752303267E-1
1.082253969E0,5.858713388E-2,-2.239770889E-1,5.400524139E-1,5.875838650E-1
1.087246156E0,3.343993425E-2,-1.268177032E-1,4.594573975E-1,4.778096474E-1
1.092238292E0,2.697038651E-2,-3.316688538E-2,3.441009521E-1,3.467461742E-1
1.097230479E0,4.405409098E-2,1.931047440E-2,2.130975723E-1,2.184587666E-1
1.102222667E0,4.378283024E-2,2.878761292E-2,1.567687988E-1,1.652940385E-1
1.107214802E0,2.418154478E-2,1.207351685E-2,1.769399643E-1,1.789923682E-1
1.112101000E0,2.124351263E-2,2.388429642E-2,2.231445312E-1,2.254223331E-1
1.117093135E0,8.704394102E-2,6.145191193E-2,3.237524033E-1,3.408351563E-1
1.122085323E0,1.832710505E-1,1.007022858E-1,4.165821075E-1,4.661221735E-1
1.127077510E0,2.504698038E-1,7.719612122E-2,5.089559555E-1,5.724775353E-1
1.132069698E0,2.794510722E-1,4.607725143E-2,5.106124878E-1,5.839016420E-1
1.137061833E0,3.018597364E-1,-6.895542145E-3,4.793128967E-1,5.664871596E-1
1.141952146E0,2.676247954E-1,-4.089355469E-2,4.389715195E-1,5.157434526E-1
1.146944281E0,2.247412205E-1,-5.602216721E-2,3.017406464E-1,3.803873251E-1
1.151936469E0,2.182235718E-1,-8.539104462E-2,1.300516129E-1,2.680048130E-1
1.156928656E0,1.715185642E-1,-9.549045563E-2,2.391529083E-2,1.977599204E-1
1.161920844E0,1.274164319E-1,-1.289029121E-1,-7.675552368E-2,1.968306843E-1
1.166912979E0,9.029543400E-2,-1.094074249E-1,-1.791105270E-1,2.284815768E-1
1.171801417E0,2.215439081E-2,-1.206722260E-1,-2.094564438E-1,2.427439082E-1
1.176793604E0,-2.675855160E-2,-1.150436401E-1,-2.134799957E-1,2.439769821E-1
1.181785739E0,-3.741812706E-2,-9.729957581E-2,-1.677160263E-1,1.974740215E-1
1.186777927E0,-3.380614519E-2,-7.475519180E-2,-1.319293976E-1,1.553594545E-1
1.191770114E0,1.740503311E-2,-2.856063843E-2,-1.463766098E-1,1.501491164E-1
1.196762250E0,1.856225729E-2,-4.053592682E-3,-1.916418076E-1,1.925813371E-1
1.201612771E0,-1.344889402E-2,1.564502716E-2,-2.223587036E-1,2.233137539E-1
1.206604958E0,-7.111889124E-2,-1.941442490E-2,-2.362270355E-1,2.474631870E-1
1.211597094E0,-1.305671930E-1,1.024198532E-2,-2.976427078E-1,3.251828281E-1
1.216589281E0,-1.253095269E-1,-5.068302155E-3,-3.421363831E-1,3.643974065E-1
1.221581469E0,-1.057507992E-1,3.258323669E-2,-3.723030090E-1,3.883998318E-1
1.226573604E0,-1.099495888E-1,5.642986298E-2,-4.216241837E-1,4.393633960E-1
1.231491677E0,-9.720641375E-2,7.364654541E-2,-3.853893280E-1,4.042249803E-1
1.236483812E0,-1.012275815E-1,6.743526459E-2,-2.451725006E-1,2.736861217E-1
1.241476000E0,-8.619022369E-2,5.910301208E-2,-8.484840393E-2,1.346149039E-1
1.246468187E0,-8.061707020E-2,2.689504623E-2,6.947326660E-2,1.097678928E-1
1.251460375E0,-8.687394857E-2,1.348829269E-2,1.776084900E-1,1.981761658E-1
1.256452510E0,-8.595114946E-2,2.580642700E-2,3.159894943E-1,3.284858175E-1
1.261348760E0,-1.256065369E-1,-1.242303848E-2,3.276109695E-1,3.510844362E-1
1.266340948E0,-1.485826671E-1,-5.703926086E-3,2.752742767E-1,3.128662193E-1
1.271333083E0,-1.598868668E-1,1.713180542E-2,2.402629852E-1,2.891083032E-1
1.276325271E0,-1.404013038E-1,3.493309021E-2,1.414651871E-1,2.023493169E-1
1.281317406E0,-1.238280535E-1,3.368854523E-2,2.921009064E-2,1.316113001E-1
1.286309594E0,-1.409792900E-1,3.512954712E-2,-6.085968018E-2,1.575218904E-1
1.291199906E0,-1.439548731E-1,8.394241333E-3,-1.194543839E-1,1.872506838E-1
1.296192042E0,-1.115915775E-1,2.018308640E-2,-1.681852341E-1,2.028455326E-1
1.301184229E0,-8.921092749E-2,8.640766144E-3,-2.310152054E-1,2.477928117E-1
1.306176417E0,-3.129309416E-2,1.896762848E-2,-2.056322098E-1,2.088627166E-1
1.311168604E0,6.920415163E-2,1.989507675E-2,-1.544485092E-1,1.704094208E-1
1.316160739E0,1.833510399E-1,1.990318298E-3,-6.816577911E-2,1.956224390E-1
1.321022198E0,2.903769016E-1,2.485752106E-2,-2.080249786E-2,2.921803985E-1
1.326014385E0,5.950683355E-1,2.284059525E-1,-7.387542725E-2,6.416643841E-1
1.331006521E0,2.721086740E-1,-1.190266609E-1,-4.543972015E-2,3.004583909E-1
1.335998708E0,1.018722653E-1,-2.783250809E-1,6.115150452E-2,3.026257021E-1
1.340990896E0,-2.171933651E-2,-3.270540237E-1,5.996608734E-2,3.332146390E-1
1.345983031E0,-1.257937551E-1,-3.256359100E-1,6.602859497E-2,3.552781869E-1
1.350872771E0,-9.604662657E-2,-2.601861954E-1,1.742458344E-1,3.275414806E-1
1.355864958E0,-6.465768814E-2,-1.836061478E-1,2.223100662E-1,2.954887471E-1
1.360857094E0,-3.448474407E-2,-1.555509567E-1,2.322263718E-1,2.816280978E-1
1.365849281E0,6.499886513E-3,-1.400361061E-1,1.781988144E-1,2.267315086E-1
1.370841469E0,1.335042715E-2,-1.913161278E-1,1.247377396E-1,2.287784918E-1
1.375833604E0,1.026934385E-2,-1.922430992E-1,3.847312927E-2,1.963238404E-1
1.380720531E0,5.238920450E-2,-1.240439415E-1,-6.381893158E-2,1.490113559E-1
1.385712719E0,9.665834904E-2,-1.131124496E-1,-1.654253006E-1,2.224922308E-1
1.390704854E0,1.123325825E-1,-9.235763550E-2,-2.141513824E-1,2.588616552E-1
1.395697042E0,1.593428254E-1,-5.489253998E-2,-1.699981689E-1,2.393798329E-1
1.400689229E0,1.492981315E-1,-1.033735275E-2,-1.216259003E-1,1.928461888E-1
1.405681364E0,1.209629178E-1,-8.931636810E-3,-5.531311035E-5,1.212922284E-1
1.410568917E0,9.610414505E-2,-3.385019302E-2,9.439754486E-2,1.388983036E-1
1.415561104E0,6.260061264E-2,-6.348085403E-2,1.857242584E-1,2.060149405E-1
1.420553239E0,2.024716139E-2,-6.469154358E-2,2.550506592E-1,2.639048732E-1
1.425545427E0,2.820253372E-2,-4.250526428E-2,2.669677734E-1,2.717974843E-1
1.430537614E0,1.464205980E-2,-1.389455795E-2,2.600469589E-1,2.608291960E-1
1.435529750E0,-2.528530359E-2,-2.139854431E-2,2.129497528E-1,2.155106529E-1
1.440420219E0,-5.582380295E-2,-3.362321854E-2,9.978008270E-2,1.191758478E-1
1.445412406E0,-5.806493759E-2,-2.908134460E-2,6.575584412E-3,6.527250487E-2
1.450404542E0,-5.821561813E-2,-1.962900162E-2,-6.217384338E-2,8.740676576E-2
1.455396729E0,-3.705537319E-2,-2.938747406E-3,-1.708259583E-1,1.748234679E-1
1.460388917E0,-1.392829418E-2,2.101135254E-2,-2.644395828E-1,2.656384145E-1
1.465381052E0,-3.147095442E-2,2.622413635E-2,-3.313694000E-1,3.338919070E-1
1.470270010E0,-9.149110317E-2,4.147148132E-2,-3.932914734E-1,4.059170959E-1
1.475262146E0,-1.344729662E-1,4.775285721E-2,-4.383964539E-1,4.610366198E-1
1.480254333E0,-1.580709219E-1,1.684331894E-2,-4.313058853E-1,4.596682287E-1
1.485246521E0,-1.786092222E-1,2.720499039E-2,-3.296060562E-1,3.758743381E-1
1.490238708E0,-1.701926589E-1,2.596378326E-2,-2.099523544E-1,2.715136282E-1
1.495230844E0,-1.429600120E-1,2.956247330E-2,-9.132385254E-2,1.721962569E-1
1.500144437E0,-6.604009867E-2,3.531360626E-2,6.679630280E-2,1.003498455E-1
1.505136625E0,-6.254315376E-3,-4.532814026E-3,1.976671219E-1,1.978179818E-1
1.510128760E0,3.177064657E-2,-3.512096405E-2,2.944736481E-1,2.982575825E-1
1.515120948E0,6.705707312E-2,-3.500413895E-2,2.885456085E-1,2.982960090E-1
1.520113083E0,1.210077405E-1,-1.172065735E-2,2.615861893E-1,2.884572438E-1
1.525105271E0,1.554813981E-1,-2.214670181E-2,1.399621964E-1,2.103671979E-1
1.529994958E0,1.639516950E-1,2.934598923E-2,1.691055298E-2,1.674135961E-1
1.534987146E0,2.705476284E-1,1.808485985E-1,-1.340160370E-1,3.519410930E-1
1.539979281E0,2.781671286E-2,-2.524662018E-2,-2.027912140E-1,2.062412127E-1
1.544971469E0,-2.377438843E-1,-2.273564339E-1,9.459495544E-3,3.290935803E-1
1.549963656E0,-3.696912229E-1,-1.665706635E-1,2.531909943E-1,4.780408621E-1
1.554955792E0,-4.241721630E-1,-1.866102219E-2,3.002033234E-1,5.199925894E-1
1.559842458E0,-3.764963448E-1,1.132678986E-1,2.805900574E-1,4.830216297E-1
1.564831208E0,-3.066265881E-1,1.630110741E-1,2.233781815E-1,4.129046945E-1
1.569819906E0,-2.072975039E-1,1.743202209E-1,1.500854492E-1,3.096537367E-1
1.574808604E0,-1.564238667E-1,1.358532906E-1,1.533260345E-1,2.577468051E-1
1.579797302E0,-7.760798931E-2,6.451082230E-2,1.755247116E-1,2.024686904E-1
1.584786052E0,-2.082049847E-3,-3.777980804E-3,2.592811584E-1,2.593170399E-1
1.589696781E0,1.036584377E-1,-2.967834473E-3,3.140182495E-1,3.306982624E-1
1.594685479E0,1.826324463E-1,-2.878856659E-2,3.423967361E-1,3.891258369E-1
1.599674177E0,2.164424658E-1,-4.032087326E-2,3.515768051E-1,4.148244975E-1
1.604662875E0,2.175534964E-1,-4.018211365E-2,3.037528992E-1,3.757791237E-1
1.609651573E0,2.004215121E-1,-3.560686111E-2,2.326688766E-1,3.091463039E-1
1.614640323E0,1.702541113E-1,-3.356838226E-2,1.692800522E-1,2.424232554E-1
1.619542771E0,1.326283813E-1,-1.030616760E-1,1.847953796E-1,2.497225038E-1
1.624531521E0,9.407192469E-2,-1.580843925E-1,1.260566711E-2,1.843884623E-1
1.629520219E0,6.825196743E-2,-1.725163460E-1,-7.967281342E-2,2.019108167E-1
1.634508917E0,7.809257507E-2,-1.418385506E-1,-2.162303925E-1,2.701336842E-1
1.639497614E0,7.524746656E-2,-1.251654625E-1,-4.302349091E-1,4.543464000E-1
1.644486364E0,4.566293955E-2,-1.290860176E-1,-5.597238541E-1,5.762283374E-1
1.649392562E0,-4.588502645E-2,-5.364418030E-2,-5.365304947E-1,5.411544192E-1
1.654381312E0,-1.063699126E-1,-4.225397110E-2,-4.900875092E-1,5.032749974E-1
1.659370010E0,-1.172815561E-1,-3.982830048E-2,-4.133996964E-1,4.315559823E-1
1.664358708E0,-4.561227560E-2,-5.120944977E-2,-2.496385574E-1,2.588866485E-1
1.669347406E0,-7.845461369E-3,-8.841562271E-2,-3.983211517E-2,9.729065219E-2
1.674336156E0,-5.099952221E-2,-1.016201973E-1,1.634960175E-1,1.991445794E-1
1.679243500E0,-6.048363447E-2,-1.055240631E-1,2.963905334E-1,3.203762573E-1
1.684232250E0,-4.882007837E-2,-6.477689743E-2,3.999538422E-1,4.080962170E-1
1.689220948E0,-6.650894880E-2,-3.946447372E-2,4.746227264E-1,4.808821242E-1
1.694209646E0,-9.169304371E-2,-1.292896271E-2,4.945392609E-1,5.031340307E-1
1.699198396E0,-1.434771419E-1,3.472805023E-3,4.290266037E-1,4.523953772E-1
1.704187094E0,-1.406151652E-1,6.971025467E-2,3.141641617E-1,3.511855133E-1
1.709092562E0,6.787478924E-3,3.042073250E-1,1.194448471E-1,3.268871945E-1
1.714081312E0,-3.191588223E-1,3.503513336E-2,1.191425323E-1,3.424686226E-1
1.719070010E0,-3.790980279E-1,1.276159286E-2,2.257862091E-1,4.414267609E-1
1.724058708E0,-3.076703548E-1,3.809213638E-2,2.151699066E-1,3.773726895E-1
1.729047406E0,-2.410714030E-1,3.407001495E-3,2.618236542E-1,3.559194500E-1
1.734036156E0,-1.049650311E-1,7.793998718E-2,3.461751938E-1,3.700399494E-1
1.738941104E0,5.508995056E-2,1.774520874E-1,3.634672165E-1,4.082065206E-1
1.743929854E0,1.294203401E-1,1.568174362E-1,2.857723236E-1,3.507237569E-1
1.748918552E0,1.140303016E-1,4.814100266E-2,2.467994690E-1,2.760986123E-1
1.753907250E0,9.979915619E-2,-7.650089264E-2,1.868114471E-1,2.251905303E-1
1.758895948E0,1.479657888E-1,-1.595869064E-1,2.269172668E-2,2.188076092E-1
1.763884698E0,1.651999950E-1,-1.727261543E-1,-1.426429749E-1,2.783386086E-1
1.768789906E0,1.491854191E-1,-1.757712364E-1,-2.403373718E-1,3.330373389E-1
1.773778656E0,9.993940592E-2,-2.019333839E-1,-3.327627182E-1,4.018656530E-1
1.778767354E0,5.061155558E-2,-2.225675583E-1,-4.222803116E-1,4.800192799E-1
1.783756052E0,3.227293491E-3,-2.613320351E-1,-4.448194504E-1,5.159158763E-1
1.788744750E0,-4.215818644E-2,-2.445168495E-1,-4.127788544E-1,4.816141453E-1
1.793733500E0,-7.820057869E-2,-2.250733376E-1,-2.837619781E-1,3.705323171E-1
1.798637406E0,-9.815055132E-2,-2.055187225E-1,-1.155042648E-1,2.553677960E-1
1.803626156E0,-9.735351801E-2,-1.601219177E-1,2.297210693E-2,1.887973880E-1
1.808614854E0,-1.614736915E-1,-1.203570366E-1,1.344766617E-1,2.421642869E-1
1.813603552E0,-2.232920229E-1,-5.293178558E-2,2.239770889E-1,3.206662405E-1
1.818592302E0,-2.540872693E-1,-1.032257080E-2,2.726268768E-1,3.728167242E-1
1.823581000E0,-2.845314741E-1,3.150177002E-2,3.210783005E-1,4.301648478E-1
1.828490271E0,-2.835217714E-1,6.315660477E-2,3.003673553E-1,4.178443487E-1
1.833478969E0,-2.058854103E-1,7.288455963E-2,2.205314636E-1,3.103789420E-1
1.838467719E0,-3.289228678E-2,7.052087784E-2,1.294717789E-1,1.510564076E-1
1.843456417E0,1.492367387E-1,8.958911896E-2,3.193950653E-2,1.769687726E-1
1.848445114E0,2.834352255E-1,4.203414917E-2,-4.826545715E-2,2.905717658E-1
1.853433864E0,3.602494597E-1,9.449481964E-3,-1.185207367E-1,3.793627960E-1
1.858339177E0,3.488594294E-1,-8.491039276E-3,-2.025299072E-1,4.034765948E-1
1.863327927E0,2.900485992E-1,-3.312110901E-2,-2.265939713E-1,3.695538196E-1
1.868316625E0,2.029640079E-1,-9.286308289E-2,-2.458419800E-1,3.320485202E-1
1.873305323E0,1.234745979E-1,-1.090168953E-1,-2.555723190E-1,3.040524133E-1
1.878294021E0,7.732123137E-2,-1.198453903E-1,-2.368850708E-1,2.765068302E-1
1.883282771E0,2.654463053E-2,-1.397385597E-1,-1.638669968E-1,2.169881912E-1
1.888188396E0,-2.424895763E-3,-1.784405708E-1,-1.199798584E-1,2.150397262E-1
1.893177146E0,9.180366993E-3,-1.619324684E-1,-7.688522339E-3,1.623746188E-1
1.898165844E0,-3.157287836E-2,-8.374404907E-2,-3.413963318E-2,9.578844897E-2
1.903154542E0,-9.569501877E-2,-6.786966324E-2,-3.904533386E-2,1.236461318E-1
1.908143239E0,-1.926796436E-1,-8.991765976E-2,-4.875755310E-2,2.181465782E-1
1.913131989E0,-3.032249510E-1,-1.043405533E-1,-8.229160309E-2,3.310652956E-1
1.918040323E0,-3.538875282E-1,-9.929895401E-2,-1.180553436E-1,3.860488687E-1
1.923029021E0,-3.405620158E-1,-7.484626770E-2,-1.323165894E-1,3.729505734E-1
1.928017719E0,-2.659318447E-1,-4.073286057E-2,-9.672260284E-2,2.858918919E-1
1.933006417E0,-1.398236156E-1,7.741451263E-3,-5.447864532E-2,1.502614266E-1
1.937995114E0,-5.169928074E-3,3.443336487E-2,-2.209568024E-2,4.123837845E-2
1.942983864E0,1.024413705E-1,2.517271042E-2,7.418727875E-2,1.289637626E-1
1.947887771E0,2.068074942E-1,2.512979507E-2,1.389656067E-1,2.504242123E-1
1.952876521E0,2.535858750E-1,4.356813431E-2,1.345481873E-1,2.903570096E-1
1.957865219E0,2.125214338E-1,9.276390076E-3,1.540441513E-1,2.626423648E-1
1.962853917E0,1.321374774E-1,1.225471497E-3,1.401453018E-1,1.926201452E-1
1.967842614E0,1.265547276E-1,2.537250519E-3,9.079170227E-2,1.557744199E-1
1.972831364E0,1.115383506E-1,1.349449158E-3,5.378055573E-2,1.238344574E-1
1.977736625E0,1.087474823E-1,2.867364883E-2,9.545516968E-2,1.475123129E-1
1.982725375E0,1.037047505E-1,3.666877747E-2,1.344451904E-1,1.737089052E-1
1.987714073E0,4.625368118E-2,1.541614532E-3,1.875267029E-1,1.931529029E-1
1.992702771E0,-3.931879997E-2,-4.070043564E-2,2.759447098E-1,2.816877284E-1
1.997691521E0,-1.532208323E-1,-3.067541122E-2,3.472137451E-1,3.807558130E-1
2.002680219E0,-1.882942319E-1,-1.423931122E-2,4.324960709E-1,4.719219502E-1
2.007586833E0,-1.618275046E-1,1.570224762E-2,5.221624374E-1,5.468896716E-1
2.012575583E0,-1.570738554E-1,1.618957520E-2,5.116624832E-1,5.354743646E-1
2.017564281E0,-8.751672506E-2,-2.979755402E-3,5.252666473E-1,5.325158279E-1
2.022552979E0,-1.089680195E-2,-2.972698212E-2,4.820013046E-1,4.830400516E-1
2.027541677E0,5.372166634E-2,-1.164913177E-2,3.894309998E-1,3.932915245E-1
2.032530427E0,3.726935387E-2,2.492237091E-2,2.574081421E-1,2.612835259E-1
2.037437042E0,-4.312688112E-2,3.260374069E-2,1.336460114E-1,1.441672228E-1
2.042425792E0,-1.110807061E-1,-2.630090714E-2,5.369091034E-2,1.261482257E-1
2.047414489E0,-1.742548347E-1,-7.019138336E-2,-9.220123291E-2,2.092669230E-1
2.052403187E0,-1.687140465E-1,-4.437065125E-2,-2.465448380E-1,3.020224185E-1
2.057391885E0,-1.235851049E-1,-2.997016907E-2,-3.404817581E-1,3.634546971E-1
2.062380635E0,-2.713352442E-2,-1.742267609E-2,-3.650169373E-1,3.664384563E-1
2.067284906E0,1.014825702E-1,-3.053951263E-2,-3.824787140E-1,3.968895823E-1
2.072270844E0,1.385319829E-1,-3.374719620E-2,-2.906475067E-1,3.237374811E-1
2.077256781E0,1.064515710E-1,-4.376220703E-2,-2.163600922E-1,2.450688826E-1
2.082242771E0,9.597158432E-2,-4.178476334E-2,-1.759595871E-1,2.047395607E-1
2.087228708E0,4.272603989E-2,-1.859188080E-2,-9.542846680E-2,1.061968210E-1
2.092214646E0,2.828341722E-2,-1.237297058E-2,-4.165363312E-2,5.184657407E-2
2.097083292E0,3.356486559E-2,-2.511644363E-2,-3.593540192E-2,5.521584061E-2
2.102069229E0,2.746987343E-2,-6.634378433E-2,-4.689884186E-2,8.576475403E-2
2.107055167E0,5.264461040E-3,-1.025686264E-1,-1.975536346E-2,1.045863856E-1
2.112041156E0,-1.153749228E-2,-5.539560318E-2,-4.036617279E-2,6.950693840E-2
2.117027094E0,-5.642521381E-2,-7.488822937E-2,-9.895801544E-2,1.363258613E-1
2.122013031E0,-1.149582863E-1,-9.145307541E-2,-1.311445236E-1,1.969211991E-1
2.126985323E0,-1.537668705E-1,-8.619451523E-2,-2.321262360E-1,2.914726991E-1
2.131971260E0,-1.423870921E-1,-1.183543205E-1,-2.921962738E-1,3.459197763E-1
2.136957198E0,-1.644287705E-1,-1.114463806E-1,-3.402757645E-1,3.940110560E-1
2.141943187E0,-1.389617324E-1,-8.969593048E-2,-3.502521515E-1,3.873400220E-1
2.146929125E0,2.261996269E-4,-5.325222015E-2,-3.081836700E-1,3.127507388E-1
2.151915062E0,9.780025482E-2,-4.991483688E-2,-1.954202652E-1,2.241549929E-1
2.156835010E0,1.659137011E-1,-3.461313248E-2,-8.126354218E-2,1.879606034E-1
2.161820948E0,1.788679957E-1,-3.141689301E-2,3.436374664E-2,1.848286995E-1
2.166806885E0,1.111777425E-1,-4.995489120E-2,1.467962265E-1,1.908012413E-1
2.171792875E0,8.443343639E-2,-5.441236496E-2,2.109441757E-1,2.336389435E-1
2.176778812E0,5.083072186E-2,-3.799057007E-2,3.104534149E-1,3.168727955E-1
2.181764750E0,8.145451546E-3,3.725481033E-2,3.950815201E-1,3.969177204E-1
2.186682458E0,1.303635836E-1,2.497744560E-1,2.935981750E-1,4.069174747E-1
2.191668396E0,-4.867428541E-2,1.179904938E-1,2.645320892E-1,2.937144343E-1
2.196654333E0,-2.655111849E-1,-1.276893616E-1,4.073352814E-1,5.027154203E-1
2.201640323E0,-3.168355525E-1,-1.817727089E-1,4.019260406E-1,5.431119840E-1
2.206626260E0,-1.940115094E-1,-2.888536453E-2,3.229684830E-1,3.778670018E-1
2.211612198E0,1.128387451E-2,7.736301422E-2,2.780103683E-1,2.887942636E-1
2.216533969E0,1.748831272E-1,1.110272408E-1,1.837196350E-1,2.768827562E-1
2.221519906E0,2.256984711E-1,6.360101700E-2,6.883525848E-2,2.443832687E-1
2.226505844E0,2.026349306E-1,-1.185798645E-2,2.374649048E-2,2.043659041E-1
2.231491833E0,1.349562407E-1,-6.759119034E-2,7.465362549E-3,1.511207714E-1
2.236477771E0,7.997560501E-2,-1.274433136E-1,1.259517670E-2,1.509852114E-1
2.241463708E0,4.450362921E-2,-9.658098221E-2,-6.050109863E-3,1.065132056E-1
2.246382198E0,1.935660839E-3,-4.713773727E-2,4.071235657E-3,4.735280370E-2
2.251368135E0,-9.285783768E-2,-5.040788651E-2,-4.847526550E-3,1.057687645E-1
2.256354073E0,-1.563294530E-1,-8.665418625E-2,-8.030414581E-2,1.959505083E-1
2.261340062E0,-1.673360467E-1,-1.080322266E-1,-1.053724289E-1,2.253345585E-1
2.266326000E0,-1.309968233E-1,-9.344625473E-2,-1.421632767E-1,2.147155501E-1
2.271311937E0,-5.457633734E-2,-5.247688293E-2,-1.455755234E-1,1.640872720E-1
2.276229073E0,4.720854759E-2,-5.196905136E-2,-1.229476929E-1,1.415823592E-1
2.281215010E0,7.220894098E-2,-3.257799149E-2,-2.444076538E-2,8.290239864E-2
2.286200948E0,2.361559868E-2,-5.379962921E-2,7.088184357E-2,9.206699925E-2
2.291186937E0,-5.279910564E-2,-2.268362045E-2,1.321783066E-1,1.441297919E-1
2.296172875E0,-1.166049242E-1,-2.530241013E-2,1.716842651E-1,2.090751233E-1
2.301158812E0,-1.583814621E-1,-5.187702179E-2,1.919574738E-1,2.542116926E-1
2.306061729E0,-1.285198331E-1,-5.458259583E-2,1.717281342E-1,2.213304302E-1
2.311047667E0,-1.036565304E-1,-3.606987000E-2,1.470069885E-1,1.834578057E-1
2.316033604E0,-5.759656429E-2,1.117706299E-3,1.178264618E-1,1.311552080E-1
2.321019594E0,-6.818890572E-3,-2.857875824E-2,1.007652283E-1,1.049612972E-1
2.326005531E0,3.657209873E-2,-5.794620514E-2,3.390598297E-2,7.645192461E-2
2.330991469E0,4.878950119E-2,-3.951549530E-2,-6.293296814E-3,6.309909175E-2
2.335905844E0,2.048879862E-2,-2.353191376E-3,-3.659248352E-2,4.200402634E-2
2.340891781E0,-3.003835678E-3,-5.816459656E-3,-5.953121185E-2,5.989006108E-2
2.345877719E0,-2.686202526E-3,7.511138916E-3,-1.227169037E-1,1.229758974E-1
2.350863708E0,-9.637832642E-3,1.778602600E-3,-1.972694397E-1,1.975127416E-1
2.355849646E0,-2.149307728E-2,-3.920793533E-2,-1.573209763E-1,1.635515336E-1
2.360835583E0,-6.163918972E-2,-2.731466293E-2,-1.083498001E-1,1.276133210E-1
2.365754802E0,-6.115972996E-2,-2.739334106E-2,-5.502986908E-2,8.671328730E-2
2.370740739E0,-3.474122286E-2,-2.035713196E-2,-4.508018494E-3,4.051774448E-2
2.375726677E0,-3.003907204E-2,-1.099205017E-2,5.985069275E-2,6.786218710E-2
2.380712667E0,-9.186768532E-2,-4.217863083E-2,8.333015442E-2,1.310061950E-1
2.385698604E0,-1.079984307E-1,-3.051757812E-2,9.956932068E-2,1.500301078E-1
2.390684542E0,-7.660007477E-2,-2.135610580E-2,8.481407166E-2,1.162629841E-1
2.395603864E0,-3.344213963E-2,-1.948213577E-2,4.645633698E-2,6.046587105E-2
2.400589802E0,1.664334536E-2,-6.746816635E-2,4.401683807E-2,8.225835185E-2
2.405575739E0,4.733002186E-2,-6.271123886E-2,2.730178833E-2,8.317582638E-2
2.410561729E0,9.692853689E-2,-6.289720535E-2,5.354785919E-2,1.273521611E-1
2.415547667E0,1.461594701E-1,-5.374288559E-2,4.164409637E-2,1.611990050E-1
2.420533604E0,1.475391388E-1,-2.585935593E-2,1.011972427E-1,1.807688737E-1
2.425454073E0,1.348348260E-1,-2.690935135E-2,6.769084930E-2,1.532533672E-1
2.430440010E0,3.669887781E-2,-8.503103256E-2,1.549434662E-2,9.389972795E-2
2.435425948E0,-3.218275309E-2,-1.022801399E-1,-2.913570404E-2,1.111118620E-1
2.440411937E0,-7.447570562E-2,-7.404327393E-2,-6.636047363E-2,1.242286183E-1
2.445397875E0,-9.275388718E-2,-3.866529465E-2,-1.247720718E-1,1.602072361E-1
2.450383812E0,-1.062916517E-1,-1.981687546E-2,-1.377429962E-1,1.751106987E-1
2.455304802E0,-1.101670861E-1,-3.166246414E-2,-1.579084396E-1,1.951265584E-1
2.460290739E0,-1.377882957E-1,-2.409839630E-2,-1.044139862E-1,1.745526501E-1
2.465276677E0,-1.060238481E-1,-3.781366348E-2,-1.274442673E-1,1.700381450E-1
2.470262667E0,-6.523132324E-2,-5.348205566E-2,-1.670475006E-1,1.871371777E-1
2.475248604E0,-5.820631981E-3,-3.780317307E-2,-2.112340927E-1,2.146690513E-1
2.480234542E0,7.906204462E-2,-6.209039688E-2,-2.600622177E-1,2.788160350E-1
2.485178864E0,1.562778354E-1,-6.442689896E-2,-2.873001099E-1,3.333390770E-1
2.490164802E0,1.735268831E-1,-9.734869003E-2,-1.980524063E-1,2.807367134E-1
2.495150739E0,1.954057217E-1,-8.707761765E-2,-3.598690033E-2,2.169353926E-1
2.500136677E0,1.695435643E-1,-9.369277954E-2,1.604509354E-1,2.515310315E-1
2.505122667E0,1.319017410E-1,-6.528520584E-2,3.270874023E-1,3.586731049E-1
2.510108604E0,8.497631550E-2,-4.021501541E-2,4.309387207E-1,4.410741464E-1
2.515029906E0,2.915537357E-2,-5.183839798E-2,4.844408035E-1,4.880780137E-1
2.520015896E0,-6.891930103E-2,-6.899833679E-2,4.761667252E-1,4.860508108E-1
2.525001833E0,-9.949785471E-2,-1.297807693E-2,4.112319946E-1,4.232965946E-1
2.529987823E0,-4.902970791E-2,-2.837181091E-3,2.923374176E-1,2.964340189E-1
2.534973760E0,-1.083612442E-2,2.846193314E-2,1.388664246E-1,1.421667581E-1
2.539959698E0,1.292687654E-2,5.024051666E-2,2.217578888E-2,5.641789844E-2
2.544841156E0,-3.239703178E-2,5.538272858E-2,-4.374217987E-2,7.765431471E-2
2.549827094E0,-8.455097675E-3,1.034259796E-1,-9.969902039E-2,1.439038450E-1
2.554813031E0,2.001529932E-2,8.949756622E-2,-1.624088287E-1,1.865128795E-1
2.559799021E0,1.247549057E-2,6.651830673E-2,-1.867418289E-1,1.986273739E-1
2.564784958E0,1.403385401E-2,3.453350067E-2,-1.658487320E-1,1.699862160E-1
2.569770896E0,3.924125433E-2,-1.115703583E-2,-1.571369171E-1,1.623464389E-1
2.574691052E0,5.472403765E-2,-5.856657028E-2,-1.320056915E-1,1.544353135E-1
2.579674750E0,6.538671255E-2,-6.266832352E-2,-1.071653366E-1,1.403109059E-1
2.584658448E0,1.047004461E-1,-6.199264526E-2,-3.266048431E-2,1.259840415E-1
2.589642146E0,1.105222702E-1,-6.380033493E-2,-1.099586487E-2,1.280881103E-1
2.594625792E0,7.372206450E-2,-5.629348755E-2,1.532268524E-2,9.401427667E-2
2.599609489E0,4.218983650E-2,-7.270240784E-2,2.482414246E-2,8.764622330E-2
2.604567302E0,6.192505360E-3,-4.160547256E-2,2.006149292E-2,4.660285365E-2
2.609551000E0,-4.138290882E-2,-3.690958023E-2,-1.078701019E-2,5.649090054E-2
2.614534698E0,-6.734567881E-2,-3.656864166E-3,-3.428268433E-2,7.565788494E-2
2.619518344E0,-9.833359718E-2,2.224302292E-2,-3.618431091E-2,1.071146711E-1
2.624502042E0,-1.437368989E-1,4.559850693E-2,-3.805732727E-2,1.555245321E-1
2.629485739E0,-1.460720897E-1,6.191730499E-2,-5.430316925E-2,1.676891238E-1
2.634397250E0,-1.103389263E-1,2.277851105E-3,-7.288932800E-2,1.322600522E-1
2.639380948E0,-6.043314934E-2,-2.583885193E-2,-1.064300537E-2,6.658141911E-2
2.644364646E0,1.313954592E-2,-4.183530807E-2,7.243251801E-2,8.467178003E-2
2.649348292E0,2.715426683E-2,-2.216243744E-2,9.306144714E-2,9.944325409E-2
2.654331989E0,5.584251881E-2,-4.551172256E-2,1.396503448E-1,1.571366368E-1
2.659315687E0,5.881500244E-2,-7.607269287E-2,2.239427567E-1,2.437142125E-1
2.664276417E0,4.804039001E-2,-9.001731873E-2,2.601079941E-1,2.794050202E-1
2.669260114E0,1.377171278E-2,-1.065926552E-1,2.177476883E-1,2.428285609E-1
2.674243760E0,-1.315516233E-2,-9.006452560E-2,1.497621536E-1,1.752523316E-1
2.679227458E0,-1.428848505E-2,-7.150268555E-2,6.824016571E-2,9.986748751E-2
2.684211156E0,-3.754067421E-2,-2.706575394E-2,-5.287170410E-2,7.026574095E-2
2.689194854E0,-5.676031113E-2,-1.845693588E-2,-1.468524933E-1,1.585182834E-1
2.694123500E0,-1.028463840E-1,-3.106069565E-2,-2.424659729E-1,2.652016092E-1
2.699107198E0,-1.542018652E-1,-9.866237640E-3,-2.780323029E-1,3.180841387E-1
2.704090896E0,-1.321172118E-1,-1.449918747E-2,-3.039827347E-1,3.317690267E-1
2.709074542E0,-8.205944300E-2,9.883403778E-3,-3.014144897E-1,3.125414028E-1
2.714058239E0,-4.208308458E-2,1.786613464E-2,-2.895650864E-1,2.931520493E-1
2.719041937E0,3.112208843E-2,1.907968521E-2,-2.091598511E-1,2.123216006E-1
2.723974021E0,5.451059341E-2,2.277517319E-2,-5.589866638E-2,8.133126220E-2
2.728957719E0,8.804363012E-2,2.640390396E-2,6.989860535E-2,1.154758069E-1
2.733941417E0,1.244655848E-1,-3.410816193E-3,1.495199203E-1,1.945752349E-1
2.738925062E0,1.755836606E-1,1.191616058E-2,2.617902756E-1,3.154453441E-1
2.743908760E0,1.559896469E-1,2.430391312E-2,3.209934235E-1,3.577152891E-1
2.748892458E0,1.063767076E-1,-1.819133759E-3,3.275766373E-1,3.444209146E-1
2.753822875E0,3.615087271E-2,1.224136353E-2,2.915210724E-1,2.940089662E-1
2.758806573E0,-5.729258060E-2,-7.279396057E-3,2.677526474E-1,2.739104043E-1
2.763790271E0,-1.074305773E-1,1.455307007E-3,2.420301437E-1,2.648056596E-1
2.768773917E0,-8.602499962E-2,2.749443054E-3,1.786479950E-1,1.983001919E-1
2.773757614E0,-5.550652742E-2,1.598358154E-3,7.783222198E-2,9.561058579E-2
2.778741260E0,-7.550287247E-2,3.124523163E-2,4.066467285E-3,8.181371772E-2
2.783673812E0,-9.801852703E-2,-7.913112640E-3,-8.822536469E-2,1.321134511E-1
2.788657510E0,-1.255122423E-1,-2.979803085E-2,-1.727437973E-1,2.155960694E-1
2.793641208E0,-8.670610189E-2,3.320217133E-3,-1.592130661E-1,1.813222887E-1
2.798624854E0,-5.819290876E-2,5.420207977E-3,-9.831333160E-2,1.143735304E-1
2.803608552E0,-3.732454777E-2,3.390645981E-2,-5.703639984E-2,7.613094502E-2
2.808592250E0,-5.223989487E-2,2.172040939E-2,2.905559540E-2,6.360039641E-2
2.813524125E0,-5.502831936E-2,2.193450928E-5,1.311054230E-1,1.421856123E-1
2.818507823E0,-7.424396276E-2,1.148796082E-2,2.015409470E-1,2.150881042E-1
2.823491469E0,-1.190792322E-1,1.061820984E-2,2.501611710E-1,2.772602052E-1
2.828475167E0,-1.583219767E-1,2.356052399E-3,2.319545746E-1,2.808457298E-1
2.833458864E0,-1.801165938E-1,-2.257728577E-2,2.447938919E-1,3.047552637E-1
2.838442562E0,-1.229848266E-1,-2.128410339E-2,2.171669006E-1,2.504790278E-1
2.843372042E0,-2.567791939E-2,-2.734661102E-2,2.088613510E-1,2.122033379E-1
2.848355739E0,3.550308943E-2,-5.489873886E-2,1.887998581E-1,1.997992175E-1
2.853339437E0,9.650075436E-2,-5.621623993E-2,1.166791916E-1,1.615137609E-1
2.858323083E0,5.248993635E-2,-5.291604996E-2,4.285335541E-2,8.597506517E-2
2.863306781E0,4.024684429E-3,-8.047485352E-2,-3.987789154E-2,8.990353923E-2
2.868290479E0,-3.951913118E-2,-6.241798401E-2,-9.351730347E-2,1.191773993E-1
2.873220531E0,-3.799915314E-2,-7.053279877E-2,-1.728572845E-1,1.905215268E-1
2.878204229E0,-4.898822308E-2,-5.940771103E-2,-2.230596542E-1,2.359761248E-1
2.883187927E0,3.808975220E-3,-2.925062180E-2,-2.301063538E-1,2.319893127E-1
2.888171573E0,-1.298141479E-2,-1.821279526E-2,-1.920051575E-1,1.933033976E-1
2.893155271E0,-5.373752117E-2,-2.831506729E-2,-2.042427063E-1,2.130834280E-1
2.898138969E0,-6.825649738E-2,-1.923561096E-2,-1.688947678E-1,1.831786034E-1
2.903072042E0,-8.280879259E-2,-4.790592194E-2,-1.197414398E-1,1.532654100E-1
2.908055739E0,-8.769959211E-2,-2.150869370E-2,-9.960174561E-2,1.344408795E-1
2.913039385E0,-6.632512808E-2,-1.418685913E-2,-9.871673584E-2,1.197717977E-1
2.918023083E0,-1.645869017E-2,1.702737808E-2,-5.305290222E-3,2.426862564E-2
2.923006781E0,4.742681980E-3,2.190208435E-2,4.689598083E-2,5.197525709E-2
2.927990479E0,2.124971151E-2,2.407979965E-2,1.130342484E-1,1.175079925E-1
2.932921156E0,2.119928598E-2,7.092952728E-3,1.691732407E-1,1.706437958E-1
2.937904854E0,-8.910894394E-5,2.335453033E-2,1.441383362E-1,1.460181564E-1
2.942888552E0,-2.242445946E-3,1.340389252E-3,1.193819046E-1,1.194104868E-1
2.947872198E0,1.697856188E-2,5.542755127E-3,4.262065887E-2,4.621162474E-2
2.952855896E0,6.463921070E-2,7.373809814E-3,-1.452350616E-2,6.665982945E-2
2.957839542E0,6.443858147E-2,-2.151393890E-2,-3.090095520E-2,7.463276345E-2
2.962770531E0,4.760718346E-2,-5.971336365E-2,-2.336025238E-2,7.986132422E-2
2.967754229E0,4.811942577E-3,-4.749870300E-2,-6.825256348E-2,8.329282082E-2
2.972737927E0,-5.677127838E-2,-4.237174988E-2,-5.818939209E-2,9.167523433E-2
2.977721573E0,-1.297655702E-1,-9.657526016E-2,5.151367188E-2,1.697631953E-1
2.982705271E0,-1.949079633E-1,-1.028347015E-1,1.317977905E-1,2.567776228E-1
2.987688969E0,-1.930620074E-1,-8.321046829E-2,1.925621033E-1,2.850913614E-1
2.992619489E0,-1.152163744E-1,-2.837610245E-2,2.291946411E-1,2.580895186E-1
2.997603187E0,-7.593220472E-2,1.150941849E-2,1.872396469E-1,2.023779924E-1
3.002586833E0,-1.827490330E-2,-2.523946762E-2,1.434268951E-1,1.467728758E-1
3.007570531E0,-1.552402973E-3,-4.519701004E-2,8.342838287E-2,9.489717983E-2
3.012554229E0,8.090972900E-3,-6.029176712E-2,7.313728333E-3,6.127031620E-2
3.017471677E0,5.330824852E-2,-3.464174271E-2,-6.828689575E-2,9.330015986E-2
3.022455375E0,8.138179779E-2,-3.976583481E-2,-1.624107361E-1,1.859611944E-1
3.027449437E0,8.041059971E-2,-4.447746277E-2,-1.870174408E-1,2.083737805E-1
3.032433135E0,6.246894598E-2,-3.695678711E-2,-1.545343399E-1,1.707308863E-1
3.037416781E0,8.880198002E-3,-7.208347321E-2,-8.438682556E-2,1.113374212E-1
3.042400479E0,-8.010512590E-2,-7.360124588E-2,6.355762482E-2,1.259902626E-1
3.047384177E0,-1.209314466E-1,-8.016824722E-2,1.439170837E-1,2.043611744E-1
3.052367823E0,-1.041475534E-1,-6.095027924E-2,1.786499023E-1,2.155862636E-1
3.057319333E0,7.871568203E-3,-2.786493301E-2,2.131757736E-1,2.151332762E-1
3.062303031E0,1.027455330E-1,-1.924371719E-2,2.570962906E-1,2.775346246E-1
3.067286729E0,1.167145967E-1,-3.974723816E-2,2.842397690E-1,3.098296085E-1
3.072270375E0,1.121005416E-1,-3.908538818E-2,2.542905807E-1,2.806383767E-1
3.077254021E0,1.078755260E-1,-4.110527039E-2,1.962060928E-1,2.276479809E-1
3.082237719E0,7.524961233E-2,-4.563617706E-2,1.291742325E-1,1.563046613E-1
3.087143500E0,4.999840260E-2,-6.671905518E-2,5.318069458E-2,9.889114653E-2
3.092127198E0,8.025646210E-3,-6.846523285E-2,-2.935695648E-2,7.492482900E-2
3.097110844E0,-1.745939255E-2,-5.333089828E-2,-1.136589050E-1,1.267570976E-1
3.102094542E0,-4.569184780E-2,-7.589054108E-2,-2.021808624E-1,2.207356344E-1
3.107078239E0,-6.956881285E-2,-8.118438721E-2,-2.069921494E-1,2.329731194E-1
3.112061937E0,-4.380422831E-2,-6.718397141E-2,-1.595859528E-1,1.786061946E-1
3.116994281E0,1.962554455E-2,-6.722021103E-2,-1.436138153E-1,1.597768654E-1
3.121977979E0,2.082180977E-2,-5.296707153E-2,-9.929180145E-2,1.144461457E-1
3.126961625E0,8.082091808E-3,-7.452726364E-2,-9.096717834E-2,1.178756157E-1
3.131945323E0,-1.158469915E-2,-5.077266693E-2,-7.559394836E-2,9.179604562E-2
3.136929021E0,-2.626657486E-2,-2.701759338E-2,-1.293449402E-1,1.347219242E-1
3.141912719E0,-1.935285330E-2,-2.954435349E-2,-1.256666183E-1,1.305354386E-1
3.146840583E0,1.857507229E-2,1.372814178E-3,-1.292438507E-1,1.305790599E-1
3.151824281E0,3.273248672E-2,3.452539444E-2,-1.305007935E-1,1.389023961E-1
3.156807979E0,-5.279839039E-3,4.135990143E-2,-9.617614746E-2,1.048254239E-1
3.161791625E0,-9.519064426E-2,7.667541504E-4,-1.232528687E-2,9.598832931E-2
3.166775323E0,-1.271995306E-1,-1.813888550E-2,8.508205414E-2,1.541028737E-1
3.171759021E0,-1.447822452E-1,-2.759456635E-2,1.580362320E-1,2.160990727E-1
3.176692042E0,-1.100298762E-1,-2.292013168E-2,2.043590546E-1,2.332263477E-1
3.181675739E0,-5.884206295E-2,-3.035259247E-2,2.290039062E-1,2.383830055E-1
3.186659437E0,3.843605518E-3,-5.216312408E-2,1.965198517E-1,2.033612965E-1
3.191643083E0,-2.743363380E-3,-1.048221588E-1,1.643686295E-1,1.949673239E-1
3.196626781E0,-2.590411901E-2,-9.794235229E-2,2.133979797E-1,2.362253702E-1
3.201610427E0,-6.806278229E-2,-5.558013916E-2,1.528081894E-1,1.762726211E-1
3.206540896E0,-6.510853767E-2,-2.553558350E-2,1.677989960E-2,7.192185157E-2
3.211524594E0,-4.604035616E-2,-1.475620270E-2,-6.818199158E-2,8.358375374E-2
3.216508239E0,-2.303332090E-2,1.758623123E-2,-1.596441269E-1,1.622530636E-1
3.221491937E0,-4.817187786E-2,3.568220139E-2,-2.789516449E-1,2.853204681E-1
3.226475635E0,-4.983502626E-2,1.133823395E-2,-3.832054138E-1,3.865985962E-1
3.231459333E0,-4.976093769E-2,-2.880573273E-3,-3.679695129E-1,3.713300568E-1
3.236354542E0,-2.371358871E-2,2.157878876E-2,-3.246164322E-1,3.261959633E-1
3.241338292E0,-1.181447506E-2,-3.582000732E-3,-2.533807755E-1,2.536813551E-1
3.246321937E0,1.959580183E-2,-3.537225723E-2,-1.021661758E-1,1.098777481E-1
3.251305635E0,3.961199522E-2,-5.514383316E-2,9.292221069E-2,1.150847068E-1
3.256289281E0,7.946753502E-2,-6.105232239E-2,2.343158722E-1,2.548458419E-1
3.261272979E0,8.438372612E-2,-5.564785004E-2,3.011102676E-1,3.176235031E-1
3.266202719E0,7.806426287E-2,-3.890371323E-2,2.440090179E-1,2.591291741E-1
3.271186417E0,6.513071060E-2,-5.098390579E-2,1.874332428E-1,2.048721275E-1
3.276170062E0,5.503052473E-2,-7.729864120E-2,3.869533539E-2,1.024732529E-1
3.281153760E0,8.302307129E-2,-1.150307655E-1,-1.303043365E-1,1.926243170E-1
3.286137406E0,1.271313429E-1,-9.969711304E-2,-2.719841003E-1,3.163498752E-1
3.291121104E0,1.229645610E-1,-8.147478104E-2,-3.533840179E-1,3.829343120E-1
3.296090062E0,9.679687023E-2,-9.123945236E-2,-3.488664627E-1,3.733658803E-1
3.301073760E0,3.926873207E-2,-1.027894020E-1,-2.353076935E-1,2.597641336E-1
3.306057458E0,-3.489828110E-2,-1.021285057E-1,-9.663963318E-2,1.448700811E-1
3.311041104E0,-8.723062277E-2,-1.134014130E-1,7.892131805E-2,1.633941139E-1
3.316024802E0,-1.013281941E-1,-9.653663635E-2,2.413902283E-1,2.790268220E-1
3.321008500E0,-1.200596094E-1,-1.040334702E-1,3.314733505E-1,3.675756450E-1
3.325912250E0,-1.362274885E-1,-9.997177124E-2,3.711080551E-1,4.077664433E-1
3.330895948E0,-1.451897025E-1,-8.465147018E-2,3.869533539E-1,4.218753598E-1
3.335879646E0,-1.091288924E-1,-5.790758133E-2,3.695869446E-1,3.896882250E-1
3.340863292E0,-8.284783363E-2,-3.418684006E-2,3.739557266E-1,3.845456918E-1
3.345846989E0,-5.932480097E-2,-3.473424911E-2,3.618307114E-1,3.683033583E-1
3.350830687E0,-2.190828323E-2,-3.070878983E-2,3.736658096E-1,3.755650941E-1
3.355762667E0,3.656417131E-2,-2.469778061E-2,3.238172531E-1,3.268096272E-1
3.360746364E0,9.695994854E-2,-2.309799194E-3,2.602291107E-1,2.777152442E-1
3.365730062E0,1.214761138E-1,5.478858948E-4,1.925668716E-1,2.276812387E-1
3.370713708E0,8.446812630E-2,2.005290985E-2,1.064052582E-1,1.373283020E-1
3.375697406E0,5.298739672E-2,2.524375916E-2,8.994102478E-3,5.937849330E-2
3.380681104E0,2.933979034E-2,3.057527542E-2,-6.160259247E-2,7.476998170E-2
3.385612458E0,3.224551678E-2,2.190303802E-2,-1.531562805E-1,1.580391176E-1
3.390596156E0,2.814882994E-2,3.010559082E-2,-2.036619186E-1,2.077904722E-1
3.395579854E0,1.232510805E-2,4.558849335E-2,-2.324876785E-1,2.372356206E-1
3.400563500E0,-1.044684649E-2,5.408859253E-2,-1.685686111E-1,1.773417297E-1
3.405547198E0,-4.034268856E-2,2.935361862E-2,-1.503467560E-1,1.584086945E-1
3.410530896E0,-8.219408989E-2,2.378273010E-2,-1.559820175E-1,1.779097424E-1
3.415483760E0,-1.406772137E-1,1.356840134E-2,-8.317756653E-2,1.639899007E-1
3.420467458E0,-1.681632996E-1,1.770496368E-2,-1.107263565E-1,2.021204767E-1
3.425431937E0,-1.554775834E-1,1.231908798E-2,-1.522693634E-1,2.179701766E-1
3.430415583E0,-1.101557612E-1,-2.128887177E-2,-1.697864532E-1,2.035066277E-1
3.435399229E0,-3.950071335E-2,-2.330684662E-2,-1.612071991E-1,1.676045241E-1
3.440382927E0,5.194580555E-2,-6.132602692E-3,-1.100244522E-1,1.218251026E-1
3.445366573E0,1.213674545E-1,-2.455997467E-2,-5.936527252E-2,1.373225654E-1
3.450350271E0,1.692274213E-1,-6.194353104E-2,2.414989471E-2,1.818189720E-1
3.455333969E0,1.722300649E-1,-5.166482925E-2,1.236190796E-1,2.182066146E-1
3.460237823E0,1.851743460E-1,-3.704547882E-2,1.938772202E-1,2.706478938E-1
3.465221521E0,1.532509923E-1,-1.589012146E-2,2.376203537E-1,2.831992145E-1
3.470205219E0,9.583634138E-2,-9.405136108E-3,1.836900711E-1,2.074008272E-1
3.475188864E0,2.720928192E-2,-3.641080856E-2,1.231575012E-1,1.312778051E-1
3.480172562E0,-6.429785490E-2,-6.796884537E-2,1.201286316E-1,1.522657749E-1
3.485156260E0,-7.194542885E-2,-8.508825302E-2,7.440853119E-2,1.339880034E-1
3.490110479E0,-3.451788425E-2,-8.308935165E-2,3.384685516E-2,9.612977840E-2
3.495094177E0,5.931413174E-2,-5.022764206E-2,-4.198455811E-2,8.833847050E-2
3.500077823E0,9.740006924E-2,-3.903579712E-2,-1.266498566E-1,1.644711315E-1
3.505061521E0,8.980023861E-2,-6.089067459E-2,-2.273702621E-1,2.519305325E-1
3.510045219E0,7.972496748E-2,-7.749795914E-2,-3.273944855E-1,3.457588079E-1
3.515028864E0,8.154141903E-2,-7.449960709E-2,-3.697986603E-1,3.859407255E-1
3.519964333E0,5.232125521E-2,-9.235954285E-2,-3.550977707E-1,3.706241029E-1
3.524948031E0,3.976327181E-2,-6.679725647E-2,-3.336343765E-1,3.425709977E-1
3.529931729E0,1.999711990E-2,-6.484651566E-2,-2.008609772E-1,2.120143569E-1
3.534915375E0,-6.963968277E-3,-5.788183212E-2,-1.168260574E-1,1.305646623E-1
3.539899073E0,-3.169792891E-2,-8.664703369E-2,-5.481815338E-2,1.073196025E-1
3.544882771E0,-7.509040833E-2,-7.237434387E-2,2.802085876E-2,1.079897384E-1
3.549809958E0,-8.485394716E-2,-7.247686386E-2,5.315876007E-2,1.236080172E-1
3.554793656E0,-7.789444923E-2,-4.644680023E-2,1.869773865E-2,9.259835800E-2
3.559777354E0,-8.021551371E-2,-3.227758408E-2,1.526546478E-2,8.780322026E-2
3.564761000E0,-4.695415497E-2,-3.931379318E-2,3.785419464E-2,7.199449323E-2
3.569744698E0,-1.639223099E-2,-2.458477020E-2,3.871631622E-2,4.870389414E-2
3.574728396E0,-4.777884483E-2,-1.219415665E-2,8.462142944E-2,9.794029707E-2
3.579662823E0,-7.885092497E-2,-2.134227753E-2,1.990604401E-1,2.151697469E-1
3.584646521E0,-1.695394516E-2,-2.125453949E-2,3.269634247E-1,3.280918664E-1
3.589630219E0,4.002654552E-2,1.158094406E-2,4.302701950E-1,4.322831055E-1
3.594613864E0,7.543236017E-2,3.393220901E-2,4.522752762E-1,4.597764253E-1
3.599597562E0,1.464558840E-1,2.458477020E-2,4.387540817E-1,4.632050098E-1
3.604581260E0,1.717978716E-1,1.225328445E-2,4.613151550E-1,4.924188501E-1
3.609508292E0,1.445220113E-1,8.941650391E-3,3.937206268E-1,4.195026780E-1
3.614491989E0,5.566489697E-2,-1.622343063E-2,3.293170929E-1,3.343823083E-1
3.619475687E0,-3.026288748E-2,-4.867219925E-2,2.632722855E-1,2.694385303E-1
3.624459333E0,-3.733879328E-2,-5.717658997E-2,1.622085571E-1,1.759970566E-1
3.629443031E0,-6.147474051E-2,-5.850267410E-2,8.341884613E-2,1.189975230E-1
3.634426729E0,-7.385909557E-2,-5.277681351E-2,2.673530579E-2,9.463262978E-2
3.639358448E0,-3.263950348E-3,-1.359701157E-2,-3.432464600E-2,3.706364011E-2
3.644342146E0,-4.489660263E-3,-3.391504288E-2,-1.234912872E-1,1.281424411E-1
3.649325844E0,2.759975195E-2,-2.759790421E-2,-2.120857239E-1,2.156472696E-1
3.654309489E0,1.463758945E-2,-1.160144806E-2,-2.739562988E-1,2.745922546E-1
3.659293187E0,-1.693975925E-2,3.077602386E-2,-3.260211945E-1,3.279084298E-1
3.664276885E0,-2.652341127E-2,1.629781723E-2,-3.114233017E-1,3.129753713E-1
3.669208552E0,-6.201678514E-2,6.929874420E-3,-2.566938400E-1,2.641700822E-1
3.674192250E0,-4.984462261E-2,2.144479752E-2,-3.117074966E-1,3.163952105E-1
3.679175896E0,-5.936384201E-2,3.849887848E-2,-3.069972992E-1,3.150453477E-1
3.684159594E0,-3.773492575E-2,5.750179291E-3,-2.929534912E-1,2.954297500E-1
3.689143292E0,-1.822948456E-3,2.009868622E-3,-2.649049759E-1,2.649188724E-1
3.694126937E0,2.445125580E-2,-3.941631317E-2,-2.396268845E-1,2.440748930E-1
3.699057875E0,5.557924509E-2,-7.558345795E-2,-1.624050140E-1,1.875561254E-1
3.704041573E0,4.406589270E-2,-1.064190865E-1,-1.263828278E-1,1.709954503E-1
3.709025271E0,2.580124140E-2,-1.201982498E-1,-4.563426971E-2,1.311327949E-1
3.714008917E0,-3.034228086E-2,-1.313652992E-1,7.001781464E-2,1.519209999E-1
3.718992614E0,-7.903027534E-2,-1.280674934E-1,1.632795334E-1,2.220524112E-1
3.723976312E0,-1.012508273E-1,-1.250185966E-1,2.653837204E-1,3.103383615E-1
3.728906937E0,-8.316463232E-2,-1.604275703E-1,3.882503510E-1,4.282425673E-1
3.733890635E0,-8.677065372E-3,-1.629762650E-1,4.986000061E-1,5.246317952E-1
3.738874333E0,4.345828295E-2,-1.521577835E-1,5.847520828E-1,6.057851202E-1
3.743857979E0,4.501420259E-2,-1.687970161E-1,5.924291611E-1,6.176495948E-1
3.748841677E0,8.444607258E-2,-1.698751450E-1,5.602636337E-1,5.915099689E-1
3.753825375E0,1.019805074E-1,-1.554651260E-1,4.458074570E-1,4.830255873E-1
3.758757302E0,1.191435456E-1,-1.539669037E-1,2.068719864E-1,2.840721927E-1
3.763741000E0,1.336128712E-1,-1.864228249E-1,1.541996002E-2,2.298774546E-1
3.768724698E0,1.220414639E-1,-2.071709633E-1,-1.718568802E-1,2.955481588E-1
3.773708344E0,6.110292673E-2,-2.278375626E-1,-3.575601578E-1,4.283605829E-1
3.778692042E0,2.489691973E-2,-2.269020081E-1,-5.441532135E-1,5.900907537E-1
3.783675739E0,2.260184288E-2,-2.400865555E-1,-7.387895584E-1,7.771501844E-1
3.788607302E0,-3.661930561E-2,-2.764248848E-1,-9.225482941E-1,9.637671116E-1
3.793591000E0,-1.212398410E-1,-3.169169426E-1,-1.021795273E0,1.076661984E0
3.798574646E0,-1.264129877E-1,-3.706851006E-1,-1.058796883E0,1.128910327E0
3.803558344E0,-7.415878773E-2,-3.972325325E-1,-1.112471104E0,1.183589949E0
3.808542042E0,4.207313061E-3,-3.966169357E-1,-1.161386490E0,1.227249475E0
3.813525739E0,9.631097317E-2,-4.356918335E-1,-1.191251755E0,1.272078583E0
3.818458760E0,1.613578796E-1,-4.598984718E-1,-1.144982338E0,1.244398459E0
3.823442458E0,1.926921606E-1,-5.241701603E-1,-9.970164299E-1,1.142771363E0
3.828426156E0,1.645148396E-1,-5.381343365E-1,-8.407363892E-1,1.011677504E0
3.833409802E0,1.340796351E-1,-5.095403194E-1,-7.996129990E-1,9.575957570E-1
3.838393500E0,4.898321629E-2,-4.981048107E-1,-8.346781731E-1,9.732396470E-1
3.843377198E0,2.389192581E-2,-4.751310349E-1,-8.146824837E-1,9.434128861E-1
3.848305479E0,1.254677773E-3,-4.926605225E-1,-8.875231743E-1,1.015092779E0
3.853289177E0,-8.089041710E-2,-5.099773407E-1,-9.977722168E-1,1.123463192E0
3.858272823E0,-1.388728023E-1,-4.909460545E-1,-1.093111992E0,1.206319821E0
3.863256521E0,-1.513066888E-1,-4.809191227E-1,-1.185606956E0,1.288348079E0
3.868240219E0,-1.397907734E-1,-4.033961296E-1,-1.173352242E0,1.248609379E0
3.873223917E0,1.692844629E-1,-1.302261353E-1,-1.254664421E0,1.272713198E0
3.878118760E0,-8.330404758E-2,-3.692378998E-1,-1.300016403E0,1.354001049E0
3.883102458E0,-3.108495474E-1,-6.104805470E-1,-1.036366940E0,1.242324584E0
3.888086156E0,-2.612375617E-1,-6.281750202E-1,-8.369603157E-1,1.078587729E0
3.893069854E0,-1.362522840E-1,-5.598380566E-1,-7.296481133E-1,9.297148507E-1
3.898053500E0,8.289581537E-2,-4.541089535E-1,-5.376996994E-1,7.086660882E-1
3.903037198E0,2.129626870E-1,-3.947937489E-1,-3.377008438E-1,5.614775776E-1
3.908001573E0,2.095064521E-1,-4.173843861E-1,-2.436189651E-1,5.267379608E-1
3.912985271E0,1.259970069E-1,-4.832277298E-1,-1.761684418E-1,5.295466027E-1
3.917968969E0,1.800954342E-2,-5.373671055E-1,-1.470079422E-1,5.574038794E-1
3.922952614E0,-3.871363401E-2,-5.392830372E-1,-2.319116592E-1,5.883094061E-1
3.927936312E0,-5.206847191E-2,-4.821751118E-1,-3.705654144E-1,6.103463693E-1
3.932920010E0,-6.798499823E-2,-4.305257797E-1,-5.126724243E-1,6.729096683E-1
3.937852354E0,-5.110359192E-2,-4.337687492E-1,-6.512551308E-1,7.841556926E-1
3.942834281E0,-5.875867605E-2,-3.986504078E-1,-8.054203987E-1,9.005979948E-1
3.947816208E0,-6.244134903E-2,-3.777182102E-1,-8.990201950E-1,9.771424049E-1
3.952798135E0,-8.349496126E-2,-3.944702148E-1,-9.730176926E-1,1.053252861E0
3.957780062E0,-7.657033205E-2,-3.392691612E-1,-9.824728966E-1,1.042218582E0
3.962761989E0,-6.067693233E-2,-2.839818001E-1,-9.516959190E-1,9.950138065E-1
3.967701573E0,-3.549093008E-2,-2.571835518E-1,-9.356594086E-1,9.710105634E-1
3.972683500E0,1.352339983E-2,-2.513799667E-1,-8.892016411E-1,9.241505984E-1
3.977665427E0,6.253749132E-2,-2.236433029E-1,-7.698221207E-1,8.040854197E-1
3.982647354E0,4.037511349E-2,-2.363805771E-1,-5.826578140E-1,6.300762297E-1
3.987629281E0,3.819257021E-2,-2.562422752E-1,-3.851881027E-1,4.642075511E-1
3.992611208E0,1.523536444E-2,-2.786388397E-1,-1.369886398E-1,3.108658984E-1
3.997551989E0,-1.195406914E-2,-3.016772270E-1,1.166543961E-1,3.236669541E-1
4.002533917E0,-2.442544699E-2,-3.257625103E-1,3.141403198E-1,4.532129258E-1
4.007515844E0,-3.692895174E-2,-3.701968193E-1,3.492212296E-1,5.102596395E-1
4.012497771E0,-2.107143402E-2,-3.635489941E-1,3.301582336E-1,4.915448460E-1
4.017479698E0,-1.014357805E-2,-3.820860386E-1,2.169141769E-1,4.394819601E-1
4.022461625E0,-5.152392387E-2,-3.943915367E-1,-2.315139771E-2,3.984160968E-1
4.027398187E0,-1.915454865E-2,-4.166085720E-1,-2.799472809E-1,5.022948129E-1
4.032380167E0,5.824553967E-2,-3.845708370E-1,-5.200824738E-1,6.494405678E-1
4.037362042E0,8.285033703E-2,-3.766605854E-1,-7.344155312E-1,8.295200705E-1
4.042343969E0,4.290604591E-2,-4.019527435E-1,-9.375004768E-1,1.020937844E0
4.047325896E0,7.606744766E-4,-3.886706829E-1,-1.070160866E0,1.138555996E0
4.052307823E0,1.322120428E-2,-4.105825424E-1,-1.206704617E0,1.274711283E0
4.057250583E0,-2.953177691E-2,-4.056437016E-1,-1.320954800E0,1.382150687E0
4.062232510E0,-2.957093716E-2,-3.596117496E-1,-1.368075371E0,1.414858746E0
4.067214437E0,-2.510386705E-2,-3.868348598E-1,-1.355774879E0,1.410105293E0
4.072196364E0,-4.415863752E-2,-4.013540745E-1,-1.220371246E0,1.285434190E0
4.077178292E0,-8.855813742E-2,-4.248721600E-1,-1.029326916E0,1.117082269E0
4.082160219E0,-1.158917546E-1,-3.408660889E-1,-9.541201591E-1,1.019787168E0
4.087101521E0,-1.054575443E-1,-3.354730606E-1,-1.053153038E0,1.110312924E0
4.092083448E0,-7.894992828E-2,-3.864932060E-1,-1.113635063E0,1.181436898E0
4.097065427E0,-2.451264858E-2,-4.199025631E-1,-1.055084229E0,1.135835270E0
4.102047302E0,2.951627970E-2,-4.243576527E-1,-9.020876884E-1,9.973529093E-1
4.107029229E0,8.575999737E-2,-4.026210308E-1,-7.599048615E-1,8.642417891E-1
4.112011156E0,1.489505768E-1,-3.858439922E-1,-7.281918526E-1,8.374516313E-1
4.116950583E0,1.334878206E-1,-3.477685452E-1,-7.466816902E-1,8.344432310E-1
4.121932510E0,3.751862049E-2,-3.383860588E-1,-7.199578285E-1,7.963994265E-1
4.126914437E0,-5.307751894E-2,-3.239240646E-1,-7.245244980E-1,7.954116990E-1
4.131896364E0,-1.145230532E-1,-2.994055748E-1,-7.721385956E-1,8.360366252E-1
4.136878292E0,-1.638663411E-1,-3.051509857E-1,-7.888584137E-1,8.615491273E-1
4.141860219E0,-2.059585452E-1,-2.768056393E-1,-7.297849655E-1,8.072337828E-1
4.146801000E0,-2.027549148E-1,-2.739977837E-1,-6.217107773E-1,7.090194860E-1
4.151782927E0,-1.377750635E-1,-2.135081291E-1,-5.220046043E-1,5.805656692E-1
4.156764854E0,-2.819985151E-2,-1.577725410E-1,-3.806123734E-1,4.129808532E-1
4.161746781E0,5.191230774E-2,-1.021919250E-1,-1.930313110E-1,2.244975819E-1
4.166728708E0,1.027843356E-1,-6.603670120E-2,2.861213684E-2,1.254755750E-1
4.171710635E0,1.150898933E-1,-4.717826843E-2,2.391052246E-1,2.695232476E-1
4.176648864E0,1.059416533E-1,-5.517053604E-2,4.790058136E-1,4.936739728E-1
4.181630792E0,1.111120582E-1,-6.155729294E-2,7.054471970E-1,7.167921159E-1
4.186612719E0,1.119043827E-1,-4.993820190E-2,8.758468628E-1,8.843778276E-1
4.191594646E0,1.485844254E-1,-6.339550018E-3,9.931221008E-1,1.004195712E0
4.196576573E0,1.469877958E-1,6.930351257E-3,1.095875740E0,1.105711119E0
4.201558500E0,7.197940350E-2,-2.206087112E-2,1.184360504E0,1.186750825E0
4.206498396E0,2.720236778E-3,-7.159805298E-2,1.182670593E0,1.184838982E0
4.211480323E0,-8.449488878E-2,-1.084952354E-1,1.113046646E0,1.121509447E0
4.216462302E0,-1.585676074E-1,-1.087241173E-1,8.927230835E-1,9.131917234E-1
4.221444177E0,-2.076818943E-1,-1.100921631E-1,5.797214508E-1,6.255629578E-1
4.226426104E0,-1.607566476E-1,-1.001253128E-1,1.816558838E-1,2.624245380E-1
4.231408031E0,-8.786565065E-2,-1.022357941E-1,-2.486791611E-1,2.828672044E-1
4.236312614E0,-3.948909044E-2,-1.180148125E-1,-6.257987022E-1,6.380524273E-1
4.241294542E0,-2.005344629E-2,-6.902217865E-2,-9.406194687E-1,9.433616415E-1
4.246276469E0,-5.582255125E-2,-6.940269470E-2,-1.191461563E0,1.194785984E0
4.251258396E0,-1.111227870E-1,-9.466028214E-2,-1.362359524E0,1.370157770E0
4.256240323E0,-1.525309086E-1,-1.115489006E-1,-1.411116600E0,1.423713066E0
4.261222250E0,-2.062255144E-1,-1.225714684E-1,-1.383865356E0,1.404505626E0
4.266196677E0,-2.127110660E-1,-1.468124390E-1,-1.247967720E0,1.274450203E0
4.271178604E0,-1.720953584E-1,-1.465177536E-1,-1.042183876E0,1.066410566E0
4.276160531E0,-8.199638128E-2,-2.102425098E-1,-7.716550827E-1,8.039756751E-1
4.281142458E0,4.687309265E-4,-2.498393059E-1,-5.223255157E-1,5.790024550E-1
4.286124385E0,1.615101099E-2,-2.538878918E-1,-3.224124908E-1,4.106942062E-1
4.291106312E0,-1.266074181E-2,-2.704527378E-1,-1.809101105E-1,3.256277719E-1
4.296048917E0,-1.666623354E-2,-2.803003788E-1,-9.977149963E-2,2.979939896E-1
4.301030844E0,-1.975142956E-2,-3.120236397E-1,-8.798599243E-2,3.247928656E-1
4.306012771E0,-5.520915985E-2,-2.988197803E-1,-1.949119568E-1,3.610152121E-1
4.310994698E0,-6.815493107E-2,-2.857456207E-1,-3.556413651E-1,4.612769612E-1
4.315976625E0,-1.641416550E-2,-3.080885410E-1,-5.508623123E-1,6.313772732E-1
4.320958552E0,1.591104269E-2,-2.917020321E-1,-6.924586296E-1,7.515598383E-1
4.325895323E0,2.615922689E-2,-3.080646992E-1,-8.022785187E-1,8.597900823E-1
4.330877250E0,6.672644615E-2,-2.713413239E-1,-8.972320557E-1,9.397360770E-1
4.335859177E0,5.170178413E-2,-2.414417267E-1,-8.562412262E-1,8.911319876E-1
4.340841104E0,1.716095209E-2,-2.158370018E-1,-8.681535721E-1,8.947461843E-1
4.345823031E0,-6.042212248E-2,-2.349603176E-1,-8.921079636E-1,9.245073295E-1
4.350804958E0,-1.260286570E-1,-2.151179314E-1,-8.544540405E-1,8.900846331E-1
4.355746989E0,-1.533437967E-1,-2.185356617E-1,-7.627854347E-1,8.081545489E-1
4.360728917E0,-1.425310373E-1,-2.045280933E-1,-6.603779793E-1,7.058653647E-1
4.365710844E0,-1.463237405E-1,-1.854290962E-1,-4.687595367E-1,5.249096018E-1
4.370692771E0,-1.525257230E-1,-1.424918175E-1,-2.360925674E-1,3.151312657E-1
4.375674698E0,-1.635140777E-1,-1.309108734E-1,-2.192687988E-2,2.106069762E-1
4.380656625E0,-1.769604385E-1,-1.744351387E-1,1.669015884E-1,2.993305107E-1
4.385593552E0,-9.047329426E-2,-1.730349064E-1,3.045530319E-1,3.617720899E-1
4.390575479E0,1.448959112E-2,-1.604058743E-1,4.176034927E-1,4.475853772E-1
4.395557406E0,8.080947399E-2,-1.651768684E-1,4.848890305E-1,5.185855193E-1
4.400539333E0,1.042099595E-1,-1.564624310E-1,4.902191162E-1,5.250285610E-1
4.405521260E0,1.302932501E-1,-1.554973125E-1,4.173450470E-1,4.640394741E-1
4.410503187E0,1.446754336E-1,-1.361565590E-1,3.501043320E-1,4.025451936E-1
4.415445167E0,1.044854522E-1,-1.340060234E-1,3.192405701E-1,3.616481240E-1
4.420427094E0,8.857220411E-2,-1.559102535E-1,2.626276016E-1,3.180036158E-1
4.425409021E0,5.152171850E-2,-1.494295597E-1,2.232561111E-1,2.735451918E-1
4.430390948E0,5.044937134E-4,-1.695377827E-1,1.796646118E-1,2.470277049E-1
4.435372875E0,-4.533642530E-2,-2.063264847E-1,5.815315247E-2,2.191068207E-1
4.440354802E0,-6.024223566E-2,-1.622188091E-1,-6.935691833E-2,1.864254573E-1
4.445295010E0,-2.074533701E-2,-1.257119179E-1,-1.862201691E-1,2.256364480E-1
4.450275531E0,-1.280224323E-2,-1.251277924E-1,-3.282189369E-1,3.514947118E-1
4.455256052E0,-5.188286304E-3,-1.337499619E-1,-4.311523438E-1,4.514513419E-1
4.460236573E0,-4.301327467E-2,-1.513164043E-1,-5.500783920E-1,5.721302591E-1
4.465217146E0,-6.637859344E-2,-1.919996738E-1,-5.684762001E-1,6.036846714E-1
4.470197667E0,-9.451812506E-2,-2.033860683E-1,-5.061597824E-1,5.536219776E-1
4.475107198E0,-1.154224873E-1,-1.930520535E-1,-4.919848442E-1,5.409625984E-1
4.480087719E0,-1.005889177E-1,-1.612005234E-1,-4.614048004E-1,4.989971232E-1
4.485068239E0,-2.160841227E-2,-1.223502159E-1,-4.240331650E-1,4.418604121E-1
4.490048760E0,6.405854225E-2,-1.313776970E-1,-3.418326378E-1,3.717702898E-1
4.495029281E0,1.375258565E-1,-1.595153809E-1,-2.270011902E-1,3.096579698E-1
4.500009802E0,1.680126786E-1,-1.759099960E-1,-1.628589630E-1,2.927381573E-1
4.504966104E0,1.369973421E-1,-2.092447281E-1,-1.370792389E-1,2.852057954E-1
4.509946625E0,9.702706337E-2,-2.092800140E-1,-1.731824875E-1,2.884519878E-1
4.514927146E0,6.704390049E-2,-1.880252361E-1,-2.469596863E-1,3.175491468E-1
4.519907667E0,4.689937830E-2,-1.835250854E-1,-3.296570778E-1,3.802036265E-1
4.524888239E0,7.678687572E-3,-2.145035267E-1,-3.666067123E-1,4.248190282E-1
4.529868760E0,-4.825741053E-2,-2.448716164E-1,-3.915133476E-1,4.642990281E-1
4.534820062E0,-2.573055029E-2,-2.367038727E-1,-4.519505501E-1,5.108327361E-1
4.539800583E0,2.002060413E-2,-2.330136299E-1,-4.526391029E-1,5.094883059E-1
4.544781104E0,1.530873775E-2,-2.314219475E-1,-4.558343887E-1,5.114444889E-1
4.549761625E0,3.175562620E-2,-1.868095398E-1,-4.068579674E-1,4.488202642E-1
4.554742198E0,4.555982351E-2,-1.567714214E-1,-3.345494270E-1,3.722583716E-1
4.559722719E0,5.916231871E-2,-1.437058449E-1,-2.699165344E-1,3.114586415E-1
4.564664854E0,4.179310799E-2,-1.380574703E-1,-2.199869156E-1,2.630603961E-1
4.569645375E0,3.871172667E-2,-1.372559071E-1,-1.989459991E-1,2.447800898E-1
4.574625896E0,3.543955088E-2,-1.722173691E-1,-2.088832855E-1,2.730329851E-1
4.579606417E0,9.230971336E-4,-1.404957771E-1,-1.877641678E-1,2.345107635E-1
4.584586989E0,-1.222878695E-2,-1.185398102E-1,-2.261848450E-1,2.556576107E-1
4.589567510E0,-1.825231314E-2,-8.709526062E-2,-2.691121101E-1,2.834432204E-1
4.594519854E0,-5.747503042E-2,-1.055240631E-1,-2.643084526E-1,2.903406019E-1
4.599500375E0,-7.964146137E-2,-1.495172977E-1,-2.835154533E-1,3.302713990E-1
4.604480896E0,7.889688015E-3,-1.499843597E-1,-2.837753296E-1,3.210700749E-1
4.609461417E0,4.994565248E-2,-1.407294273E-1,-2.651691437E-1,3.043255078E-1
4.614441989E0,9.450238943E-2,-1.504766941E-1,-2.420449257E-1,3.002660206E-1
4.619422510E0,1.294450760E-1,-1.505620480E-1,-1.930437088E-1,2.769310952E-1
4.624365427E0,1.381794214E-1,-1.340322495E-1,-1.420850754E-1,2.392621262E-1
4.629345948E0,1.279254556E-1,-1.580233574E-1,-8.918285370E-2,2.220132542E-1
4.634326469E0,8.452105522E-2,-1.365532875E-1,-1.246805191E-1,2.033121761E-1
4.639306989E0,5.778312683E-2,-1.031720638E-1,-2.169747353E-1,2.471060506E-1
4.644287562E0,2.856844664E-2,-1.055331230E-1,-2.444171906E-1,2.677557828E-1
4.649268083E0,-1.510936022E-2,-1.028175354E-1,-2.337374687E-1,2.557986369E-1
4.654215010E0,-5.426770449E-2,-9.494996071E-2,-2.446880341E-1,2.680162547E-1
4.659195531E0,-3.421592712E-2,-9.614992142E-2,-2.272481918E-1,2.491129819E-1
4.664176052E0,-2.653241158E-2,-8.278036118E-2,-1.008024216E-1,1.331077956E-1
4.669156573E0,-6.901466846E-2,-7.418012619E-2,3.406524658E-2,1.068932019E-1
4.674137146E0,-5.890208483E-2,-7.306146622E-2,2.487211227E-1,2.658376014E-1
4.679117667E0,-4.630446434E-2,-5.122232437E-2,4.048843384E-1,4.107300298E-1
4.684088604E0,-4.957139492E-3,-3.039550781E-2,5.054931641E-1,5.064304484E-1
4.689069125E0,1.509362459E-2,-5.350017548E-2,6.009712219E-1,6.035366566E-1
4.694049646E0,2.104783058E-2,-5.598831177E-2,6.770944595E-1,6.797312773E-1
4.699030219E0,6.744301319E-2,-5.247306824E-2,6.557435989E-1,6.612878726E-1
4.704010739E0,1.255010962E-1,-4.537725449E-2,5.828580856E-1,5.979407733E-1
4.708991260E0,1.169909239E-1,-3.449440002E-2,4.349756241E-1,4.517527349E-1
4.713939854E0,1.159163117E-1,-5.038833618E-2,1.745538712E-1,2.155101614E-1
4.718920375E0,5.088293552E-2,-9.729719162E-2,-1.097068787E-1,1.552140968E-1
4.723900896E0,-6.481409073E-3,-9.850502014E-2,-4.201898575E-1,4.316303557E-1
4.728881417E0,-2.086675167E-2,-6.590795517E-2,-7.045731544E-1,7.079566440E-1
4.733861989E0,-3.532642126E-2,-6.580162048E-2,-9.324455261E-1,9.354317017E-1
4.738842510E0,-7.609754801E-2,-1.023848057E-1,-1.090158939E0,1.097597375E0
4.743787719E0,-4.320257902E-2,-1.371319294E-1,-1.109512329E0,1.118789184E0
4.748768239E0,-6.524634361E-2,-1.370487213E-1,-1.017693043E0,1.028950226E0
4.753748760E0,-5.157995224E-2,-1.500387192E-1,-8.820829391E-1,8.962379261E-1
4.758729333E0,-7.832443714E-2,-1.288399696E-1,-6.862573624E-1,7.026262325E-1
4.763709854E0,-1.071990132E-1,-1.359560490E-1,-4.447369576E-1,4.772490305E-1
4.768690375E0,-1.286410689E-1,-1.335008144E-1,-1.648540497E-1,2.480883910E-1
4.773602354E0,-1.238448620E-1,-1.055021286E-1,7.022762299E-2,1.772009255E-1
4.778582875E0,-1.241121292E-1,-5.217123032E-2,2.181358337E-1,2.563374726E-1
4.783563396E0,-9.837573767E-2,-5.941152573E-2,2.963008881E-1,3.178076957E-1
4.788543917E0,-5.147522688E-2,-8.634829521E-2,3.124246597E-1,3.281994745E-1
4.793524489E0,-3.358095884E-2,-1.112635136E-1,2.621946335E-1,2.867983195E-1
4.798505010E0,-3.741002083E-2,-1.174871922E-1,2.411651611E-1,2.708567609E-1
4.803487875E0,-2.933102846E-2,-1.311807632E-1,2.300100327E-1,2.664081774E-1
4.808468396E0,-4.032313824E-2,-1.379780769E-1,1.692314148E-1,2.220431871E-1
4.813448917E0,-4.856830835E-2,-1.045112610E-1,1.399049759E-1,1.812591695E-1
4.818429489E0,-3.730911016E-2,-1.095402241E-1,1.085138321E-1,1.586388419E-1
4.823410010E0,9.985625744E-3,-1.027243137E-1,6.312465668E-2,1.209823112E-1
4.828390531E0,7.167810202E-2,-6.979465485E-2,-2.708530426E-2,1.036467938E-1
4.833304125E0,6.914168596E-2,-5.117130280E-2,-1.024379730E-1,1.337632733E-1
4.838284646E0,7.395333052E-2,-4.682922363E-2,-1.914968491E-1,2.105543029E-1
4.843265167E0,6.216156483E-2,-1.840448380E-2,-3.180069923E-1,3.245477351E-1
4.848245739E0,4.813563824E-2,-1.577949524E-2,-3.724813461E-1,3.759100762E-1
4.853226260E0,3.895604610E-2,-5.316972733E-2,-3.601789474E-1,3.661604397E-1
4.858206781E0,1.008391380E-1,-3.755283356E-2,-2.959084511E-1,3.148659373E-1
4.863188239E0,5.740261078E-2,-4.073667526E-2,-2.346892357E-1,2.450174969E-1
4.868168760E0,1.860553026E-2,-2.222108841E-2,-1.527051926E-1,1.554310727E-1
4.873149281E0,-3.196096420E-2,-5.594968796E-2,-1.920986176E-2,6.723756096E-2
4.878129854E0,-6.087696552E-2,-6.093740463E-2,1.369657516E-1,1.617992254E-1
4.883110375E0,-8.721899986E-2,-7.567882538E-2,3.014907837E-1,3.228484648E-1
4.888090896E0,-8.956497908E-2,-9.556913376E-2,4.886569977E-1,5.059061239E-1
4.893038760E0,-7.057154179E-2,-1.066553593E-1,6.651935577E-1,6.773759498E-1
4.898019281E0,-7.046616077E-2,-9.277200699E-2,8.266010284E-1,8.347702590E-1
4.902999802E0,-2.276551723E-2,-1.040191650E-1,7.996091843E-1,8.066679013E-1
4.907980323E0,1.522922516E-2,-1.235127449E-1,6.831541061E-1,6.943967599E-1
4.912960896E0,5.076771975E-2,-1.176829338E-1,4.612302780E-1,4.787065945E-1
4.917941417E0,4.087436199E-2,-1.339383125E-1,1.868448257E-1,2.334976958E-1
4.922885583E0,5.941939354E-2,-1.333930492E-1,-1.351432800E-1,1.989675251E-1
4.927866104E0,8.491396904E-2,-9.462499619E-2,-4.094142914E-1,4.287007511E-1
4.932846625E0,1.077776551E-1,-7.932829857E-2,-6.389336586E-1,6.527979948E-1
4.937827146E0,1.164348125E-1,-6.329727173E-2,-7.577109337E-1,7.692135394E-1
4.942807719E0,8.502304554E-2,-4.170513153E-2,-7.786011696E-1,7.843392235E-1
4.947788239E0,3.992074728E-2,-6.922340393E-2,-7.665615082E-1,7.707153116E-1
4.952733864E0,1.211613417E-2,-5.050992966E-2,-7.622060776E-1,7.639739252E-1
4.957713239E0,1.318466663E-2,-3.589296341E-2,-7.012901306E-1,7.023318215E-1
4.962692667E0,-3.307408094E-2,-6.838274002E-2,-6.031527519E-1,6.079172116E-1
4.967672042E0,-1.193751097E-1,-9.527873993E-2,-5.037388802E-1,5.263851389E-1
4.972651417E0,-1.886500716E-1,-1.239573956E-1,-3.791794777E-1,4.412837655E-1
4.977630844E0,-1.605293155E-1,-1.474139690E-1,-2.723517418E-1,3.488208862E-1
4.982585583E0,-8.320599794E-2,-1.398334503E-1,-1.449766159E-1,2.179331344E-1
4.987564958E0,2.872061729E-2,-1.561918259E-1,-5.657577515E-2,1.685870062E-1
4.992544385E0,9.196835756E-2,-1.704277992E-1,3.130245209E-2,1.961725186E-1
4.997523760E0,9.288197756E-2,-1.825768948E-1,1.447868347E-1,2.508477860E-1
5.002503135E0,9.374463558E-2,-1.690299511E-1,2.314643860E-1,3.015542125E-1
5.007482562E0,1.064774990E-1,-1.966736317E-1,2.916355133E-1,3.675176837E-1
5.012433500E0,1.191293597E-1,-1.725573540E-1,2.946548462E-1,3.616480653E-1
5.017412875E0,1.484282613E-1,-1.493158340E-1,2.290811539E-1,3.111339617E-1
5.022392250E0,1.016153693E-1,-1.290900707E-1,1.523876190E-1,2.240801555E-1
5.027371677E0,2.221411467E-2,-9.735870361E-2,-3.524017334E-2,1.058964300E-1
5.032351052E0,-2.283883095E-2,-9.174966812E-2,-1.977214813E-1,2.191652299E-1
5.037330479E0,-1.732969284E-2,-6.914973259E-2,-3.329467773E-1,3.404931135E-1
5.042282719E0,-1.172053814E-2,-5.562210083E-2,-4.412364960E-1,4.448829447E-1
5.047262094E0,8.120119572E-3,-1.293277740E-2,-5.062484741E-1,5.064787366E-1
5.052241469E0,2.760225534E-2,8.702278137E-3,-5.377836227E-1,5.385618247E-1
5.057220896E0,1.824432611E-2,1.642513275E-2,-5.265421867E-1,5.271141383E-1
5.062200271E0,-3.191411495E-3,-1.811742783E-2,-5.227761269E-1,5.230997086E-1
5.067179698E0,-4.390156269E-2,6.194114685E-4,-5.027379990E-1,5.046515892E-1
5.072119906E0,-9.415292740E-2,-3.013658524E-2,-4.165935516E-1,4.281625565E-1
5.077099281E0,-9.684312344E-2,-6.250405312E-2,-3.385138512E-1,3.575989019E-1
5.082078708E0,-6.188607216E-2,-6.095266342E-2,-2.446160316E-1,2.595806542E-1
5.087058083E0,-5.108195543E-2,-6.170868874E-2,-2.325153351E-2,8.341440072E-2
5.092037458E0,-7.358253002E-2,-8.409380913E-2,1.678876877E-1,2.016740765E-1
5.097016885E0,-6.032681465E-2,-1.186423302E-1,3.576765060E-1,3.816383236E-1
5.101983500E0,-1.629579067E-2,-1.299631596E-1,5.106573105E-1,5.271876937E-1
5.106962875E0,4.424917698E-2,-1.349978447E-1,6.533031464E-1,6.685711696E-1
5.111942302E0,1.119066477E-1,-1.100251675E-1,7.571640015E-1,7.732567235E-1
5.116921677E0,1.438155174E-1,-9.835624695E-2,7.443208694E-1,7.644412411E-1
5.121901052E0,1.472301483E-1,-7.347774506E-2,5.609922409E-1,5.846263678E-1
5.126880479E0,1.128855944E-1,-5.417037010E-2,2.796945572E-1,3.064418897E-1
5.131831208E0,6.236737967E-2,-1.368665695E-2,1.262760162E-2,6.508817825E-2
5.136810583E0,4.323917627E-2,-9.024620056E-3,-2.427935600E-1,2.467788138E-1
5.141790010E0,7.513403893E-3,3.434371948E-2,-4.513030052E-1,4.526702385E-1
5.146769385E0,-2.130156755E-2,4.263353348E-2,-6.133480072E-1,6.151968408E-1
5.151748760E0,-6.462156773E-2,5.421829224E-2,-6.889700890E-1,6.941147987E-1
5.156728187E0,-7.483565807E-2,4.536104202E-2,-6.884136200E-1,6.939533933E-1
5.161644646E0,-6.367337704E-2,8.912086487E-3,-5.196080208E-1,5.235706442E-1
5.166624021E0,-2.402853966E-2,-6.474041939E-2,-2.550683022E-1,2.642508872E-1
5.171603448E0,3.917002678E-2,-1.045134068E-1,-9.375572205E-3,1.120055559E-1
5.176582823E0,9.497243166E-2,-1.469566822E-1,2.868194580E-1,3.359783188E-1
5.181562250E0,1.081475019E-1,-1.472063065E-1,5.025568008E-1,5.347232152E-1
5.186541625E0,8.378064632E-2,-1.344168186E-1,6.267776489E-1,6.464807027E-1
5.191531781E0,6.240034103E-2,-1.586155891E-1,6.103878021E-1,6.337396758E-1
5.196511156E0,6.090599298E-2,-1.310667992E-1,5.041570663E-1,5.244639105E-1
5.201490531E0,3.097085357E-1,1.859898567E-1,1.137084961E-1,3.787363541E-1
5.206469958E0,-7.013082504E-4,-1.247937679E-1,-1.971402168E-1,2.333200408E-1
5.211449333E0,-2.336178124E-1,-3.284523487E-1,-2.392444611E-1,4.687175480E-1
5.216428760E0,-2.156087160E-1,-2.186036110E-1,-3.857865334E-1,4.930577111E-1
5.221346781E0,-7.440441847E-2,-3.994560242E-2,-5.528841019E-1,5.592964319E-1
5.226326156E0,5.587595701E-2,9.981441498E-2,-5.335717201E-1,5.456957216E-1
5.231305583E0,6.353390217E-2,9.153842926E-2,-4.124431610E-1,4.272296827E-1
5.236284958E0,6.668865681E-3,1.227521896E-2,-3.375344276E-1,3.378233926E-1
5.241264385E0,-4.490602016E-2,-5.650782585E-2,-3.299279213E-1,3.377308370E-1
5.246243760E0,-5.277860165E-2,-1.077826023E-1,-3.012037277E-1,3.242319474E-1
5.251230375E0,1.796782017E-3,-1.034679413E-1,-2.421536446E-1,2.633386240E-1
5.256209750E0,6.608009338E-3,-8.229446411E-2,-1.766529083E-1,1.949930630E-1
5.261189125E0,-7.155299187E-3,-8.973836899E-2,-1.046466827E-1,1.380402165E-1
5.266168552E0,-2.277398109E-2,-1.325788498E-1,-4.524135590E-2,1.419245782E-1
5.271147927E0,-4.975587130E-2,-1.487100124E-1,-1.023006439E-2,1.571463291E-1
5.276127354E0,-9.540963173E-2,-1.196453571E-1,4.827404022E-2,1.604630558E-1
5.281079698E0,-1.431296468E-1,-1.243910789E-1,6.369113922E-2,2.000394899E-1
5.286059073E0,-1.598395109E-1,-8.896470070E-2,9.338283539E-2,2.053868086E-1
5.291038500E0,-1.817368269E-1,-6.358838081E-2,8.499622345E-2,2.104664211E-1
5.296017875E0,-1.972633004E-1,-5.283999443E-2,3.883457184E-2,2.078773645E-1
5.300997250E0,-1.873403788E-1,-3.997612000E-2,3.359889984E-2,1.944823739E-1
5.305976677E0,-1.285530329E-1,-8.300781250E-3,2.400398254E-3,1.288431106E-1
5.310902042E0,-5.427914858E-2,-6.995201111E-4,-1.894950867E-2,5.749607967E-2
5.315881417E0,7.018804550E-3,-2.870559692E-4,7.431983948E-3,1.022645607E-2
5.320860844E0,3.696572781E-2,2.610969543E-2,5.504131317E-2,7.125817415E-2
5.325840219E0,9.073740244E-2,1.413059235E-2,1.094264984E-1,1.428534508E-1
5.330819594E0,1.090671420E-1,-2.241134644E-4,1.681032181E-1,2.003855874E-1
5.335799021E0,1.566459537E-1,4.187583923E-3,2.050065994E-1,2.580371998E-1
5.340753917E0,1.762198806E-1,2.237749100E-2,2.179822922E-1,2.811947334E-1
5.345733292E0,1.587718129E-1,1.154756546E-2,1.739110947E-1,2.357687505E-1
5.350712719E0,8.543837070E-2,6.289482117E-4,9.219837189E-2,1.257006386E-1
5.355692094E0,-3.313660622E-3,-1.243019104E-2,-3.884601593E-2,4.092069097E-2
5.360671469E0,-1.030313969E-1,-3.217697144E-2,-1.547231674E-1,1.886533455E-1
5.365650896E0,-1.377983689E-1,-6.080007553E-2,-2.057199478E-1,2.549622258E-1
5.370602458E0,-1.371428967E-1,-9.122586250E-2,-2.279047966E-1,2.811955341E-1
5.375581833E0,-9.211462736E-2,-9.261322021E-2,-1.905865669E-1,2.310531381E-1
5.380561260E0,-5.295956135E-2,-8.664536476E-2,-1.108598709E-1,1.503397664E-1
5.385540635E0,-4.323542118E-2,-7.124090195E-2,-3.648662567E-2,9.097165277E-2
5.390520010E0,1.327782869E-2,-8.948564529E-2,6.120872498E-2,1.092267800E-1
5.395499437E0,3.332328796E-2,-7.472348213E-2,1.203145981E-1,1.454979134E-1
5.400450792E0,6.906986237E-4,-9.590911865E-2,1.695423126E-1,1.947912520E-1
5.405430167E0,-2.232587337E-2,-9.104919434E-2,1.876220703E-1,2.097389846E-1
5.410409594E0,-4.284012318E-2,-5.324029922E-2,1.795587540E-1,1.921227518E-1
5.415388969E0,-6.316250563E-2,-4.000663757E-3,1.835041046E-1,1.941114727E-1
5.420368344E0,-6.657987833E-2,-1.230812073E-2,1.589612961E-1,1.727803915E-1
5.425347771E0,-8.167535067E-2,1.258993149E-2,1.061620712E-1,1.345353286E-1
5.430294698E0,-1.154068112E-1,-2.222204208E-2,6.809043884E-2,1.358265773E-1
5.435274073E0,-5.823063850E-2,-3.061175346E-2,-2.433395386E-2,7.014291141E-2
5.440253500E0,8.248925209E-3,-1.016426086E-2,-1.351461411E-1,1.357786302E-1
5.445232875E0,6.024128199E-2,-2.772855759E-2,-1.833820343E-1,1.950047575E-1
5.450212302E0,7.413274050E-2,-4.247975349E-2,-2.123875618E-1,2.289293976E-1
5.455191677E0,8.816373348E-2,-6.895065308E-3,-2.793450356E-1,2.930085915E-1
5.460152042E0,3.560316563E-2,-4.003691673E-2,-3.008413315E-1,3.055749447E-1
5.465130531E0,-3.772723675E-2,-7.493662834E-2,-2.938365936E-1,3.055794273E-1
5.470108969E0,-1.034895778E-1,-5.691981316E-2,-2.823047638E-1,3.060162373E-1
5.475087406E0,-1.261990070E-1,-3.406620026E-2,-2.210760117E-1,2.568293175E-1
5.480065896E0,-1.298853159E-1,-3.982400894E-2,-1.770129204E-1,2.231361041E-1
5.485044333E0,-8.622115850E-2,-9.804248810E-3,-1.072163582E-1,1.379331683E-1
5.490026052E0,-6.449240446E-2,-4.883503914E-2,-4.040431976E-2,9.042477723E-2
5.495004542E0,-3.825736046E-2,-4.953742027E-2,2.102851868E-3,6.262590217E-2
5.499982979E0,8.968651295E-3,-2.889657021E-2,5.854701996E-2,6.590297430E-2
5.504961417E0,-3.736972809E-3,-2.998900414E-2,8.374118805E-2,8.902747840E-2
5.509939906E0,-2.592456341E-2,-3.125000000E-2,1.492071152E-1,1.546331423E-1
5.514918344E0,-1.479721069E-2,-3.737163544E-2,2.023191452E-1,2.062732001E-1
5.519876260E0,-2.995246649E-2,-1.267957687E-2,2.645568848E-1,2.665488083E-1
5.524854750E0,-1.138812304E-2,3.520870209E-2,3.074150085E-1,3.096341866E-1
5.529833187E0,4.526335001E-2,4.678869247E-2,3.500328064E-1,3.560349957E-1
5.534811625E0,8.746606112E-2,7.696723938E-2,4.209280014E-1,4.367546796E-1
5.539790114E0,1.105467081E-1,1.064548492E-1,3.964080811E-1,4.250794941E-1
5.544768552E0,9.816420078E-2,1.068797112E-1,3.413295746E-1,3.708980473E-1
5.549727614E0,9.108042717E-2,7.157564163E-2,2.463312149E-1,2.722090816E-1
5.554706104E0,8.454996347E-2,9.131431580E-2,1.757802963E-1,2.153734273E-1
5.559684542E0,3.067040443E-2,9.447765350E-2,8.669662476E-2,1.318446262E-1
5.564662979E0,-1.465618610E-3,7.424402237E-2,8.369255066E-2,1.118872912E-1
5.569641469E0,-6.911516190E-2,9.496641159E-2,7.340049744E-2,1.385032778E-1
5.574619906E0,-1.341231465E-1,6.366300583E-2,1.200323105E-1,1.909181822E-1
5.579574333E0,-1.561729312E-1,3.764772415E-2,2.279348373E-1,2.788577158E-1
5.584552823E0,-1.143013835E-1,1.191425323E-2,3.515701294E-1,3.698760760E-1
5.589531260E0,-9.925121069E-2,9.858608246E-3,4.672250748E-1,4.777523056E-1
5.594509698E0,-2.277630568E-2,3.114795685E-2,5.180053711E-1,5.194405835E-1
5.599488187E0,3.386390209E-2,5.662155151E-2,5.614471436E-1,5.653102325E-1
5.604466625E0,4.958212376E-2,8.381080627E-2,5.097303391E-1,5.189486071E-1
5.609422302E0,5.322939157E-2,8.666849136E-2,4.111127853E-1,4.235073999E-1
5.614400792E0,3.306567669E-2,7.506799698E-2,3.632946014E-1,3.724399422E-1
5.619379229E0,5.964338779E-3,6.826829910E-2,2.968931198E-1,3.046992921E-1
5.624357667E0,1.241028309E-2,8.769464493E-2,2.048892975E-1,2.232128807E-1
5.629336156E0,-4.910707474E-3,1.120891571E-1,1.467189789E-1,1.847012533E-1
5.634314594E0,-1.016682386E-2,1.435780525E-1,1.293287277E-1,1.935043702E-1
5.639273083E0,1.092445850E-2,1.274604797E-1,1.927547455E-1,2.313437045E-1
5.644251573E0,-2.977615595E-2,1.280059814E-1,2.533121109E-1,2.853755005E-1
5.649230010E0,-5.098283291E-2,1.070847511E-1,3.775320053E-1,3.957231459E-1
5.654208448E0,-6.460678577E-2,1.027121544E-1,4.224243164E-1,4.395066854E-1
5.659186937E0,-4.699862003E-2,1.099991798E-1,3.767776489E-1,3.953101144E-1
5.664165375E0,-2.478510141E-2,1.147789955E-1,3.386726379E-1,3.584517747E-1
5.669086208E0,1.140689850E-2,1.171674728E-1,3.103828430E-1,3.319575926E-1
5.674064698E0,-5.106925964E-4,1.148467064E-1,2.181873322E-1,2.465679190E-1
5.679043135E0,-2.439999580E-2,1.509871483E-1,1.123085022E-1,1.897516229E-1
5.684021625E0,-1.984155178E-2,1.303806305E-1,7.119464874E-2,1.498715250E-1
5.689000062E0,-6.141364574E-3,1.293840408E-1,1.300086975E-1,1.835216821E-1
5.693978500E0,-3.567987680E-2,1.264262199E-1,2.237987518E-1,2.595043815E-1
5.698937094E0,-3.911596537E-2,1.545844078E-1,3.333578110E-1,3.695319039E-1
5.703915583E0,-3.790736198E-2,1.918830872E-1,4.420776367E-1,4.834136160E-1
5.708894021E0,-4.387867451E-2,2.217102051E-1,5.380344391E-1,5.835767394E-1
5.713872510E0,-2.827024460E-2,1.940641403E-1,6.261577606E-1,6.561506218E-1
5.718850948E0,-2.670139074E-2,1.781306267E-1,7.113351822E-1,7.337855449E-1
5.723829385E0,2.501988411E-2,1.951880455E-1,7.389631271E-1,7.647162029E-1
5.728784437E0,9.782117605E-2,2.306642532E-1,7.285585403E-1,7.704365820E-1
5.733762927E0,1.204267144E-1,2.417068481E-1,7.255306244E-1,7.741572714E-1
5.738741364E0,1.264514923E-1,2.833471298E-1,6.869697571E-1,7.537924270E-1
5.743719854E0,1.014567614E-1,2.769389153E-1,6.108226776E-1,6.783015411E-1
5.748698292E0,7.448893785E-2,2.585649490E-1,5.686216354E-1,6.290747166E-1
5.753676729E0,-2.054035664E-3,2.784733772E-1,5.148277283E-1,5.853197679E-1
5.758672042E0,-4.696786404E-2,2.603354454E-1,4.590330124E-1,5.298035776E-1
5.763650479E0,-7.952135801E-2,2.614994049E-1,4.321279526E-1,5.113121870E-1
5.768628969E0,-1.093620658E-1,2.794322968E-1,4.505014420E-1,5.412892195E-1
5.773607406E0,-1.102733612E-1,2.544703484E-1,4.734506607E-1,5.486992806E-1
5.778585896E0,-1.180428863E-1,2.156004906E-1,4.296026230E-1,4.949506119E-1
5.783564333E0,-1.113413572E-1,2.103829384E-1,3.836965561E-1,4.515317550E-1
5.788520375E0,-1.024106741E-1,1.792545319E-1,2.929582596E-1,3.583917901E-1
5.793498864E0,-1.103961468E-1,2.009906769E-1,2.408332825E-1,3.325435781E-1
5.798477302E0,-1.139330864E-1,2.133941650E-1,1.985025406E-1,3.129234355E-1
5.803455739E0,-1.227127314E-1,1.974568367E-1,1.255559921E-1,2.642194617E-1
5.808434229E0,-1.275155544E-1,2.200994492E-1,1.267147064E-1,2.841840970E-1
5.813412667E0,-9.043157101E-2,2.238969803E-1,1.396493912E-1,2.789438640E-1
5.818373135E0,-5.427807570E-2,2.541685104E-1,2.236127853E-1,3.428562658E-1
5.823351625E0,-2.122485638E-2,2.416033745E-1,4.042243958E-1,4.714022138E-1
5.828330062E0,-5.077123642E-3,2.291874886E-1,5.571784973E-1,6.024952780E-1
5.833308500E0,2.320349216E-2,2.383351326E-1,7.040328979E-1,7.436426285E-1
5.838286989E0,5.649858713E-2,2.617082596E-1,8.068370819E-1,8.500996296E-1
5.843265427E0,7.822561264E-2,2.989277840E-1,9.112129211E-1,9.621777664E-1
5.848216989E0,7.676053047E-2,3.210840225E-1,9.935207367E-1,1.046933896E0
5.853195479E0,9.265184402E-2,3.449964523E-1,1.058665276E0,1.117308857E0
5.858173917E0,6.872683764E-2,3.659052849E-1,1.056900978E0,1.120557778E0
5.863152354E0,5.267632008E-2,3.481612206E-1,1.005448341E0,1.065325020E0
5.868130844E0,5.367422104E-2,3.444194794E-1,8.833293915E-1,9.496191414E-1
5.873109281E0,7.135862112E-2,3.383564949E-1,7.645883560E-1,8.391498821E-1
5.878070114E0,3.172516823E-2,3.536348343E-1,7.134094238E-1,7.968795946E-1
5.883048604E0,-4.828566313E-2,3.448109627E-1,7.221841812E-1,8.017331831E-1
5.888027042E0,-2.844905853E-2,3.337917328E-1,6.738729477E-1,7.525496791E-1
5.893005479E0,1.926690340E-2,3.442397118E-1,6.093788147E-1,7.001533636E-1
5.897983969E0,3.055500984E-2,3.212747574E-1,6.618938446E-1,7.363793451E-1
5.902962406E0,-4.854375124E-2,2.602682114E-1,7.425918579E-1,7.883772606E-1
5.907919177E0,-6.042307615E-2,1.971712112E-1,7.752122879E-1,8.021730025E-1
5.912897667E0,-8.648031950E-2,1.958837509E-1,8.220558167E-1,8.494851707E-1
5.917876104E0,-1.025313735E-1,2.274341583E-1,8.829507828E-1,9.175189719E-1
5.922854542E0,-5.395579338E-2,2.178139687E-1,9.008073807E-1,9.283361943E-1
5.927833031E0,4.026293755E-3,2.171025276E-1,8.855657578E-1,9.117984590E-1
5.932811469E0,4.975819588E-2,2.063584328E-1,7.899427414E-1,8.179665125E-1
5.937769854E0,5.258899927E-2,1.764736176E-1,5.883092880E-1,6.164546690E-1
5.942748344E0,1.736903191E-2,1.658921242E-1,3.930864334E-1,4.270115037E-1
5.947726781E0,1.077222824E-2,1.700057983E-1,2.444677353E-1,2.979639004E-1
5.952705219E0,-6.972080469E-2,1.604666710E-1,3.028488159E-2,1.775604606E-1
5.957683708E0,-1.333569884E-1,1.708693504E-1,-7.560157776E-2,2.295561366E-1
5.962662146E0,-1.586757898E-1,1.868958473E-1,-7.179164886E-2,2.554644885E-1
5.967616729E0,-1.602694392E-1,1.822814941E-1,-5.655097961E-2,2.492204838E-1
5.972594489E0,-1.452904344E-1,1.831793785E-1,8.091926575E-3,2.339433143E-1
5.977572250E0,-4.487287998E-2,1.772971153E-1,1.100244522E-1,2.134320092E-1
5.982550062E0,3.130656481E-2,2.073469162E-1,2.157011032E-1,3.008318643E-1
5.987527875E0,2.395093441E-2,1.993479729E-1,3.298730850E-1,3.861729066E-1
5.992505687E0,1.925384998E-2,1.652250290E-1,4.240989685E-1,4.555545588E-1
5.997466156E0,5.269706249E-3,1.667890549E-1,4.915094376E-1,5.190644332E-1
6.002443917E0,-2.531355619E-2,2.109322548E-1,5.204410553E-1,5.621317321E-1
6.007421729E0,-6.771880388E-2,2.403092384E-1,5.325927734E-1,5.882086609E-1
6.012399489E0,-1.052633524E-1,2.289652824E-1,5.684671402E-1,6.218202018E-1
6.017377302E0,-1.236683726E-1,2.081327438E-1,6.183509827E-1,6.640565060E-1
6.022355062E0,-1.158338189E-1,1.728730202E-1,7.012548447E-1,7.314785792E-1
6.027314489E0,-1.345267296E-1,1.588644981E-1,7.955875397E-1,8.223715116E-1
6.032292250E0,-9.136939049E-2,1.563091278E-1,8.442745209E-1,8.634699622E-1
6.037270062E0,-5.834758282E-3,1.364374161E-1,8.525285721E-1,8.633968839E-1
6.042247823E0,8.384895325E-2,1.329097748E-1,7.706594467E-1,7.865186826E-1
6.047225635E0,1.303373575E-1,1.599569321E-1,6.801128387E-1,7.107232375E-1
6.052203396E0,1.435821056E-1,1.675796509E-1,5.214939117E-1,5.662637728E-1
6.057166989E0,1.428633928E-1,1.942310333E-1,4.187555313E-1,4.832099319E-1
6.062144802E0,6.886708736E-2,1.829638481E-1,2.359180450E-1,3.063915296E-1
6.067122614E0,3.136587143E-2,2.342710495E-1,5.422401428E-2,2.425015180E-1
6.072100375E0,-1.998752356E-2,2.240710258E-1,4.235649109E-2,2.289135166E-1
6.077078187E0,-9.484714270E-2,1.957187653E-1,4.684638977E-2,2.224778636E-1
6.082056000E0,-1.338077188E-1,1.753325462E-1,1.175422668E-1,2.499243723E-1
6.087015375E0,-1.228932738E-1,1.647543907E-1,2.446222305E-1,3.195102529E-1
6.091993187E0,-1.079208255E-1,1.164097786E-1,3.991241455E-1,4.295325653E-1
6.096970948E0,-6.268268824E-2,1.371879578E-1,5.002040863E-1,5.224497900E-1
6.101948760E0,2.955549955E-2,1.242523193E-1,4.913225174E-1,5.076514380E-1
6.106926573E0,4.041308165E-2,1.136178970E-1,5.443553925E-1,5.575527213E-1
6.111904385E0,-1.508933306E-2,1.314029694E-1,5.803861618E-1,5.952667680E-1
6.116865531E0,-1.757603884E-2,1.276202202E-1,5.828542709E-1,5.969212167E-1
6.121843292E0,1.115232706E-2,1.189007759E-1,5.663776398E-1,5.788310632E-1
6.126821052E0,2.552282810E-2,1.551575661E-1,5.358915329E-1,5.584845746E-1
6.131798864E0,6.115406752E-2,1.457285881E-1,5.366659164E-1,5.594523637E-1
6.136776677E0,7.253211737E-2,1.740903854E-1,5.352239609E-1,5.674795667E-1
6.141754489E0,6.234604120E-2,1.568036079E-1,4.983091354E-1,5.261049275E-1
6.146713812E0,2.371662855E-2,1.251769066E-1,4.475660324E-1,4.653462042E-1
6.151691573E0,-2.182948589E-2,1.222043037E-1,3.569307327E-1,3.779020591E-1
6.156669333E0,-3.394049406E-2,9.558629990E-2,2.266407013E-1,2.483036555E-1
6.161647146E0,-4.386615753E-2,1.145749092E-1,7.833290100E-2,1.455599292E-1
6.166624958E0,3.875732422E-2,8.840513229E-2,8.561801910E-2,1.290272948E-1
6.171602719E0,1.403927803E-2,7.708549500E-2,1.258897781E-1,1.482818637E-1
6.176564177E0,-7.472419739E-2,1.471223831E-1,-7.827758789E-3,1.651967769E-1
6.181541989E0,-1.130676866E-1,1.575708389E-1,1.855373383E-2,1.948258506E-1
6.186519802E0,-1.292872429E-2,1.158466339E-1,1.253614426E-1,1.711814411E-1
6.191497562E0,6.297957897E-2,6.761264801E-2,1.384658813E-1,1.664653052E-1
6.196475375E0,8.361798525E-2,5.317354202E-2,1.157617569E-1,1.523816832E-1
6.201453187E0,1.039949059E-1,7.214927673E-2,1.906309128E-1,2.288243945E-1
6.206414073E0,1.407652497E-1,1.122441292E-1,3.148212433E-1,3.626651559E-1
6.211391833E0,1.226131916E-1,8.745861053E-2,4.191751480E-1,4.454108306E-1
6.216369594E0,1.096784472E-1,6.255722046E-2,4.158954620E-1,4.346398543E-1
6.221347406E0,9.237074852E-2,5.179309845E-2,3.462677002E-1,3.620997106E-1
6.226325219E0,6.590747833E-2,4.820394516E-2,2.463397980E-1,2.595201574E-1
6.231302979E0,6.373596191E-2,6.851911545E-2,1.780405045E-1,2.011356837E-1
6.236226469E0,6.872349977E-2,8.189821243E-2,8.162212372E-2,1.345080210E-1
6.241204229E0,2.585214376E-2,1.098208427E-1,-7.042884827E-3,1.130422623E-1
6.246182042E0,-1.729261875E-2,1.142578125E-1,-5.478382111E-2,1.278872528E-1
6.251159802E0,-3.675031662E-2,1.572561264E-1,-6.912899017E-2,1.756669928E-1
6.256137614E0,-3.489106894E-2,1.386718750E-1,-1.946735382E-2,1.443130399E-1
6.261115427E0,-2.365720272E-2,1.586003304E-1,5.099487305E-2,1.682682534E-1
6.266111364E0,-1.496320963E-2,1.500782967E-1,1.350173950E-1,2.024279865E-1
6.271089125E0,-2.986782789E-2,1.084365845E-1,2.325410843E-1,2.583136386E-1
6.276066885E0,-4.933261871E-2,1.290535927E-1,4.051885605E-1,4.280961418E-1
6.281044698E0,-7.083106041E-2,1.089882851E-1,5.408134460E-1,5.562145888E-1
6.286022510E0,-8.948230743E-2,7.448863983E-2,6.707077026E-1,6.807381752E-1
6.291000323E0,-9.816032648E-2,9.895229340E-2,7.167062759E-1,7.301334755E-1
6.295939229E0,-9.448564053E-2,1.085176468E-1,7.197484970E-1,7.339901327E-1
6.300916989E0,-7.389235497E-2,1.009984016E-1,6.659135818E-1,6.775704065E-1
6.305894802E0,-4.833436012E-2,9.317588806E-2,5.722932816E-1,5.818398032E-1
6.310872562E0,-2.767169476E-2,8.286666870E-2,4.866628647E-1,4.944424651E-1
6.315850375E0,-5.053937435E-3,6.527757645E-2,4.185161591E-1,4.236065151E-1
6.320828187E0,5.090355873E-3,8.578300476E-2,3.319988251E-1,3.429400173E-1
6.325784698E0,-2.125245333E-2,1.274824142E-1,2.557773590E-1,2.865754527E-1
6.330762458E0,-9.810143709E-2,1.450285912E-1,2.325506210E-1,2.910961620E-1
6.335740271E0,-1.038601995E-1,1.528892517E-1,2.238597870E-1,2.903020299E-1
6.340718031E0,-1.148666739E-1,1.441006660E-1,1.653804779E-1,2.476086776E-1
6.345695844E0,-1.021170616E-1,1.449856758E-1,1.643600464E-1,2.417911605E-1
6.350673656E0,-6.307661533E-3,1.173691750E-1,2.061014175E-1,2.372616786E-1
6.355635323E0,8.416318893E-2,1.208167076E-1,2.403736115E-1,2.818857788E-1
6.360613083E0,1.648696661E-1,1.361413002E-1,2.648010254E-1,3.403469457E-1
6.365590896E0,2.098151445E-1,1.511249542E-1,2.985877991E-1,3.949883801E-1
6.370568656E0,2.219231129E-1,1.514759064E-1,3.392782211E-1,4.327869332E-1
6.375546469E0,2.085712552E-1,1.135873795E-1,3.582944870E-1,4.298592801E-1
6.380524281E0,1.605153680E-1,1.138868332E-1,3.486442566E-1,4.003601026E-1
6.385484489E0,8.505141735E-2,6.653690338E-2,2.773160934E-1,2.975989227E-1
6.390462250E0,4.352635145E-2,5.763864517E-2,1.851739883E-1,1.987615724E-1
6.395440062E0,2.829658985E-2,5.366420746E-2,8.901596069E-2,1.077236530E-1
6.400417823E0,-5.901694298E-3,2.146005630E-2,2.442836761E-2,3.304707486E-2
6.405395635E0,-2.101778984E-3,9.070396423E-3,-8.500289917E-2,8.551130003E-2
6.410373448E0,-3.539025784E-3,-2.951622009E-4,-1.319913864E-1,1.320391529E-1
6.415334437E0,-7.147789001E-4,-1.401805878E-2,-1.074371338E-1,1.083501481E-1
6.420312198E0,-8.050799370E-3,-5.888462067E-3,-3.095054626E-2,3.251808220E-2
6.425290010E0,-2.286100388E-2,-4.833221436E-3,2.111816406E-2,3.149543429E-2
6.430267771E0,-6.609940529E-2,5.352020264E-2,2.034759521E-2,8.745037508E-2
6.435245583E0,2.217689753E-1,3.494458199E-1,-3.060150146E-2,4.150063991E-1
6.440223396E0,-7.083523273E-2,5.623817444E-2,4.242706299E-2,9.990204269E-2
6.445184698E0,-3.949372470E-1,-2.512850761E-1,2.289972305E-1,5.211135674E-1
6.450162458E0,-3.196759820E-1,-1.285247803E-1,3.616943359E-1,4.995339280E-1
6.455140271E0,-1.287094951E-1,5.954980850E-2,3.413467407E-1,3.696348350E-1
6.460118031E0,-1.076161861E-3,9.822463989E-2,4.330930710E-1,4.440932854E-1
6.465095844E0,6.651413441E-2,1.027946472E-1,4.791660309E-1,4.945613761E-1
6.470073656E0,7.218641043E-2,7.620191574E-2,4.394216537E-1,4.517842401E-1
6.475029489E0,5.912840366E-2,5.915784836E-2,3.786878586E-1,3.878147926E-1
6.480006625E0,7.758277655E-2,8.502054214E-2,3.469190598E-1,3.655139037E-1
6.484983760E0,8.208608627E-2,1.464290619E-1,2.939310074E-1,3.384893393E-1
6.489960948E0,5.144351721E-2,1.741642952E-1,2.816743851E-1,3.351419049E-1
6.494938083E0,-1.893961430E-2,1.565370560E-1,3.407506943E-1,3.754645050E-1
6.499915271E0,-1.710444689E-2,1.366357803E-1,4.159536362E-1,4.381544545E-1
6.504906417E0,-3.663593531E-2,1.334424019E-1,4.668169022E-1,4.868953548E-1
6.509883552E0,-1.816004515E-2,1.180739403E-1,4.414138794E-1,4.572936207E-1
6.514860739E0,-1.575946808E-4,6.920194626E-2,4.520721436E-1,4.573381213E-1
6.519837927E0,-6.426274776E-3,6.073236465E-2,4.652414322E-1,4.692326793E-1
6.524815062E0,-3.923112154E-2,1.380538940E-2,4.120845795E-1,4.141779452E-1
6.529792250E0,-7.002723217E-2,1.205396652E-2,3.833551407E-1,3.898849513E-1
6.534720323E0,-1.413337588E-1,4.108238220E-2,3.312025070E-1,3.624335721E-1
6.539697458E0,-1.413124204E-1,-1.624107361E-3,2.748918533E-1,3.090911984E-1
6.544674594E0,-9.640789032E-2,1.527976990E-2,2.262659073E-1,2.464228347E-1
6.549651781E0,-6.393855810E-2,6.507921219E-2,1.686697006E-1,1.917626423E-1
6.554628917E0,-2.689713240E-2,6.919193268E-2,1.519994736E-1,1.691591536E-1
6.559606104E0,3.151315451E-2,7.797098160E-2,8.320713043E-2,1.183046044E-1
6.564570271E0,4.012453556E-2,9.644842148E-2,-1.370143890E-2,1.053565650E-1
6.569547406E0,5.396306515E-2,1.007194519E-1,-6.481552124E-2,1.313676984E-1
6.574524594E0,6.579130888E-2,1.244215965E-1,-1.324052811E-1,1.932366126E-1
6.579501729E0,7.786422968E-2,6.770324707E-2,-1.617250443E-1,1.918373214E-1
6.584478864E0,7.807302475E-2,5.947637558E-2,-1.981916428E-1,2.211623017E-1
6.589456052E0,9.477156401E-2,3.513860703E-2,-1.704273224E-1,1.981460150E-1
6.594457146E0,1.300629377E-1,1.378393173E-2,-1.003150940E-1,1.648316797E-1
6.599434281E0,1.531808376E-1,4.512643814E-2,-4.754447937E-2,1.666170518E-1
6.604411469E0,8.117592335E-2,2.417421341E-2,-8.773803711E-5,8.469906034E-2
6.609388604E0,1.692050695E-2,1.304006577E-2,5.402755737E-2,5.809753718E-2
6.614365792E0,-3.738903999E-2,6.857395172E-3,7.438945770E-2,8.353894659E-2
6.619342979E0,-8.663207293E-2,3.193855286E-3,1.183023453E-1,1.466654754E-1
6.624306521E0,-5.012887716E-2,5.657052994E-2,1.879968643E-1,2.026226793E-1
6.629283656E0,7.267296314E-3,3.819370270E-2,2.500228882E-1,2.530277003E-1
6.634260844E0,-5.002975464E-3,5.476474762E-3,3.330574036E-1,3.331399940E-1
6.639237979E0,-2.925497293E-2,-1.298522949E-2,4.535617828E-1,4.546897409E-1
6.644215167E0,-6.285309792E-2,-5.719661713E-3,5.685939789E-1,5.720859544E-1
6.649192302E0,-7.255369425E-2,-3.958606720E-2,6.616430283E-1,6.667852669E-1
6.654128396E0,-4.418224096E-2,-1.692295074E-2,7.376728058E-1,7.391884909E-1
6.659105531E0,-1.100432873E-2,9.360790253E-3,7.327451706E-1,7.328875798E-1
6.664082719E0,1.276218891E-2,4.665851593E-2,5.784902573E-1,5.805091458E-1
6.669059854E0,5.816221237E-3,6.189727783E-2,4.090461731E-1,4.137437288E-1
6.674037042E0,1.625418663E-3,5.088520050E-2,1.958475113E-1,2.023565993E-1
6.679014177E0,-1.184868813E-2,7.121467590E-2,-3.002548218E-2,7.818856089E-2
6.683965687E0,1.281684637E-2,1.132698059E-1,-1.877603531E-1,2.196548899E-1
6.688942875E0,1.341086626E-2,1.270480156E-1,-3.492126465E-1,3.718474446E-1
6.693920010E0,-9.823918343E-3,1.271743774E-1,-4.336538315E-1,4.520237573E-1
6.698897198E0,-5.472749472E-2,1.187357903E-1,-4.489297867E-1,4.675801963E-1
6.703874333E0,-1.280620694E-1,1.041316986E-1,-4.359941483E-1,4.661911642E-1
6.708851521E0,-1.345230341E-1,3.096055984E-2,-3.332281113E-1,3.606881993E-1
6.713852458E0,-1.199213266E-1,-1.507949829E-2,-1.578407288E-1,1.988019404E-1
6.718829646E0,-1.220661998E-1,-1.067447662E-2,3.024959564E-2,1.262106953E-1
6.723806781E0,-4.833662510E-2,-1.850080490E-2,2.525806427E-1,2.578288001E-1
6.728783917E0,1.534527540E-2,-1.489925385E-2,4.186744690E-1,4.192204387E-1
6.733761104E0,4.555988312E-2,-3.805494308E-2,5.456476212E-1,5.488672044E-1
6.738738292E0,6.871724129E-2,-4.764461517E-2,6.315927505E-1,6.371039720E-1
6.743703083E0,1.598578691E-2,-7.452344894E-2,6.102657318E-1,6.150069538E-1
6.748680219E0,-1.234382391E-2,-6.623411179E-2,5.466842651E-1,5.508203094E-1
6.753657406E0,-3.312677145E-2,-1.084980965E-1,3.936452866E-1,4.096655118E-1
6.758634542E0,1.778274775E-2,-7.928609848E-2,2.348060608E-1,2.484681020E-1
6.763611729E0,3.969252110E-2,-4.314136505E-2,5.589199066E-2,8.099745817E-2
6.768588917E0,5.899840593E-2,9.461402893E-3,-1.524734497E-1,1.637634969E-1
6.773552719E0,8.501642942E-2,6.919813156E-2,-2.595310211E-1,2.817313004E-1
6.778529854E0,7.246577740E-2,8.612012863E-2,-3.397588730E-1,3.579162712E-1
6.783507042E0,2.644097805E-2,6.319856644E-2,-4.006280899E-1,4.064431701E-1
6.788484177E0,-4.992544651E-3,8.396339417E-2,-4.233474731E-1,4.316223582E-1
6.793461364E0,-3.634822369E-2,1.053504944E-1,-4.035034180E-1,4.186107122E-1
6.798438500E0,-7.459247112E-2,1.106772423E-1,-3.628187180E-1,3.865888136E-1
6.803401052E0,-7.446223497E-2,1.165571213E-1,-2.823925018E-1,3.144450859E-1
6.808378187E0,-4.589694738E-2,9.202051163E-2,-1.553792953E-1,1.863250648E-1
6.813355375E0,-3.641372919E-2,5.846548080E-2,5.118942261E-2,8.581683463E-2
6.818332562E0,-2.689564228E-2,3.233718872E-2,2.512664795E-1,2.547624640E-1
6.823309698E0,-1.240736246E-2,1.332044601E-2,4.378910065E-1,4.382692215E-1
6.828286833E0,4.518985748E-3,2.253484726E-2,6.184148788E-1,6.188418239E-1
6.833206417E0,5.014121532E-3,-2.119255066E-2,6.860570908E-1,6.864026496E-1
6.838183552E0,-5.127096176E-2,-6.764698029E-2,7.534742355E-1,7.582402318E-1
6.843160687E0,-6.665599346E-2,-7.409620285E-2,7.613229752E-1,7.678189508E-1
6.848137875E0,-8.458685875E-2,-8.113288879E-2,7.243156433E-1,7.337374418E-1
6.853115010E0,-9.321123362E-2,-3.425312042E-2,6.666564941E-1,6.740122339E-1
6.858092198E0,-8.079868555E-2,-1.454114914E-2,6.240892410E-1,6.294658477E-1
6.863101260E0,-2.868747711E-2,-1.485919952E-2,5.467243195E-1,5.476780520E-1
6.868078396E0,-3.445708752E-2,3.135681152E-3,4.133749008E-1,4.148203611E-1
6.873055583E0,-2.641040087E-2,2.759456635E-2,2.291746140E-1,2.323359056E-1
6.878032771E0,-3.293776512E-2,3.980541229E-2,7.274627686E-2,8.922661047E-2
6.883009906E0,-2.993100882E-2,8.054065704E-2,-1.608266830E-1,1.823400250E-1
6.887987094E0,-2.932423353E-2,1.023106575E-1,-3.261232376E-1,3.430506485E-1
6.892915167E0,-1.901650429E-2,1.104073524E-1,-4.524316788E-1,4.660963794E-1
6.897892302E0,8.093655109E-3,1.405262947E-1,-5.614356995E-1,5.788118791E-1
6.902869437E0,4.019057751E-2,1.216144562E-1,-6.582498550E-1,6.705954296E-1
6.907846625E0,3.703188896E-2,1.467242241E-1,-6.646003723E-1,6.816106026E-1
6.912823760E0,1.549297571E-2,1.156778336E-1,-5.717144012E-1,5.835055699E-1
6.917800948E0,-2.185279131E-2,5.964756012E-2,-3.803348541E-1,3.856033936E-1
6.922800635E0,-3.233939409E-2,6.962776184E-3,-1.742115021E-1,1.773244600E-1
6.927777771E0,7.187843323E-3,-2.480983734E-3,5.867671967E-2,5.916737110E-2
6.932754958E0,8.492708206E-3,-2.879953384E-2,2.802772522E-1,2.818809631E-1
6.937732094E0,-3.041267395E-2,-8.148956299E-2,4.076013565E-1,4.167785328E-1
6.942709281E0,-7.854169607E-2,-1.153631210E-1,5.341873169E-1,5.521173220E-1
6.947686469E0,-8.604544401E-2,-1.115403175E-1,6.125202179E-1,6.285110009E-1
6.952648760E0,-8.696013689E-2,-7.983350754E-2,5.123825073E-1,5.258053710E-1
6.957625948E0,-5.506742001E-2,-3.935766220E-2,4.561147690E-1,4.611096711E-1
6.962603083E0,-7.360297441E-2,-1.142787933E-2,3.791255951E-1,3.863731501E-1
6.967580219E0,-1.444991827E-1,-1.937627792E-2,3.289365768E-1,3.597981733E-1
6.972557406E0,-1.843149662E-1,3.681182861E-3,3.266801834E-1,3.751073181E-1
6.977534594E0,-1.742825508E-1,2.158832550E-2,3.388319016E-1,3.816379447E-1
6.982497667E0,-1.383842826E-1,6.278228760E-2,3.866910934E-1,4.154778298E-1
6.987474437E0,-7.894080877E-2,1.055264473E-1,4.177570343E-1,4.380507072E-1
6.992451208E0,-2.912569046E-2,1.046390533E-1,3.775262833E-1,3.928405935E-1
6.997427979E0,-5.302548409E-3,9.634733200E-2,3.044700623E-1,3.193946528E-1
7.002404750E0,6.813585758E-3,8.556365967E-2,1.822004318E-1,2.014064601E-1
7.007381521E0,4.283809662E-2,8.683586121E-2,5.375671387E-2,1.107490569E-1
7.012347458E0,6.926679611E-2,5.520343781E-2,-1.046972275E-1,1.371379526E-1
7.017324281E0,4.540580511E-2,4.808568954E-2,-2.383089066E-1,2.473157003E-1
7.022301000E0,2.146607637E-2,3.217935562E-2,-3.331041336E-1,3.353426117E-1
7.027277771E0,7.089376450E-3,2.982616425E-3,-3.705043793E-1,3.705842014E-1
7.032254542E0,-3.579050303E-2,-2.763414383E-2,-3.533048630E-1,3.561866536E-1
7.037231312E0,-4.980766773E-2,-5.281400681E-2,-2.438201904E-1,2.543981296E-1
7.042198344E0,-4.230576754E-2,-2.770376205E-2,-7.833480835E-2,9.323957635E-2
7.047175062E0,9.739995003E-4,-3.135013580E-2,7.389640808E-2,8.027738671E-2
7.052151833E0,-4.603117704E-2,-4.013586044E-2,1.870336533E-1,1.967519860E-1
7.057128604E0,-3.773033619E-2,-7.064294815E-2,2.732820511E-1,2.847754973E-1
7.062105375E0,-1.153886318E-3,-5.597925186E-2,2.757930756E-1,2.814193110E-1
7.067082146E0,1.576840878E-2,-2.994108200E-2,2.119894028E-1,2.146732820E-1
7.071974281E0,1.566761732E-2,7.566452026E-3,1.868438721E-1,1.876522261E-1
7.076951000E0,-1.796537638E-2,2.326059341E-2,1.334857941E-1,1.366830903E-1
7.081927771E0,-5.161803961E-2,-3.893852234E-3,1.067075729E-1,1.186005490E-1
7.086904542E0,-3.778022528E-2,-3.076410294E-2,1.371603012E-1,1.455565996E-1
7.091881312E0,-2.168172598E-2,2.330398560E-2,1.103734970E-1,1.148715884E-1
7.096858083E0,2.980035543E-2,4.603528976E-2,9.094905853E-2,1.062028264E-1
7.101896677E0,5.964887142E-2,5.915069580E-2,6.213283539E-2,1.044857976E-1
7.106873448E0,7.069325447E-2,6.749582291E-2,7.148170471E-2,1.210902822E-1
7.111850219E0,8.420515060E-2,4.252195358E-2,3.322124481E-2,1.000113745E-1
7.116826989E0,5.978012085E-2,-1.148223877E-3,9.467124939E-3,6.053600351E-2
7.121803760E0,4.990363121E-2,-1.128149033E-2,-4.493618011E-2,6.809482150E-2
7.126780531E0,6.183665991E-2,3.347206116E-2,-5.148696899E-2,8.714963777E-2
7.131745896E0,7.399195433E-2,3.079557419E-2,-5.111503601E-2,9.505747525E-2
7.136722719E0,7.207196951E-2,-2.860212326E-2,-7.941246033E-2,1.109900405E-1
7.141699437E0,5.801284313E-2,-3.505086899E-2,-5.528450012E-2,8.746673275E-2
7.146676208E0,1.272791624E-2,-3.260612488E-3,-4.328632355E-2,4.523645932E-2
7.151652979E0,1.254063845E-2,-1.925373077E-2,6.367301941E-2,6.769214993E-2
7.156629750E0,-3.054279089E-2,-2.822589874E-2,2.055063248E-1,2.096721559E-1
7.161596052E0,-4.464489222E-2,-2.086734772E-2,3.320837021E-1,3.357204161E-1
7.166572823E0,-4.908192158E-2,-2.585506439E-2,4.102973938E-1,4.140307606E-1
7.171549594E0,-3.881335258E-2,-3.377008438E-2,4.192323685E-1,4.223774067E-1
7.176526364E0,-1.864272356E-2,-5.633878708E-2,4.211606979E-1,4.253209889E-1
7.181503135E0,2.290248871E-2,-2.926111221E-2,3.330049515E-1,3.350716854E-1
7.186479906E0,4.742753506E-2,-1.686382294E-2,2.409381866E-1,2.461401418E-1
7.191445531E0,5.984622240E-2,-1.174926758E-2,1.116590500E-1,1.272295527E-1
7.196422302E0,1.035320759E-2,-3.514289856E-2,3.332710266E-2,4.952684119E-2
7.201399073E0,-1.983827353E-2,1.459598541E-3,-5.642890930E-2,5.983234351E-2
7.206375844E0,-4.518967867E-2,1.200723648E-2,-1.194839478E-1,1.283070324E-1
7.211352614E0,-6.348174810E-2,1.097583771E-2,-1.893119812E-1,1.999735672E-1
7.216329385E0,-2.251136303E-2,-3.822326660E-3,-2.112646103E-1,2.124949581E-1
7.221260114E0,5.612564087E-2,-6.249427795E-3,-1.738338470E-1,1.827767745E-1
7.226236885E0,8.163845539E-2,1.760911942E-2,-1.343898773E-1,1.582262861E-1
7.231213604E0,6.660073996E-2,2.487134933E-2,-9.876251221E-3,7.177592158E-2
7.236190375E0,1.067185998E-1,-2.964925766E-2,1.254234314E-1,1.673289430E-1
7.241167198E0,1.942918897E-1,-6.035327911E-2,2.122602463E-1,2.940174635E-1
7.246143917E0,2.009010315E-1,-4.131937027E-2,3.104104996E-1,3.720526751E-1
7.251142562E0,1.365430355E-1,-4.909992218E-2,3.177080154E-1,3.492752296E-1
7.256119333E0,6.819593906E-2,-1.675891876E-2,3.060865402E-1,3.140390383E-1
7.261096104E0,-2.084565163E-2,6.933212280E-4,2.472286224E-1,2.481068593E-1
7.266072875E0,-8.310759068E-2,-2.236890793E-2,1.389741898E-1,1.634657918E-1
7.271049646E0,-1.167392731E-1,-5.932521820E-2,3.394699097E-2,1.352772619E-1
7.276026417E0,-1.242377162E-1,-1.738882065E-2,-3.227043152E-2,1.295328605E-1
7.280993031E0,-5.851912498E-2,-1.603126526E-3,-1.218175888E-1,1.351539232E-1
7.285969802E0,-1.994037628E-2,-9.428501129E-3,-1.584577560E-1,1.599855484E-1
7.290946573E0,2.763551474E-2,5.415439606E-2,-1.781873703E-1,1.882741597E-1
7.295923344E0,2.937966585E-2,6.517314911E-2,-1.574583054E-1,1.729272161E-1
7.300900114E0,4.524677992E-2,4.065608978E-2,-1.322364807E-1,1.455564343E-1
7.305876885E0,4.894274473E-2,4.027938843E-2,-8.829975128E-2,1.086952965E-1
7.310841989E0,6.195008755E-2,4.484510422E-2,-8.519458771E-2,1.144858703E-1
7.315818812E0,7.023394108E-2,-3.357791901E-2,-2.283573151E-2,8.112800847E-2
7.320795531E0,6.701093912E-2,-6.835460663E-3,7.460498810E-2,1.005141469E-1
7.325772302E0,9.751152992E-2,1.008510590E-2,1.617441177E-1,1.891332003E-1
7.330749073E0,6.871640682E-2,1.246929169E-2,2.006902695E-1,2.124947342E-1
7.335725844E0,9.626328945E-3,1.459932327E-2,2.132701874E-1,2.139859324E-1
7.340693083E0,-5.824434757E-2,9.353637695E-3,2.305936813E-1,2.380196220E-1
7.345669854E0,-1.090576649E-1,3.010511398E-2,1.979875565E-1,2.280328149E-1
7.350646573E0,-9.793812037E-2,5.041027069E-2,1.254310608E-1,1.669311889E-1
7.355623344E0,-6.348079443E-2,7.046937943E-2,6.066989899E-2,1.125903253E-1
7.360600114E0,-4.626178741E-2,5.247545242E-2,-1.783847809E-2,7.219444149E-2
7.365576885E0,1.082938910E-2,2.753591537E-2,-1.028041840E-1,1.069775796E-1
7.370504281E0,4.590970278E-2,2.440214157E-2,-1.752815247E-1,1.828299161E-1
7.375481052E0,-1.458203793E-2,2.403020859E-2,-2.211856842E-1,2.229645569E-1
7.380457823E0,-3.914397955E-2,2.630996704E-2,-2.003154755E-1,2.057929912E-1
7.385434542E0,-8.248257637E-2,-1.936912537E-3,-1.513023376E-1,1.723354996E-1
7.390411364E0,-1.538299918E-1,-3.430795670E-2,-1.124105453E-1,1.935893411E-1
7.395388083E0,-1.767274141E-1,-8.045768738E-2,-3.121662140E-2,1.966735768E-1
7.400392250E0,-1.872135997E-1,-1.259965897E-1,3.490352631E-2,2.283469480E-1
7.405368969E0,-1.639881134E-1,-1.211452484E-1,8.137607574E-2,2.195229789E-1
7.410345739E0,-6.189405918E-2,-7.356357574E-2,1.392793655E-1,1.692371588E-1
7.415322510E0,3.275549412E-2,-4.073572159E-2,1.610765457E-1,1.693457262E-1
7.420299281E0,8.886402845E-2,-1.442909241E-3,1.733646393E-1,1.948183659E-1
7.425276052E0,6.844353676E-2,-1.983642578E-2,1.643505096E-1,1.791342835E-1
7.430183344E0,-1.896619797E-3,-2.651166916E-2,1.437091827E-1,1.461464846E-1
7.435160062E0,-7.446640730E-2,1.651287079E-2,1.020193100E-1,1.273807691E-1
7.440136885E0,-1.279588342E-1,6.131887436E-2,8.221912384E-2,1.639922313E-1
7.445113604E0,-1.577128172E-1,8.679389954E-2,5.584716797E-3,1.801046995E-1
7.450090375E0,-1.663251519E-1,8.844423294E-2,8.230209351E-4,1.883802428E-1
7.455067146E0,-1.253495812E-1,4.988145828E-2,4.592323303E-2,1.425118266E-1
7.460091729E0,-7.550120354E-2,4.266405106E-2,8.822345734E-2,1.237094637E-1
7.465068448E0,5.233567953E-2,8.048486710E-2,2.133941650E-1,2.339955274E-1
7.470045219E0,8.443468809E-2,6.304931641E-2,3.519001007E-1,3.673392352E-1
7.475021989E0,7.650780678E-2,4.295587540E-2,4.609117508E-1,4.691889745E-1
7.479998760E0,2.879506350E-2,4.143476486E-2,4.718761444E-1,4.745662136E-1
7.484975531E0,-8.300900459E-3,1.563310623E-2,4.995918274E-1,4.999052840E-1
7.489939958E0,-2.066552639E-2,-5.687713623E-3,4.251203537E-1,4.256603449E-1
7.494916364E0,-3.716427088E-2,3.689765930E-3,3.062763214E-1,3.085449440E-1
7.499892719E0,-7.001584768E-2,-6.139755249E-3,1.861000061E-1,1.989299570E-1
7.504869125E0,-9.558421373E-2,-3.939247131E-2,7.393646240E-2,1.271011770E-1
7.509845531E0,-8.567887545E-2,-7.198143005E-2,-7.784080505E-2,1.363135610E-1
7.514821937E0,-7.902204990E-2,-5.644130707E-2,-2.189636230E-1,2.395311540E-1
7.519789333E0,-9.917849302E-2,-5.244588852E-2,-2.450685501E-1,2.695283639E-1
7.524765687E0,-9.356778860E-2,-4.807281494E-2,-2.877511978E-1,3.063766937E-1
7.529742146E0,-5.998492241E-2,-6.459522247E-2,-2.732906342E-1,2.871558887E-1
7.534718500E0,-4.386711121E-2,-7.356786728E-2,-2.495479584E-1,2.638384697E-1
7.539694906E0,-9.132623672E-3,-4.903411865E-2,-2.165699005E-1,2.222392211E-1
7.544671312E0,2.743387222E-2,-1.744270325E-2,-1.839132309E-1,1.867644017E-1
7.549637562E0,4.940032959E-2,-1.462936401E-2,-1.538982391E-1,1.622931880E-1
7.554613917E0,4.034584761E-2,1.707077026E-4,-1.432065964E-1,1.487815372E-1
7.559590375E0,3.169155121E-2,-1.827907562E-2,-9.706497192E-2,1.037308430E-1
7.564566729E0,3.298258781E-2,-1.981496811E-2,-3.952598572E-2,5.516146850E-2
7.569543135E0,-1.532244682E-2,-1.426124573E-2,9.050369263E-4,2.095183997E-2
7.574519542E0,-2.987623215E-2,-1.824140549E-2,2.198028564E-2,4.133365552E-2
7.579489385E0,2.686542273E-2,-2.232742310E-2,7.384014130E-2,8.168617525E-2
7.584465739E0,4.994642735E-2,-1.707315445E-2,1.324892044E-1,1.426167153E-1
7.589442198E0,3.957891464E-2,-3.325748444E-2,1.407699585E-1,1.499624352E-1
7.594418552E0,1.259851456E-2,-5.190229416E-2,1.182174683E-1,1.297225520E-1
7.599394958E0,-3.558325768E-2,-2.753925323E-2,1.314439774E-1,1.389319901E-1
7.604371364E0,-4.300433397E-2,-5.543756485E-2,1.016979218E-1,1.235522708E-1
7.609337667E0,-9.556907415E-2,-6.617212296E-2,8.393001556E-2,1.433751907E-1
7.614314021E0,-7.645440102E-2,-1.481580734E-2,8.994770050E-2,1.189763523E-1
7.619290427E0,-8.379358053E-2,2.827167511E-3,1.149463654E-1,1.422744669E-1
7.624266833E0,-6.512713432E-2,3.221607208E-2,1.302423477E-1,1.491391567E-1
7.629243239E0,-1.349723339E-2,5.175828934E-2,1.383476257E-1,1.483278847E-1
7.634219646E0,1.394754648E-2,2.576303482E-2,1.560077667E-1,1.587346569E-1
7.639180792E0,1.280027628E-2,3.057289124E-2,2.116661072E-1,2.142453959E-1
7.644157198E0,2.598279715E-2,3.742933273E-2,2.646255493E-1,2.685195376E-1
7.649133604E0,1.534616947E-2,4.860877991E-2,2.650661469E-1,2.699229160E-1
7.654109958E0,4.520624876E-2,6.168889999E-2,2.205600739E-1,2.334435081E-1
7.659086364E0,5.329883099E-2,5.294752121E-2,1.504726410E-1,1.681850798E-1
7.664062771E0,5.657392740E-2,3.685808182E-2,5.973911285E-2,9.015480609E-2
7.669036208E0,-6.807088852E-3,1.864814758E-2,-4.929542542E-2,5.314253319E-2
7.674012614E0,-4.124742746E-2,1.498937607E-2,-1.313552856E-1,1.384927534E-1
7.678988969E0,-2.078646421E-2,1.411151886E-2,-1.820373535E-1,1.837629183E-1
7.683965375E0,-5.021888018E-2,9.081840515E-3,-2.611160278E-1,2.660563770E-1
7.688941781E0,-6.256866455E-2,-1.873111725E-2,-3.281469345E-1,3.345834771E-1
7.693918187E0,-9.426081181E-2,-6.717061996E-2,-3.093271255E-1,3.302730135E-1
7.698884958E0,-1.986026764E-4,-7.459402084E-2,-1.102037430E-1,1.330758143E-1
7.703861312E0,1.128687859E-1,-7.245826721E-2,2.083492279E-1,2.477881435E-1
7.708837719E0,7.821893692E-2,-3.496932983E-2,2.559032440E-1,2.698657563E-1
7.713814125E0,1.028716564E-3,5.404806137E-2,3.056554794E-1,3.103989744E-1
7.718790531E0,3.154391050E-2,1.799631119E-2,3.957691193E-1,3.974318574E-1
7.723766937E0,3.134053946E-2,-6.825208664E-2,3.571252823E-1,3.649370411E-1
7.728734437E0,-3.996545076E-2,-1.040296555E-1,2.190856934E-1,2.458006255E-1
7.733710792E0,-1.036435366E-1,-8.505105972E-2,8.704662323E-2,1.598523695E-1
7.738687250E0,-1.005089283E-1,-1.628255844E-2,5.349254608E-2,1.150157331E-1
7.743663604E0,-6.174445152E-2,1.865911484E-2,1.783847809E-2,6.692347242E-2
7.748640010E0,-4.472923279E-2,1.776981354E-2,2.994918823E-2,5.668707449E-2
7.753616417E0,-4.490220547E-2,2.773284912E-3,1.539230347E-3,4.501409107E-2
7.758586364E0,-4.562813044E-2,1.648664474E-2,-8.126449585E-2,9.464488379E-2
7.763562771E0,-3.194451332E-3,-3.401947021E-2,7.887649536E-2,8.595946948E-2
7.768539177E0,-3.219544888E-2,-2.950572968E-2,4.526805878E-2,6.289938122E-2
7.773515531E0,-8.757418394E-2,3.195619583E-2,-6.164646149E-2,1.117619003E-1
7.778491937E0,-1.931166649E-2,7.865619659E-2,-5.836963654E-2,9.983362257E-2
7.783468344E0,6.752729416E-2,3.485918045E-2,-8.371829987E-2,1.130656962E-1
7.788434646E0,8.009612560E-2,1.207828522E-3,-1.066293716E-1,1.333666791E-1
7.793411000E0,2.371442318E-2,1.314926147E-2,-8.905887604E-2,9.309543676E-2
7.798387406E0,-8.210539818E-3,6.087779999E-3,4.312515259E-3,1.109377381E-2
7.803363812E0,2.911806107E-3,-1.044464111E-2,1.230478287E-1,1.235246424E-1
7.808340219E0,9.305357933E-3,-2.952671051E-2,1.958084106E-1,1.982406366E-1
7.813316625E0,2.537965775E-2,-2.967786789E-2,1.967935562E-1,2.006305227E-1
7.818284698E0,3.675436974E-2,-3.480243683E-2,1.836147308E-1,1.904638094E-1
7.823261104E0,6.021338701E-2,-5.907869339E-2,1.539869308E-1,1.755788110E-1
7.828237458E0,7.886564732E-2,-7.365846634E-2,7.708930969E-2,1.326202159E-1
7.833213864E0,7.104587555E-2,-1.025090218E-1,-1.571178436E-2,1.257079001E-1
7.838190271E0,4.880607128E-2,-1.143050194E-1,-1.054382324E-1,1.629873949E-1
7.843166677E0,-2.604466677E-2,-8.057689667E-2,-1.992692947E-1,2.165160797E-1
7.848134594E0,-4.160094261E-2,-7.776021957E-2,-2.781305313E-1,2.917771112E-1
7.853110948E0,-3.620827198E-2,-6.735277176E-2,-2.781419754E-1,2.884621176E-1
7.858087406E0,9.245276451E-3,-4.938745499E-2,-2.213773727E-1,2.270077906E-1
7.863063760E0,7.090312243E-2,-4.806137085E-2,-1.889076233E-1,2.074204384E-1
7.868040167E0,1.418288350E-1,-4.904508591E-2,-1.092596054E-1,1.856300091E-1
7.873016573E0,1.555238962E-1,-6.430578232E-2,5.912780762E-4,1.682951739E-1
7.877982823E0,1.101830602E-1,-6.780242920E-2,1.309881210E-1,1.841069363E-1
7.882959177E0,8.005023003E-2,-7.378721237E-2,1.914300919E-1,2.202227784E-1
7.887935583E0,8.859431744E-2,-1.586055756E-2,1.517000198E-1,1.763899271E-1
7.892912042E0,6.397217512E-2,1.037263870E-2,8.157157898E-2,1.041823081E-1
7.897888396E0,4.910421371E-2,5.072498322E-2,4.853248596E-3,7.076582331E-2
7.902864802E0,3.293216228E-3,1.252603531E-2,-5.467033386E-2,5.618355843E-2
7.907829854E0,-7.571738958E-2,-3.233480453E-2,-8.048534393E-2,1.151371063E-1
7.912806208E0,-1.236535907E-1,-5.044174194E-2,-7.528877258E-2,1.533068136E-1
7.917782614E0,-3.864723444E-2,-5.633068085E-2,-4.168224335E-2,8.002601918E-2
7.922759021E0,3.582495451E-2,-1.947355270E-2,1.783466339E-2,4.450530124E-2
7.927735427E0,9.055745602E-2,-1.145029068E-2,6.975078583E-2,1.148779096E-1
7.932711833E0,7.608306408E-2,-3.453111649E-2,1.664361954E-1,1.862311407E-1
7.937679750E0,2.409428358E-2,-6.012868881E-2,2.862071991E-1,2.934459993E-1
