"Time (s)","Linear Acceleration x (m/s^2)","Linear Acceleration y (m/s^2)","Linear Acceleration z (m/s^2)","Absolute acceleration (m/s^2)"
7.807499962E-3,-5.366738065E-2,3.727070075E-3,1.549453676E-2,5.598356425E-2
1.776550000E-2,-6.484452066E-2,1.717948504E-3,2.432207823E-2,6.927717298E-2
2.772350004E-2,-6.793063084E-2,2.183498332E-2,2.671592832E-2,7.619106200E-2
3.768149996E-2,-8.051932069E-2,-3.494853387E-3,3.045756161E-2,8.615821530E-2
4.763950000E-2,-8.623331118E-2,6.184216272E-3,1.714988351E-3,8.647178542E-2
5.759850005E-2,-7.447444174E-2,4.730762914E-3,-2.508104682E-2,7.872662510E-2
6.755649997E-2,-1.250013925E-1,1.421947829E-2,3.225265682E-2,1.298760007E-1
7.751450001E-2,-8.200687062E-2,-1.345511930E-2,3.839164853E-2,9.154280824E-2
8.747250005E-2,-8.800034889E-2,1.424529741E-2,-1.575824618E-3,8.915981789E-2
9.743049997E-2,-8.363446137E-2,9.455349706E-3,3.494705379E-2,9.113409535E-2
1.073895000E-1,-7.960659773E-2,9.058881076E-3,1.264226496E-2,8.111165509E-2
1.173474999E-1,-8.280658700E-2,-7.497510044E-3,1.728261530E-2,8.492250761E-2
1.273055000E-1,-8.423291476E-2,-8.921023831E-3,3.180242121E-2,9.047741480E-2
1.372635000E-1,-8.936244864E-2,-8.879654780E-3,3.614456356E-2,9.680353801E-2
1.472224999E-1,-6.885865705E-2,-1.532044505E-2,3.120483577E-2,7.713606461E-2
1.571805000E-1,-6.921349625E-2,-3.405720807E-2,7.852810621E-3,7.753752716E-2
1.671385000E-1,-6.895859419E-2,-3.467389746E-2,9.949037433E-3,7.782384097E-2
1.770964999E-1,-7.594468757E-2,-1.341597950E-3,-1.385146916E-2,7.720918762E-2
1.870545000E-1,-6.745866917E-2,-2.015547113E-2,-3.800690174E-4,7.040638831E-2
1.970135000E-1,-5.823489661E-2,-2.469274602E-2,5.606310368E-3,6.350169766E-2
2.069715000E-1,-7.724042142E-2,-1.850418088E-2,-5.621513128E-3,7.962467470E-2
2.169295000E-1,-8.388949133E-2,-5.271475045E-3,-2.298598945E-2,8.714121250E-2
2.268875000E-1,-6.367414107E-2,-2.110927077E-3,-6.072918177E-3,6.399791082E-2
2.368455000E-1,-7.520568173E-2,-6.138023268E-3,-6.374634504E-3,7.572453935E-2
2.468045000E-1,-8.141530599E-2,3.124660682E-3,1.712357104E-2,8.325522349E-2
2.567625000E-1,-6.230010021E-2,-5.614560423E-3,3.269002855E-2,7.057948527E-2
2.667205000E-1,-6.167194479E-2,1.269458841E-2,1.996707201E-2,6.605501733E-2
2.766785000E-1,-5.263317722E-2,1.556939939E-3,2.565407395E-2,5.857309038E-2
2.866375000E-1,-5.780032058E-2,1.875789522E-2,2.176041305E-2,6.454650470E-2
2.965955000E-1,-5.522970186E-2,2.292017173E-3,7.838777304E-3,5.583027619E-2
3.065535000E-1,-5.112323885E-2,1.137027629E-3,1.247971237E-2,5.263669445E-2
3.165115000E-1,-5.957584589E-2,1.659517461E-2,4.316648483E-2,7.541900719E-2
3.264695000E-1,-6.918387188E-2,-5.929761892E-3,1.502325118E-2,7.104412910E-2
3.364285000E-1,-4.636150396E-2,-1.916200178E-2,1.547114789E-2,5.249693114E-2
3.463864999E-1,-7.590964539E-2,-5.039651217E-3,2.535001874E-2,8.018912518E-2
3.563445000E-1,-7.376543943E-2,-8.167783683E-3,4.093635678E-3,7.432906967E-2
3.663025000E-1,-9.139779132E-2,-1.274917765E-2,-1.925780475E-2,9.427067854E-2
3.762604999E-1,-6.628622477E-2,-1.820312236E-2,2.864317060E-2,7.446911091E-2
3.862195000E-1,-8.137926338E-2,-1.837176885E-2,9.780637622E-3,8.399861470E-2
3.961775000E-1,-7.124460426E-2,-8.564197496E-3,-3.988970518E-3,7.186828926E-2
4.061354999E-1,-8.126588222E-2,-2.174762227E-2,2.445130169E-2,8.760689951E-2
4.160935000E-1,-9.499198342E-2,-1.867182238E-2,-1.506593585E-2,9.797497786E-2
4.260515000E-1,-8.829008756E-2,-5.448599998E-3,-3.539319634E-3,8.852882913E-2
4.360105000E-1,-7.599920828E-2,-1.268487655E-2,-2.075352252E-2,7.979658169E-2
4.459685000E-1,-7.016751059E-2,-1.974884296E-2,6.489239931E-3,7.318200992E-2
4.559265000E-1,-7.267836895E-2,-2.927860762E-2,1.008118451E-2,7.900007885E-2
4.658845000E-1,-7.053103382E-2,-1.731090121E-2,-5.637885332E-3,7.284284305E-2
4.758435000E-1,-6.846507092E-2,-4.275977444E-3,2.594526529E-2,7.334103019E-2
4.858015000E-1,-6.322300097E-2,1.699009007E-3,2.774152994E-2,6.906248596E-2
4.957595000E-1,-5.656117681E-2,7.750182850E-3,-3.544582129E-3,5.719961643E-2
5.057175000E-1,-1.750508473E-2,-7.775791828E-4,-1.299251318E-3,1.757044891E-2
5.156755000E-1,-1.699352074E-2,-7.513946202E-3,-3.108730674E-2,3.621684380E-2
5.256345000E-1,-4.878733101E-2,9.555629455E-3,-1.761649132E-2,5.274328856E-2
5.355925000E-1,-4.609401212E-2,1.097949956E-2,5.049070716E-2,6.924246438E-2
5.455505000E-1,-2.058904673E-2,9.113360681E-3,7.803401649E-2,8.121742373E-2
5.555085000E-1,-5.981005885E-2,-5.197626539E-5,6.785635293E-2,9.045291855E-2
5.654665000E-1,-8.751354078E-2,2.391748745E-3,5.648351848E-2,1.041860266E-1
5.754254999E-1,-8.832558199E-2,-6.336399196E-3,4.211866379E-2,9.805886104E-2
5.853835000E-1,-6.368885504E-2,1.872214498E-3,1.996941090E-2,6.677239560E-2
5.953415000E-1,-9.441399529E-2,-1.339462803E-2,-2.418525338E-2,9.837858022E-2
6.052994999E-1,-1.286690311E-1,-1.096385825E-2,1.129623592E-2,1.296284332E-1
6.152585000E-1,-1.071124209E-1,-4.112005985E-2,2.297897279E-2,1.170126627E-1
6.252165000E-1,-1.346698915E-1,-2.144951477E-2,7.565127611E-3,1.365770570E-1
6.351744999E-1,-1.460791979E-1,-1.617126974E-2,-7.311241508E-2,1.641525732E-1
6.451325000E-1,-1.390158437E-1,-2.254518248E-2,-4.197189867E-2,1.469534971E-1
6.550905000E-1,-1.110640972E-1,-7.605043994E-3,1.279306465E-1,1.695857326E-1
6.650494999E-1,-1.149183807E-1,-7.141496837E-3,2.226034999E-2,1.172721552E-1
6.750075000E-1,-1.097900254E-1,-3.697806587E-3,1.632794040E-1,1.967935142E-1
6.849655000E-1,-9.643457375E-2,-1.465950868E-2,1.076092333E-1,1.452386839E-1
6.949234999E-1,-6.352706989E-2,4.318442848E-3,5.418673217E-2,8.360944624E-2
7.048825000E-1,-6.063131856E-2,3.285175888E-3,1.104860634E-1,1.260718818E-1
7.148405000E-1,-4.742657430E-2,-4.934045020E-3,1.739488184E-2,5.075634605E-2
7.247985000E-1,-1.863031857E-2,2.526563611E-3,3.521894932E-2,3.992300946E-2
7.347565000E-1,-4.136423136E-3,-3.696500100E-3,-2.269830644E-2,2.336636952E-2
7.447145000E-1,1.926722653E-2,-5.788588179E-3,-5.995968819E-2,6.324474665E-2
7.546735000E-1,-7.259884682E-3,1.603215169E-3,-1.728846252E-2,1.881932945E-2
7.646315000E-1,-4.447013070E-3,-1.559452415E-3,-6.233892024E-2,6.251678809E-2
7.745895000E-1,2.200044125E-2,-6.278557442E-3,-9.691058278E-2,9.957459894E-2
7.845475000E-1,2.108674757E-2,-4.947219528E-3,-5.139936447E-2,5.577652349E-2
7.945065000E-1,3.441881267E-2,-1.449631655E-2,-2.746437192E-3,3.744784075E-2
8.044645000E-1,3.082791192E-2,-1.830342952E-2,1.477123618E-2,3.877583144E-2
8.144225000E-1,6.312882425E-3,3.762957361E-4,-6.111919105E-2,6.144550104E-2
8.243805000E-1,-4.949542426E-3,-6.758220987E-3,-4.420144200E-2,4.498820953E-2
8.343385000E-1,-1.207601580E-2,-1.359292173E-2,-2.737081647E-3,1.838720465E-2
8.442975000E-1,-3.427595103E-2,-1.100468826E-2,2.046583951E-2,4.141007812E-2
8.542555000E-1,-4.989131731E-2,-1.883508760E-2,1.306267977E-3,5.334426308E-2
8.642134999E-1,-6.907867224E-2,-1.194381505E-2,2.211475432E-2,7.350904730E-2
8.741715000E-1,-5.938360040E-2,-3.393416072E-2,-1.386374831E-3,6.840951173E-2
8.841295000E-1,-7.181697815E-2,-4.207550403E-2,1.178798676E-2,8.406534971E-2
8.940884999E-1,-9.702811182E-2,-1.992255094E-2,-4.943470001E-2,1.107029904E-1
9.040465000E-1,-1.008265179E-1,-3.288698835E-2,-1.097569156E-1,1.526241175E-1
9.140045000E-1,-8.378635193E-2,-2.869324652E-2,-2.937290311E-2,9.330714122E-2
9.239624999E-1,-1.031897889E-1,-1.162335109E-3,-1.425381607E-1,1.759733241E-1
9.339215000E-1,-1.287223778E-1,-1.579022314E-3,-1.292158645E-1,1.823970491E-1
9.438795000E-1,-1.248424122E-1,-3.968971213E-3,-1.881938052E-1,2.258722846E-1
9.538375000E-1,-9.196699949E-2,2.925215811E-3,-1.813098782E-1,2.033218085E-1
9.637955000E-1,-1.028171385E-1,1.703858541E-2,-1.850532657E-1,2.123826464E-1
9.737535000E-1,-9.352481651E-2,-3.053635284E-3,-1.438882828E-1,1.716393134E-1
9.837125000E-1,-8.702671439E-2,1.498276834E-2,-8.042143464E-2,1.194392712E-1
9.936705000E-1,-9.367217548E-2,1.882869221E-2,-9.089906037E-2,1.318773494E-1
1.003628500E0,-7.412877079E-2,3.533600327E-3,-5.108186066E-2,9.009393697E-2
1.013586500E0,-6.914900785E-2,-3.263541190E-3,-7.024318635E-2,9.862221462E-2
1.023545500E0,-7.893288885E-2,-7.454286329E-4,-4.285073519E-2,8.981727068E-2
1.033503500E0,-7.425433975E-2,6.438095067E-3,-2.728310823E-2,7.936954097E-2
1.043461500E0,-4.736675454E-2,-7.026105691E-3,-5.617303133E-2,7.381317664E-2
1.053419500E0,-2.692062655E-2,-9.103164598E-3,-1.470867097E-2,3.199894906E-2
1.063377500E0,-3.931709375E-2,3.184914412E-3,-3.566333771E-2,5.317754410E-2
1.073336500E0,-3.796103308E-2,-1.066278147E-2,-9.224391997E-2,1.003178733E-1
1.083294500E0,-2.014279454E-2,-1.396818507E-2,-6.335399687E-2,6.793063584E-2
1.093252500E0,-2.478188408E-2,-9.222895475E-3,-1.120028311E-1,1.150818741E-1
1.103210500E0,-2.156586979E-2,3.377954755E-4,-1.199363333E-1,1.218602679E-1
1.113168500E0,-3.498819443E-2,-1.628521736E-2,-1.516691726E-1,1.565021405E-1
1.123127500E0,-2.006384343E-2,-5.765720084E-3,-1.462797940E-1,1.477619013E-1
1.133085500E0,-7.223918595E-3,-1.890587546E-3,-1.483754361E-1,1.485632167E-1
1.143043500E0,-3.514116765E-2,-1.481783118E-2,-2.181297952E-1,2.214386537E-1
1.153001500E0,-3.832330006E-2,-3.363546850E-3,-2.522582388E-1,2.551748573E-1
1.162960500E0,-2.044715582E-2,-1.588003272E-3,-2.356410366E-1,2.365318289E-1
1.172918500E0,-2.287824080E-2,2.268262859E-4,-1.947748464E-1,1.961140132E-1
1.182876500E0,-3.298664912E-2,2.156105954E-3,-2.028580374E-1,2.055338199E-1
1.192834500E0,-4.863438064E-2,-5.804119846E-3,-1.844463247E-1,1.908387735E-1
1.202792500E0,-3.930659617E-2,-4.039950930E-3,-1.874400991E-1,1.915597047E-1
1.212751500E0,-6.424476536E-2,-2.877040235E-3,-1.625911868E-1,1.748472512E-1
1.222709500E0,-8.437629031E-2,-1.213200403E-2,-1.820524746E-1,2.010215098E-1
1.232667500E0,-7.495023150E-2,5.614359425E-3,-1.998666018E-1,2.135315357E-1
1.242625500E0,-7.266936058E-2,-4.015474850E-3,-2.426769912E-1,2.533556435E-1
1.252584500E0,-6.643765852E-2,-6.886128830E-3,-2.290547329E-1,2.385947441E-1
1.262542500E0,-9.266044272E-2,-6.774766780E-3,-2.550999856E-1,2.714919110E-1
1.272500500E0,-1.155629632E-1,-1.439261983E-2,-2.354907632E-1,2.627124769E-1
1.282458500E0,-1.056780898E-1,-3.043347839E-3,-2.932706094E-1,3.117447208E-1
1.292416500E0,-8.108935112E-2,1.558018019E-3,-2.910264480E-1,3.021163745E-1
1.302375500E0,-8.554402496E-2,-1.096404098E-2,-3.212641543E-1,3.326389142E-1
1.312333500E0,-8.613481301E-2,-9.656731468E-3,-3.082424051E-1,3.201965627E-1
1.322291500E0,-6.257806679E-2,-1.842385476E-2,-3.152783597E-1,3.219563587E-1
1.332249500E0,-5.054030342E-2,6.940370891E-4,-3.256080508E-1,3.295078250E-1
1.342208500E0,-4.447106717E-2,8.896894930E-3,-3.124354434E-1,3.157098935E-1
1.352166500E0,-4.872215283E-2,-1.055883807E-2,-3.354875064E-1,3.391713493E-1
1.362124500E0,-3.023571231E-2,-1.505820656E-2,-3.621320987E-1,3.637040071E-1
1.372082500E0,-3.271950902E-2,1.061067729E-2,-3.797947830E-1,3.813492231E-1
1.382040500E0,-2.823468548E-2,-5.183090726E-3,-4.211082852E-1,4.220855953E-1
1.391999500E0,-3.693927325E-2,-9.694720097E-3,-4.194611245E-1,4.211960737E-1
1.401957500E0,-2.377302468E-2,5.433771824E-3,-4.270934951E-1,4.277891258E-1
1.411915500E0,-1.594074098E-2,-2.860119855E-2,-4.258954006E-1,4.271522306E-1
1.421873500E0,5.184558240E-3,-3.494671575E-2,-4.580773062E-1,4.594376682E-1
1.431832500E0,-7.424204004E-3,-2.413705040E-2,-4.895119375E-1,4.901628841E-1
1.441790500E0,-3.259842369E-2,-2.728605011E-2,-5.101689810E-1,5.119370810E-1
1.451748500E0,-4.253274716E-2,-1.687535673E-2,-4.860673428E-1,4.882164212E-1
1.461706500E0,-2.793375716E-2,-7.861645399E-3,-4.657085073E-1,4.666117380E-1
1.471664500E0,-4.621947601E-2,-1.294777284E-2,-4.595695156E-1,4.620692853E-1
1.481623500E0,-6.181749478E-2,-1.809180600E-2,-5.022296315E-1,5.063430842E-1
1.491581500E0,-6.359266834E-2,-1.007557483E-2,-5.664437538E-1,5.700912830E-1
1.501539500E0,-6.784536656E-2,-1.730050413E-2,-5.387501711E-1,5.432808188E-1
1.511497500E0,-6.292725520E-2,-1.012185920E-2,-5.656947255E-1,5.692739358E-1
1.521455500E0,-5.447778647E-2,7.159376526E-3,-5.100111061E-1,5.129623907E-1
1.531414500E0,-8.669484836E-2,-1.055561297E-2,-5.441372108E-1,5.511013717E-1
1.541372500E0,-8.662821751E-2,1.172839997E-2,-5.460814101E-1,5.530342755E-1
1.551330500E0,-8.435332172E-2,1.184831358E-2,-5.754198146E-1,5.816904920E-1
1.561288500E0,-9.038624128E-2,9.842471927E-3,-5.197350258E-1,5.276277512E-1
1.571247500E0,-9.991776925E-2,1.012386004E-2,-5.996688026E-1,6.080203335E-1
1.581205500E0,-9.202344339E-2,4.312961083E-4,-6.095470887E-1,6.164545024E-1
1.591163500E0,-9.879441862E-2,-2.073510379E-2,-6.058025318E-1,6.141555090E-1
1.601121500E0,-8.496750777E-2,-6.428794339E-3,-6.016089088E-1,6.076134346E-1
1.611079500E0,-9.480889248E-2,-1.101127552E-2,-6.667211634E-1,6.735184363E-1
1.621038500E0,-8.166614240E-2,-4.086490198E-2,-6.197171509E-1,6.264093280E-1
1.630996500E0,-8.416548905E-2,-4.444560894E-2,-5.397804505E-1,5.481078146E-1
1.640954500E0,-6.927745930E-2,-2.384132747E-2,-6.120754248E-1,6.164447266E-1
1.650912500E0,-4.644485420E-2,-3.891406070E-2,-6.099739355E-1,6.129760440E-1
1.660871500E0,-7.784679595E-2,-1.936912112E-2,-6.327196044E-1,6.377847476E-1
1.670829500E0,-5.186705493E-2,-1.101335859E-2,-6.548653489E-1,6.570084556E-1
1.680787500E0,-2.988967820E-2,-1.077185031E-2,-6.898854929E-1,6.906166947E-1
1.690745500E0,-2.415155880E-2,-1.793095275E-2,-7.409217453E-1,7.415320961E-1
1.700703500E0,-3.791247834E-2,-1.204736559E-3,-7.736965585E-1,7.746258271E-1
1.710662500E0,-3.306086079E-2,-8.681068718E-3,-7.627628499E-1,7.635283536E-1
1.720620500E0,-3.274278597E-2,7.316191541E-3,-7.304248238E-1,7.311949397E-1
1.730578500E0,-2.772394947E-2,5.037851371E-3,-7.097636873E-1,7.103228062E-1
1.740536500E0,-3.460007179E-2,1.246247222E-2,-8.248719746E-1,8.256913786E-1
1.750495500E0,-2.130764441E-2,1.966779507E-2,-8.107965571E-1,8.113149172E-1
1.760453500E0,-5.953782300E-3,-1.240504160E-2,-8.536028534E-1,8.537137482E-1
1.770411708E0,-2.887359657E-3,1.320228204E-3,-8.100393426E-1,8.100455644E-1
1.780369708E0,-1.962800659E-2,1.122172046E-2,-8.167753351E-1,8.170882043E-1
1.790327708E0,-3.838735448E-2,6.305966265E-3,-9.279940546E-1,9.288090867E-1
1.800286708E0,-2.502703317E-2,1.079898505E-2,-8.708129632E-1,8.712394547E-1
1.810244708E0,-1.907711437E-2,-1.716135867E-2,-8.266547906E-1,8.270529556E-1
1.820202708E0,-6.190780228E-2,-3.536819950E-2,-8.284533942E-1,8.315157917E-1
1.830160708E0,-8.792697547E-2,-2.122065109E-2,-8.146843708E-1,8.196902421E-1
1.840119708E0,-8.186652831E-2,-4.460736668E-2,-8.548038715E-1,8.598730164E-1
1.850077708E0,-5.708035018E-2,-2.120233286E-2,-7.449352741E-1,7.474197401E-1
1.860035708E0,-9.065903217E-2,-4.511946400E-2,-7.630476093E-1,7.697379296E-1
1.869993708E0,-9.551029340E-2,-2.553726668E-2,-8.091511506E-1,8.151686651E-1
1.879951708E0,-7.287453390E-2,-3.180145277E-3,-7.973263264E-1,8.006560321E-1
1.889910708E0,-6.757011345E-2,-1.483973083E-2,-8.446285468E-1,8.474569723E-1
1.899868708E0,-7.746972363E-2,-2.134407302E-3,-8.018175727E-1,8.055541780E-1
1.909826708E0,-9.838068243E-2,-3.365739556E-3,-8.110959345E-1,8.170475518E-1
1.919784708E0,-7.494295903E-2,-1.526251193E-2,-7.998681110E-1,8.035162639E-1
1.929743708E0,-5.675561501E-2,5.170902936E-3,-8.637857795E-1,8.656637978E-1
1.939701708E0,-3.287097246E-2,1.137449725E-2,-8.639348835E-1,8.646348148E-1
1.949659708E0,-5.932088901E-2,5.226497166E-4,-8.889323151E-1,8.909095924E-1
1.959617708E0,-7.151893004E-2,6.901888903E-3,-8.724677253E-1,8.754213415E-1
1.969575708E0,-4.854519233E-2,1.759947957E-2,-8.832441437E-1,8.847522788E-1
1.979534708E0,-5.009421569E-2,1.715847161E-3,-8.907285798E-1,8.921377570E-1
1.989492708E0,-5.993658712E-2,-2.121469424E-2,-9.018055451E-1,9.040440802E-1
1.999450708E0,-4.435042723E-2,-1.989611057E-2,-8.739628583E-1,8.753135971E-1
2.009408708E0,-5.470643087E-2,-2.003426931E-2,-8.836943793E-1,8.856127379E-1
2.019367708E0,-5.666200931E-2,-3.004206212E-2,-9.619804108E-1,9.641158746E-1
2.029325708E0,-4.692349448E-2,-3.967947951E-2,-9.061453485E-1,9.082266612E-1
2.039283708E0,-5.287115205E-3,-1.961527976E-2,-8.601926655E-1,8.604325276E-1
2.049241708E0,3.780774238E-3,-2.866153451E-2,-1.027696098E0,1.028102645E0
2.059199708E0,-1.815482459E-2,-8.362870552E-3,-1.060482606E0,1.060670963E0
2.069158708E0,-5.016560654E-2,-1.329939150E-2,-9.857908577E-1,9.871560550E-1
2.079116708E0,-5.615486385E-2,-2.126886321E-2,-9.064605135E-1,9.084472443E-1
2.089074708E0,-3.494785778E-2,-4.050841369E-3,-8.935902071E-1,8.942825171E-1
2.099032708E0,-5.327495025E-2,-1.418027454E-2,-9.112552303E-1,9.129213522E-1
2.108991708E0,-7.289893689E-2,6.723302146E-3,-9.025744539E-1,9.055385705E-1
2.118949708E0,-8.435261822E-2,1.269369305E-2,-8.654516512E-1,8.696453614E-1
2.128907708E0,-5.084677062E-2,-1.172588750E-2,-8.498834395E-1,8.514838527E-1
2.138865708E0,-5.033733652E-2,2.334277011E-2,-8.774267489E-1,8.791794083E-1
2.148823708E0,-7.019707558E-2,1.802915856E-3,-9.334085763E-1,9.360461795E-1
2.158782708E0,-7.626315068E-2,-9.980383990E-3,-8.793721175E-1,8.827292888E-1
2.168740708E0,-9.850129953E-2,9.188753217E-3,-9.151459676E-1,9.204776375E-1
2.178698708E0,-9.450718529E-2,-5.142827164E-3,-9.187379122E-1,9.236002425E-1
2.188656708E0,-8.562668997E-2,-9.008476250E-3,-9.045145601E-1,9.086031434E-1
2.198615708E0,-8.020490494E-2,-9.085147865E-3,-9.046607405E-1,9.082546020E-1
2.208573708E0,-7.508875569E-2,-2.487651304E-2,-9.110932624E-1,9.145206914E-1
2.218531708E0,-7.089693247E-2,-1.848051793E-2,-9.309983540E-1,9.338767797E-1
2.228489708E0,-8.600253803E-2,-2.001682816E-2,-9.268053156E-1,9.310022573E-1
2.238447708E0,-8.708690417E-2,-2.785047088E-3,-9.191706061E-1,9.232911180E-1
2.248406708E0,-5.849138381E-2,-2.471206924E-2,-9.235092402E-1,9.256896051E-1
2.258364708E0,-5.645003860E-2,-1.570273418E-2,-9.621277606E-1,9.639102710E-1
2.268322708E0,-4.716508498E-2,-2.875268712E-2,-9.601800531E-1,9.617676417E-1
2.278280708E0,-4.316890138E-2,-4.221585548E-2,-9.875713348E-1,9.894154203E-1
2.288239708E0,-4.038283103E-2,-1.463015383E-2,-9.561337799E-1,9.570980198E-1
2.298197708E0,-3.529897395E-2,-2.679495709E-2,-1.007624946E0,1.008599037E0
2.308155708E0,-4.485850002E-2,-1.299403894E-2,-9.597228009E-1,9.608584623E-1
2.318113708E0,-4.302566743E-2,-3.466088740E-2,-9.742414373E-1,9.758068269E-1
2.328071708E0,-4.600158043E-2,-1.654688026E-2,-9.742414373E-1,9.754672331E-1
2.338030708E0,-4.957719392E-2,-1.833188902E-2,-9.883121771E-1,9.897246666E-1
2.347988708E0,-5.433253341E-2,-2.311600777E-2,-1.063757046E0,1.065394494E0
2.357946708E0,-2.988774359E-2,-2.965324969E-2,-1.084117051E0,1.084934272E0
2.367904708E0,-1.067510287E-2,-2.795670748E-2,-1.032924094E0,1.033357498E0
2.377863708E0,-3.020418531E-2,-2.929674312E-2,-9.984945184E-1,9.993807559E-1
2.387821708E0,-7.670167359E-2,1.750025963E-2,-9.854692608E-1,9.886046074E-1
2.397779708E0,-8.912135149E-2,1.292064724E-2,-9.901084417E-1,9.941952951E-1
2.407737708E0,-7.646876711E-2,3.353824941E-2,-9.820229119E-1,9.855664798E-1
2.417695708E0,-6.849515210E-2,1.098950378E-2,-9.454965252E-1,9.480379919E-1
2.427654708E0,-7.113267576E-2,4.716510326E-4,-9.562735283E-1,9.589156068E-1
2.437612708E0,-4.444117328E-2,-5.255450020E-3,-9.679486638E-1,9.689825868E-1
2.447570708E0,-5.133425481E-2,1.379483339E-2,-1.006567184E0,1.007969741E0
2.457528708E0,-9.178547999E-2,2.230502637E-3,-9.619593608E-1,9.663308757E-1
2.467487708E0,-1.184314975E-1,3.724018559E-3,-9.657004094E-1,9.729425310E-1
2.477445708E0,-1.160628818E-1,8.521768637E-4,-9.591135210E-1,9.661107933E-1
2.487403708E0,-7.914138777E-2,2.478269264E-3,-9.631533623E-1,9.664025560E-1
2.497361708E0,-1.901473760E-2,3.706506148E-2,-9.953346831E-1,9.962060582E-1
2.507319708E0,-5.638621944E-3,2.343333799E-2,-9.830584538E-1,9.833538727E-1
2.517278708E0,-6.888237025E-3,2.519345954E-2,-1.039189970E0,1.039518134E0
2.527236708E0,-6.924393374E-2,1.733991802E-3,-1.066731525E0,1.068977958E0
2.537194708E0,-9.463859232E-2,1.457903638E-2,-1.075710509E0,1.079963940E0
2.547152708E0,-3.438178792E-2,-8.777958909E-3,-1.039936659E0,1.040541885E0
2.557111708E0,1.304937964E-2,-4.830526463E-2,-1.118077095E0,1.119196174E0
2.567069708E0,2.565349380E-3,-7.560426084E-2,-1.062695192E0,1.065384276E0
2.577027708E0,-3.026308687E-2,-5.833790811E-2,-1.017790915E0,1.019910541E0
2.586985708E0,-3.852069384E-2,-6.700040278E-2,-9.204950005E-1,9.237336974E-1
2.596943708E0,-6.338353445E-2,-4.351138833E-2,-9.278315020E-1,9.310112832E-1
2.606902708E0,-3.083798694E-2,-6.785569511E-2,-9.959416240E-1,9.987267371E-1
2.616860708E0,4.890824732E-3,-6.898509395E-2,-1.050879723E0,1.053152912E0
2.626818708E0,-2.142206483E-2,-2.569350611E-2,-1.013610740E0,1.014162607E0
2.636776708E0,-6.496918513E-2,-1.064969832E-3,-1.027535884E0,1.029588327E0
2.646735708E0,-7.225556044E-2,-3.564300036E-2,-9.776924640E-1,9.810065462E-1
2.656693708E0,-6.531154417E-2,-7.489314806E-3,-9.571886176E-1,9.594434518E-1
2.666651708E0,-4.108570746E-2,1.975485463E-2,-9.510507953E-1,9.521427965E-1
2.676609708E0,-6.900153011E-2,3.006002404E-2,-9.917661273E-1,9.946179506E-1
2.686567708E0,-9.359512928E-2,6.766059911E-3,-1.030384648E0,1.034648902E0
2.696526708E0,-9.911676466E-2,1.538682922E-2,-1.017509079E0,1.022441007E0
2.706484708E0,-7.995594146E-2,4.867874639E-2,-1.058969931E0,1.063099190E0
2.716442708E0,-8.971525501E-2,3.216790874E-3,-1.012265881E0,1.016238844E0
2.726400708E0,-9.974719500E-2,-5.589883346E-3,-1.015408174E0,1.020310987E0
2.736359708E0,-1.010883635E-1,-1.077970751E-3,-1.040256502E0,1.045157217E0
2.746317708E0,-1.116409615E-1,-6.614023168E-4,-1.084714052E0,1.090444275E0
2.756275708E0,-6.890029562E-2,-1.936992511E-2,-1.087857515E0,1.090209346E0
2.766233875E0,-4.568366092E-2,-2.971336638E-2,-1.045347673E0,1.046767232E0
2.776191875E0,-8.918250971E-2,-3.186631118E-2,-1.035168255E0,1.039491365E0
2.786150875E0,-1.005628999E-1,-2.000030064E-2,-1.045046541E0,1.050064370E0
2.796108875E0,-1.225098482E-1,-2.862758411E-2,-1.020498176E0,1.028224065E0
2.806066875E0,-6.055940238E-2,-2.371823444E-2,-1.053280005E0,1.055286106E0
2.816024875E0,-5.813377176E-4,-4.660906959E-2,-1.077529578E0,1.078537313E0
2.825983875E0,-3.378562317E-2,-4.184347006E-2,-1.021398062E0,1.022812957E0
2.835941875E0,-8.843716331E-2,-1.278043284E-2,-1.110161719E0,1.113751999E0
2.845899875E0,-7.260635683E-2,-1.928283814E-3,-1.051931638E0,1.054436139E0
2.855857875E0,-2.230690159E-2,-5.416451275E-2,-1.001185992E0,1.002898191E0
2.865815875E0,2.812273414E-2,-1.591211018E-2,-1.104322105E0,1.104794730E0
2.875774875E0,-1.395500827E-2,-1.252918529E-2,-1.045944673E0,1.046112796E0
2.885732875E0,-5.734909826E-2,-3.152004638E-2,-1.042204210E0,1.044256696E0
2.895690875E0,-5.757572355E-2,-3.396984701E-2,-1.063011526E0,1.065111459E0
2.905648875E0,5.099598882E-3,-9.281797037E-3,-9.839758819E-1,9.840328724E-1
2.915607875E0,2.599797018E-2,-6.799370768E-3,-1.008224870E0,1.008582924E0
2.925565875E0,-3.610531412E-2,1.783703185E-2,-9.960994989E-1,9.969132184E-1
2.935523875E0,-1.001807112E-1,-1.914625084E-3,-9.670616412E-1,9.722386840E-1
2.945481875E0,-4.019570642E-2,1.940841624E-2,-9.514945990E-1,9.525409982E-1
2.955439875E0,2.116629026E-2,6.216238914E-3,-8.913214874E-1,8.915944411E-1
2.965398875E0,-3.359192730E-2,7.001054026E-3,-9.205096185E-1,9.211489511E-1
2.975356875E0,-1.240859835E-1,4.197469437E-3,-9.573347980E-1,9.653521976E-1
2.985314875E0,-8.212027919E-2,3.786623052E-2,-8.973096210E-1,9.018548373E-1
2.995272875E0,-1.780108175E-2,1.717391191E-2,-9.468583417E-1,9.471813665E-1
3.005231875E0,-4.343515526E-2,3.274909456E-2,-8.512072492E-1,8.529436657E-1
3.015189875E0,-1.369527907E-1,2.047336780E-2,-9.025504804E-1,9.131114911E-1
3.025147875E0,-9.143073672E-2,1.597607324E-2,-8.823425031E-1,8.872108584E-1
3.035105875E0,-1.780110573E-2,8.091660244E-3,-8.326464325E-1,8.328760027E-1
3.045064875E0,-6.011823453E-2,2.760242103E-3,-8.196240985E-1,8.218305689E-1
3.055022875E0,-1.315083842E-1,1.927732897E-2,-8.314500922E-1,8.420067258E-1
3.064980875E0,-7.379830261E-2,-2.292188021E-2,-8.066023493E-1,8.102955954E-1
3.074938875E0,-2.892779295E-2,-5.868765383E-2,-7.831006354E-1,7.858292837E-1
3.084896875E0,-6.110825493E-2,-2.516719275E-2,-7.842981452E-1,7.870776245E-1
3.094855875E0,-1.186441443E-1,-3.221842320E-2,-7.417883027E-1,7.519071390E-1
3.104813875E0,-8.688118268E-2,-4.391858295E-2,-7.109541804E-1,7.175883419E-1
3.114771875E0,-1.644597011E-2,-9.429526026E-2,-6.837114179E-1,6.903791487E-1
3.124729875E0,-1.941299123E-2,-6.447916562E-2,-6.726350373E-1,6.759972784E-1
3.134688875E0,-8.864047282E-2,-6.161539125E-2,-6.579655427E-1,6.667625103E-1
3.144646875E0,-4.543979548E-2,-8.890209004E-2,-6.880547297E-1,6.952608631E-1
3.154604875E0,6.513470473E-3,-5.069796355E-2,-6.587157404E-1,6.606959479E-1
3.164562875E0,-4.986765892E-2,-1.495176896E-2,-6.178524739E-1,6.200419488E-1
3.174520875E0,-1.056239482E-1,-5.522313287E-2,-6.025859785E-1,6.142604288E-1
3.184479875E0,-3.422475820E-2,-9.274597652E-3,-6.040840352E-1,6.051238499E-1
3.194437875E0,1.937327812E-2,-4.002709648E-2,-6.343223262E-1,6.358791598E-1
3.204395875E0,-1.828825189E-2,1.140634630E-2,-6.636624849E-1,6.640123935E-1
3.214353875E0,-4.966396568E-2,1.967540558E-2,-6.055838460E-1,6.079353794E-1
3.224312875E0,-4.125305203E-2,1.363451919E-2,-5.488512361E-1,5.505682463E-1
3.234270875E0,-5.513243708E-2,1.329465891E-2,-5.666636091E-1,5.694944947E-1
3.244228875E0,-5.181867836E-2,4.291163759E-2,-5.901664925E-1,5.939891185E-1
3.254186875E0,-4.601407429E-2,7.172890903E-2,-5.025991756E-1,5.097727560E-1
3.264144875E0,-9.662619797E-3,-5.407395400E-4,-4.847868025E-1,4.848833906E-1
3.274103875E0,-4.405600622E-2,1.656360878E-3,-5.114319795E-1,5.133286909E-1
3.284061875E0,-6.458870498E-2,9.895023778E-3,-4.780513948E-1,4.824963714E-1
3.294019875E0,-2.241269737E-2,4.740838397E-2,-4.404806954E-1,4.435911709E-1
3.303977875E0,-5.758537602E-2,6.106375214E-3,-3.912348604E-1,3.954972558E-1
3.313936875E0,-1.151883028E-1,3.447737619E-3,-3.933328414E-1,4.098669981E-1
3.323894875E0,-5.244998122E-2,4.878660011E-2,-3.270224923E-1,3.347758106E-1
3.333852875E0,-2.514041662E-2,2.179244483E-2,-3.473795736E-1,3.489692241E-1
3.343810875E0,-6.244165307E-2,-8.040698105E-3,-2.728375143E-1,2.800070036E-1
3.353768875E0,-7.352807445E-2,-1.211579628E-3,-2.731380612E-1,2.828643599E-1
3.363727875E0,-3.096517759E-2,-2.355838618E-2,-3.524760067E-1,3.546169414E-1
3.373685875E0,-2.519885908E-2,-1.300043433E-2,-1.870711398E-1,1.892078358E-1
3.383643875E0,-8.639649418E-2,-1.233407102E-2,-2.608688486E-1,2.750800605E-1
3.393601875E0,-8.851862233E-2,-2.292431960E-2,-2.147653073E-1,2.334206678E-1
3.403560875E0,-5.983821228E-2,-5.466558259E-2,-2.214995456E-1,2.358622188E-1
3.413518875E0,-8.277351368E-2,-3.386192934E-2,-2.478453451E-1,2.634870014E-1
3.423476875E0,-9.514094124E-2,-8.323146030E-4,-1.885680270E-1,2.112117238E-1
3.433434875E0,-8.515227978E-2,-8.321174422E-2,-2.280858493E-1,2.572902248E-1
3.443392875E0,-4.940337630E-2,-4.351533520E-2,-1.894661593E-1,2.005784224E-1
3.453351875E0,-6.115347035E-2,-4.845776732E-2,-1.670134360E-1,1.843404186E-1
3.463309875E0,-4.324691146E-2,-6.876813484E-2,-1.786897409E-1,1.962890094E-1
3.473267875E0,-5.983141946E-2,-5.570098744E-2,-1.520457333E-1,1.726276449E-1
3.483225875E0,-5.542111594E-2,-4.009867005E-2,-1.457593918E-1,1.610130545E-1
3.493184875E0,-2.477711038E-2,-7.544516176E-3,-7.974958956E-2,8.384999677E-2
3.503142875E0,-4.575518425E-2,-4.574089511E-2,-1.381281906E-1,1.525292215E-1
3.513100875E0,-4.197664954E-2,-5.583689866E-2,-3.559434056E-2,7.840124641E-2
3.523058875E0,-5.219515682E-2,-2.303229209E-2,-6.388726294E-2,8.565280638E-2
3.533017875E0,-4.280988234E-2,2.037385549E-2,-5.236473978E-2,7.063884190E-2
3.542975875E0,-4.516340034E-2,1.567213680E-2,3.210121393E-4,4.780639759E-2
3.552933875E0,-5.174557446E-2,3.259563256E-2,5.708051920E-3,6.142199602E-2
3.562891875E0,5.811757771E-3,8.673339430E-3,-1.345268905E-2,1.702874593E-2
3.572849875E0,1.291803770E-2,6.259046928E-2,2.501555800E-2,6.863104753E-2
3.582808875E0,-5.029744298E-2,9.279279993E-2,5.046088636E-2,1.169899036E-1
3.592766875E0,-9.183089641E-2,6.762549754E-2,2.845196664E-2,1.175399330E-1
3.602724875E0,-1.972880711E-2,5.099304694E-2,1.482678473E-2,5.665112718E-2
3.612682875E0,5.030817582E-3,6.161565620E-2,7.560449839E-4,6.182531698E-2
3.622641875E0,-6.121572036E-2,6.549016748E-2,5.973398566E-2,1.077240711E-1
3.632599875E0,-7.315051334E-2,5.626506102E-2,5.898612678E-2,1.095267905E-1
3.642557875E0,-3.262961722E-2,1.476540724E-3,1.378013313E-2,3.545086968E-2
3.652515875E0,-3.210198366E-2,2.895822588E-2,4.950837493E-3,4.351582463E-2
3.662473875E0,-6.678587849E-2,1.018815201E-2,-2.857358873E-2,7.335258673E-2
3.672432875E0,-6.382643363E-2,-1.336647917E-2,9.453193545E-3,6.589263436E-2
3.682390875E0,-8.467062453E-2,-5.118029488E-2,2.068218648E-2,1.010756651E-1
3.692348875E0,-8.158130296E-2,-5.323465015E-2,-3.380333841E-2,1.031120878E-1
3.702306875E0,-5.331768975E-2,-7.180088460E-2,-2.047928810E-2,9.174717604E-2
3.712265875E0,-1.883661565E-2,-6.445967794E-2,4.518728256E-3,6.730740728E-2
3.722223875E0,-5.635684860E-2,-5.050040988E-2,3.789872825E-2,8.463273236E-2
3.732181875E0,-7.085986661E-2,-7.558609793E-2,-1.917886734E-3,1.036245974E-1
3.742139875E0,-5.629864597E-2,-4.748455309E-2,-9.637088478E-2,1.212916640E-1
3.752098875E0,-1.783094024E-2,-6.027147269E-2,-2.422209084E-2,6.735950218E-2
3.762056875E0,-4.569431382E-2,-6.042052187E-2,3.669771016E-2,8.417441244E-2
3.772015458E0,-5.890501037E-2,-4.181102715E-2,1.364330828E-2,7.351259823E-2
3.781973458E0,-3.046389305E-2,-6.006347626E-2,2.486762345E-2,7.179184255E-2
3.791931458E0,2.880144856E-4,-4.867685518E-2,-1.001160264E-2,4.969659314E-2
3.801890458E0,-6.162110485E-3,-2.548280535E-3,-4.476628304E-3,8.031534118E-3
3.811848458E0,-2.278231220E-2,5.272498308E-3,2.321169198E-2,3.294868179E-2
3.821806458E0,-4.503093807E-2,7.312098490E-3,6.146593094E-3,4.603295313E-2
3.831764458E0,-3.053864605E-2,3.444809443E-2,-3.681816280E-2,5.894791959E-2
3.841723458E0,6.031622216E-3,3.696174849E-2,-1.826143920E-2,4.166571108E-2
3.851681458E0,-1.567520430E-2,6.438917331E-2,1.526532590E-2,6.800520454E-2
3.861639458E0,-7.432185682E-2,4.905797487E-2,2.289535761E-2,9.194901141E-2
3.871597458E0,-5.949517258E-2,7.610449928E-2,-8.093131185E-3,9.693848123E-2
3.881555458E0,-1.639924720E-2,7.134788984E-2,-9.820574105E-2,1.224900987E-1
3.891514458E0,-2.744076607E-2,7.817847013E-2,-2.081784189E-2,8.542980378E-2
3.901472458E0,-6.974900527E-2,1.048055208E-1,-1.483321667E-2,1.267641323E-1
3.911430458E0,-5.063162506E-2,6.294459128E-2,-1.558107555E-2,8.227000026E-2
3.921388458E0,-2.873434605E-2,6.703576930E-2,-7.047064304E-3,7.327426645E-2
3.931347458E0,-2.724809346E-2,4.879933608E-2,-1.168449104E-2,5.709957206E-2
3.941305458E0,-3.842008062E-2,2.014714798E-2,3.756543696E-2,5.738616750E-2
3.951263458E0,-5.974894174E-2,-4.119563512E-2,-3.897169232E-3,7.267877489E-2
3.961221458E0,-7.093471097E-2,-4.735248825E-2,-3.038856447E-2,9.053980458E-2
3.971180458E0,-5.444321481E-2,-6.325442062E-2,-2.769241333E-2,8.793210518E-2
3.981138458E0,-1.348847926E-2,-1.093758233E-1,2.021323979E-2,1.120427814E-1
3.991096458E0,-5.286890681E-2,-5.131986061E-2,7.664764166E-2,1.063189088E-1
4.001054458E0,-6.202851531E-2,-1.055329144E-1,7.859534919E-2,1.454715149E-1
4.011012458E0,-6.057755616E-2,-1.096613319E-1,7.194998860E-3,1.254871150E-1
4.020971458E0,-4.631009415E-2,-7.214247163E-2,-2.483955681E-2,8.925337314E-2
4.030929458E0,-2.545407634E-2,-8.139401847E-2,1.011942530E-1,1.323373457E-1
4.040887458E0,-4.552993397E-2,-4.521163073E-2,-7.633540034E-3,6.461685054E-2
4.050845458E0,-6.341492669E-2,-5.742562369E-2,-3.727424562E-2,9.331947583E-2
4.060804458E0,-4.505170025E-2,-8.142330023E-3,1.795679927E-2,4.917722922E-2
4.070762458E0,-4.693916319E-2,-1.896775545E-2,2.386248708E-3,5.068288637E-2
4.080720458E0,-2.297239468E-2,2.854828125E-2,5.567017078E-2,6.664760457E-2
4.090678458E0,-4.757813595E-2,2.004717886E-2,-2.381980240E-2,5.685904842E-2
4.100636458E0,-4.048965235E-2,3.526526109E-2,-2.771638691E-2,6.042556322E-2
4.110595458E0,-1.640223933E-4,7.232425609E-2,-5.017203391E-2,8.802305328E-2
4.120553458E0,-3.319571449E-2,7.238003304E-2,1.898006201E-2,8.186004763E-2
4.130511458E0,-5.642823032E-2,8.631497120E-2,5.205951512E-2,1.155188839E-1
4.140469458E0,-6.277923385E-2,8.751126585E-2,-9.013482928E-3,1.080772720E-1
4.150428458E0,-1.388890961E-2,9.266431650E-2,-2.188905180E-2,9.622218014E-2
4.160386458E0,-4.087695273E-2,7.646087794E-2,4.517207980E-2,9.776353059E-2
4.170344458E0,-7.265896807E-2,7.396457367E-2,6.582853854E-2,1.228148211E-1
4.180302458E0,-3.911050431E-2,5.892996610E-2,1.748142064E-2,7.285583381E-2
4.190261458E0,-2.231482274E-2,2.547461925E-2,-2.083830714E-2,3.976358365E-2
4.200219458E0,-4.462549305E-2,4.981509794E-2,4.008734107E-2,7.797418500E-2
4.210177458E0,-8.045315579E-2,-2.720152130E-3,5.730505228E-2,9.881284593E-2
4.220135458E0,-8.799522344E-2,-1.881716223E-2,5.985209942E-2,1.080718222E-1
4.230093458E0,-7.142065570E-2,-4.770158529E-2,6.659276962E-2,1.086781867E-1
4.240052458E0,-7.022995246E-2,-8.826936649E-2,1.076063097E-2,1.133115990E-1
4.250010458E0,-5.885432689E-2,-1.081990072E-1,6.870478392E-3,1.233615030E-1
4.259968458E0,-3.933455774E-2,-6.697619165E-2,6.345515370E-2,1.002974287E-1
4.269926458E0,-3.368292460E-2,-6.478919595E-2,5.228580236E-3,7.320872471E-2
4.279885458E0,-2.912893032E-2,-9.778247572E-2,-1.355384588E-3,1.020379547E-1
4.289843458E0,-4.305067799E-2,-6.627270766E-2,-3.189071417E-2,8.522001118E-2
4.299801458E0,-3.245821842E-2,-9.252412037E-2,7.244115472E-2,1.219096784E-1
4.309759458E0,-1.985964769E-2,-3.229556076E-2,1.488116384E-3,3.794236869E-2
4.319717458E0,-5.355229557E-2,-3.704930141E-2,-5.479718149E-2,8.510716888E-2
4.329676458E0,-5.884562458E-2,-2.395508322E-2,8.966120481E-3,6.416420233E-2
4.339634458E0,-1.752563564E-2,-1.757736979E-2,-1.514428854E-3,2.486775679E-2
4.349592458E0,4.140146167E-3,4.568441466E-2,2.673931718E-3,4.594949907E-2
4.359550458E0,-9.309517064E-3,2.639064040E-2,-2.232876241E-2,3.580093071E-2
4.369509458E0,-2.137026672E-2,4.486582275E-2,-1.394853294E-2,5.161581077E-2
4.379467458E0,1.430152718E-3,8.321780157E-2,2.002729833E-2,8.560572711E-2
4.389425458E0,1.325412041E-3,6.398727774E-2,4.759633541E-3,6.417774179E-2
4.399383458E0,-5.542732861E-2,7.743745431E-2,1.883095801E-2,9.707395669E-2
4.409342458E0,-8.846413359E-2,8.833852809E-2,-3.191351831E-2,1.290274046E-1
4.419300458E0,-3.236315777E-2,1.011579180E-1,-3.835071802E-2,1.129206621E-1
4.429258458E0,-1.259234322E-2,5.599414308E-2,1.613831520E-2,5.961842319E-2
4.439216458E0,-4.253733356E-2,6.713715454E-2,6.778209329E-2,1.044568544E-1
4.449174458E0,-6.071064427E-2,7.840707798E-2,2.093244731E-2,1.013489988E-1
4.459133458E0,-4.233766029E-2,8.326946720E-3,-1.005019426E-2,4.430374617E-2
4.469091458E0,-2.651005379E-2,3.664636429E-2,3.231522202E-2,5.558788126E-2
4.479049458E0,-5.315454786E-2,4.210790126E-3,4.564161122E-2,7.018755863E-2
4.489007458E0,-9.897751870E-2,-2.026786557E-2,3.247309685E-2,1.061218055E-1
4.498966458E0,-6.994128730E-2,-4.694056104E-2,8.228786588E-3,8.463399358E-2
4.508924458E0,-5.542970404E-2,-7.027170980E-2,3.128435791E-2,9.481179430E-2
4.518882458E0,-1.708320469E-2,-9.890843933E-2,2.649607301E-2,1.038111609E-1
4.528840458E0,-1.314812677E-2,-8.941780533E-2,4.644443393E-3,9.049855248E-2
4.538799458E0,-3.303934487E-2,-4.945173916E-2,1.422452152E-2,6.115071404E-2
4.548757458E0,-1.589110817E-2,-7.093075496E-2,2.402036190E-3,7.272873638E-2
4.558715458E0,-7.037225450E-2,-3.424493110E-2,-3.337239861E-2,8.508047073E-2
4.568673458E0,-5.285136516E-2,-7.107560146E-2,1.692476571E-2,9.017458409E-2
4.578631458E0,-5.568320025E-3,-7.410884458E-2,1.677566171E-2,7.618759648E-2
4.588590458E0,-1.944849707E-2,-8.492121426E-3,-4.804013908E-2,5.251871216E-2
4.598548458E0,-6.196177483E-2,-4.225035405E-2,-2.088040709E-3,7.502475505E-2
4.608506458E0,-5.546503401E-2,1.267606918E-2,7.664647222E-2,9.545540546E-2
4.618464458E0,-3.919036448E-2,-5.730947424E-3,-6.879833937E-3,4.020025549E-2
4.628423458E0,-1.419113529E-2,2.277267572E-2,-3.437578082E-3,2.705180258E-2
4.638381458E0,-1.459099576E-2,1.865350415E-2,-9.873023629E-3,2.565788319E-2
4.648339458E0,-4.745800765E-2,4.994276823E-2,-1.092259884E-2,6.975561450E-2
4.658297458E0,-1.497109104E-2,6.603951339E-2,3.652755618E-2,7.693902297E-2
4.668255458E0,-2.287524125E-3,5.153743185E-2,1.332580447E-2,5.328148565E-2
4.678214458E0,-6.400559597E-2,8.160165858E-2,-2.664225340E-2,1.070764057E-1
4.688172458E0,-4.719781112E-2,6.905106699E-2,-1.346847653E-2,8.471766691E-2
4.698130458E0,-2.388507081E-3,5.409809204E-2,4.236541629E-2,6.875417824E-2
4.708088458E0,-1.630172661E-2,6.808570996E-2,4.356351078E-2,8.245719897E-2
4.718047458E0,-7.595735273E-3,7.230145195E-2,-1.960337520E-2,7.529599901E-2
4.728005458E0,-1.113386491E-2,2.285316629E-2,-3.636500359E-2,4.436939985E-2
4.737963458E0,-2.893957418E-2,4.528180646E-2,5.315119028E-2,7.558432363E-2
4.747921458E0,-3.724842422E-2,-1.279479506E-2,4.222683728E-2,5.774303139E-2
4.757880458E0,-3.505751135E-2,-3.618000316E-2,3.908922136E-2,6.376510768E-2
4.767837833E0,-6.368713742E-2,1.118985314E-2,-2.482552350E-2,6.926449958E-2
4.777795833E0,-5.611006413E-2,-3.872316739E-2,-1.763812602E-2,7.041964554E-2
4.787753833E0,-1.661522188E-2,-5.904152001E-2,8.205748558E-2,1.024470479E-1
4.797712833E0,-1.511526031E-2,-8.133401142E-2,-1.793107152E-2,8.464759792E-2
4.807670833E0,-1.573220780E-2,-1.697683333E-2,1.977528334E-3,2.322984827E-2
4.817628833E0,-4.572531777E-3,-5.823546306E-2,-2.958106399E-3,5.848955119E-2
4.827586833E0,-4.405950541E-2,-8.825674930E-2,5.841543853E-2,1.146423014E-1
4.837544833E0,-5.037529317E-2,-2.182358125E-2,3.042423248E-2,6.276601615E-2
4.847503833E0,-1.230110505E-2,-8.356342684E-2,2.668435335E-2,8.857888125E-2
4.857461833E0,1.997918671E-2,-2.584684021E-2,-1.418008268E-2,3.561322500E-2
4.867419833E0,-3.873400301E-2,-4.515133132E-2,-5.459603727E-2,8.074461589E-2
4.877377833E0,-5.661609496E-2,-1.907027358E-2,6.605073273E-2,8.906041117E-2
4.887336833E0,-4.182037813E-2,-5.154291362E-2,3.192345858E-2,7.365272010E-2
4.897294833E0,6.657179502E-3,2.198586890E-2,2.144466341E-2,3.142562742E-2
4.907252833E0,8.788994387E-3,1.395558614E-2,-1.777787447E-2,2.424989954E-2
4.917210833E0,-2.355176924E-2,-1.499810815E-4,3.072185576E-2,3.871099004E-2
4.927168833E0,-1.499637911E-2,3.370353375E-2,2.892325222E-2,4.687615697E-2
4.937127833E0,-1.711732068E-2,4.180746401E-2,-7.602549791E-3,4.581119380E-2
4.947085833E0,-5.971825300E-2,6.809650904E-2,-9.399983883E-3,9.105912355E-2
4.957043833E0,-5.561004039E-2,7.966877008E-2,-1.493729711E-2,9.829909645E-2
4.967001833E0,-1.121772220E-2,9.863687270E-2,1.200550318E-2,9.999601019E-2
4.976960833E0,-1.901742594E-2,6.595046212E-2,6.125367701E-2,9.199531994E-2
4.986918833E0,-1.908845477E-2,6.865199452E-2,2.862153590E-2,7.678969836E-2
4.996876833E0,-3.714495135E-3,8.151173936E-2,-2.975706518E-2,8.685300257E-2
5.006834833E0,-2.714680644E-2,7.813368411E-2,-2.676270604E-2,8.693712744E-2
5.016793833E0,-6.022625727E-2,1.002949421E-1,2.667792141E-2,1.199916204E-1
5.026751833E0,-5.878129151E-2,5.875123316E-2,5.093041778E-2,9.747232984E-2
5.036709833E0,-3.473676188E-2,3.811427124E-2,-4.052646697E-2,6.558761181E-2
5.046667833E0,-4.627718529E-2,6.104666730E-3,-1.088459194E-2,4.793035756E-2
5.056625833E0,-3.187950168E-2,-7.390195364E-3,7.683650672E-2,8.351506679E-2
5.066584833E0,-3.794329271E-2,-1.965100260E-2,3.208425701E-2,5.343458536E-2
5.076542833E0,-4.216925134E-2,-5.411501242E-2,-1.925312698E-2,7.125561891E-2
5.086500833E0,-1.097285748E-2,-6.182423735E-2,4.850850105E-3,6.297754101E-2
5.096458833E0,-2.997265613E-2,-1.107289695E-1,3.539378107E-2,1.200499252E-1
5.106417833E0,-8.547639825E-2,-1.154623545E-1,3.614690244E-2,1.481363174E-1
5.116375833E0,-7.240006889E-2,-1.350808777E-1,2.746671081E-2,1.557017459E-1
5.126333833E0,2.573000439E-4,-1.034258976E-1,6.563850403E-2,1.224965131E-1
5.136291833E0,-5.756986263E-2,-1.045357723E-1,-6.578585386E-2,1.362710363E-1
5.146250833E0,-1.112060566E-1,-1.192331051E-1,6.519236147E-2,1.755943176E-1
5.156208833E0,-5.127252557E-2,-1.191661728E-1,3.106040955E-2,1.333948937E-1
5.166166833E0,-1.724347094E-2,-9.060649859E-2,-3.046457827E-2,9.713375008E-2
5.176124833E0,-1.024537135E-2,-2.702146361E-2,-2.837185979E-2,4.049801918E-2
5.186082833E0,-6.000962706E-2,-2.678533659E-2,2.730766654E-2,7.116402355E-2
5.196041833E0,-5.577455729E-2,4.552806560E-2,8.433380663E-2,1.108864146E-1
5.205999833E0,-5.710637486E-2,3.836660600E-2,-2.389523149E-2,7.282936628E-2
5.215957833E0,-3.364339650E-2,7.674201937E-2,-9.829754233E-3,8.436729067E-2
5.225915833E0,-7.930434693E-3,9.782419195E-2,-1.387661219E-2,9.912126256E-2
5.235874833E0,1.120484234E-2,1.190951382E-1,9.621008635E-3,1.200073508E-1
5.245832833E0,-7.877841158E-3,1.068922002E-1,2.593474030E-2,1.102751722E-1
5.255790833E0,-2.783523386E-2,1.356398258E-1,7.223650217E-3,1.386547645E-1
5.265748833E0,-1.794105404E-2,1.273333717E-1,-3.379047453E-2,1.329566288E-1
5.275707833E0,-3.008381261E-2,1.186293344E-1,-3.998326063E-3,1.224497504E-1
5.285665833E0,-4.587799405E-2,1.210049759E-1,5.198700964E-2,1.394619794E-1
5.295623833E0,6.632364239E-3,1.109712452E-1,4.555565715E-2,1.201412644E-1
5.305581833E0,-1.555733266E-2,2.891226129E-2,-2.868468583E-2,4.359771385E-2
5.315539833E0,-5.042168717E-2,5.076269405E-3,-3.301981151E-2,6.048489895E-2
5.325498833E0,-3.193287122E-2,-1.243073280E-2,7.835327446E-2,8.551881081E-2
5.335456833E0,-2.754938267E-2,-7.710467465E-3,4.438036680E-2,5.280186314E-2
5.345414833E0,-5.503932017E-2,-3.839776983E-2,2.323098779E-3,6.714992391E-2
5.355372833E0,-2.628562578E-2,-9.665528786E-2,7.866843939E-3,1.004742058E-1
5.365331833E0,1.627467638E-2,-9.641443740E-2,7.104367018E-2,1.208627813E-1
5.375289833E0,-5.914872049E-2,-1.180303877E-1,3.647142291E-2,1.369668144E-1
5.385247833E0,-3.622576676E-2,-9.572507808E-2,1.401811481E-2,1.033058773E-1
5.395205833E0,4.728129383E-2,-1.552864064E-1,1.761064410E-2,1.632774435E-1
5.405164833E0,3.174899456E-2,-7.800814256E-2,-4.316356122E-2,9.463805777E-2
5.415122833E0,-2.349075034E-2,-1.293967171E-1,4.096208453E-2,1.377433052E-1
5.425080833E0,2.078896898E-2,-2.115785382E-1,9.469858110E-2,2.327347854E-1
5.435038833E0,6.067272416E-2,-1.574953200E-1,1.550740063E-2,1.694887453E-1
5.444996833E0,-5.269788489E-2,-5.027563012E-2,-1.029022247E-1,1.260697184E-1
5.454955833E0,-4.546060792E-2,-7.038753949E-2,3.420621157E-2,9.050490317E-2
5.464913833E0,1.522873398E-2,-9.745367034E-2,5.411071837E-2,1.125037868E-1
5.474871833E0,1.239868275E-2,-1.167753833E-2,-4.588485539E-2,4.894396990E-2
5.484829833E0,-6.449656108E-2,1.926746179E-2,-4.079660833E-2,7.871089332E-2
5.494788833E0,-7.188461399E-2,2.766672213E-2,-1.281008005E-2,7.808292639E-2
5.504746833E0,1.909762416E-2,4.842893324E-2,5.529185593E-2,7.594254510E-2
5.514704833E0,-2.616808989E-2,1.009152220E-1,-9.230414629E-3,1.046606493E-1
5.524662833E0,-1.355547762E-1,1.116102271E-1,-3.722512901E-2,1.794927586E-1
5.534621833E0,-1.048365567E-1,1.206421014E-1,-3.303559899E-2,1.632071415E-1
5.544579833E0,-2.265950925E-2,1.508381645E-1,-7.090859950E-2,1.682071185E-1
5.554537833E0,-8.555963885E-2,1.219091016E-1,9.027516246E-3,1.492105121E-1
5.564495833E0,-1.084939353E-1,8.889785081E-2,4.106207192E-2,1.461501133E-1
5.574453833E0,-6.811814373E-2,1.513507187E-1,-2.704161823E-2,1.681617396E-1
5.584412833E0,-5.412624547E-2,6.653606990E-2,-2.340055704E-3,8.580311712E-2
5.594370833E0,-1.036003183E-1,5.916147930E-2,5.664080858E-2,1.320654677E-1
5.604328833E0,-7.347715342E-2,9.710253591E-2,6.068708181E-2,1.360540939E-1
5.614286833E0,-6.337345257E-2,3.622825183E-2,-1.879295111E-2,7.537808523E-2
5.624245833E0,-3.200583808E-2,2.084994676E-2,2.746554136E-2,4.704731569E-2
5.634203833E0,2.261848738E-2,5.880663553E-3,3.495348573E-2,4.204669237E-2
5.644161833E0,-4.008478291E-2,-2.749921767E-2,6.758913517E-2,8.325435716E-2
5.654119833E0,-8.754103183E-2,-6.025272505E-3,2.119206369E-2,9.027092403E-2
5.664078833E0,-2.083572158E-2,-9.903282057E-2,-1.877248585E-2,1.029273193E-1
5.674036833E0,4.840240607E-2,-3.332285260E-2,4.155440748E-2,7.197203762E-2
5.683994833E0,-4.169961486E-2,-8.255363096E-2,2.786198258E-3,9.252957779E-2
5.693952833E0,-4.094493118E-2,-6.809277230E-2,3.452313066E-2,8.663116979E-2
5.703911833E0,1.283169305E-2,-9.958416732E-2,-2.939161420E-2,1.046208665E-1
5.713869833E0,4.977754785E-2,-8.490612114E-2,-4.301153362E-2,1.074097095E-1
5.723827833E0,5.976929051E-3,-7.197152280E-2,2.689251423E-2,7.706381185E-2
5.733785833E0,-2.849712496E-2,-1.023758565E-1,1.147457600E-2,1.068857709E-1
5.743743833E0,-1.698778202E-2,-4.891481859E-2,3.617087603E-2,6.316309435E-2
5.753702833E0,1.708245666E-2,-6.143073801E-2,-3.582998335E-2,7.313913867E-2
5.763660833E0,-1.621197527E-2,-2.944248497E-2,-5.798508346E-2,6.702207075E-2
5.773618958E0,-1.549110609E-2,-2.963723380E-2,7.089515090E-2,7.838662141E-2
5.783576958E0,4.163303768E-3,-4.897657067E-2,-2.520617723E-2,5.523937856E-2
5.793535958E0,-1.070936048E-2,5.917957826E-3,-9.490031004E-3,1.548461543E-2
5.803493958E0,-1.684707882E-2,1.886790510E-2,-2.756962180E-3,2.544450330E-2
5.813451958E0,-1.261449411E-2,3.088846486E-3,1.550213814E-2,2.022332122E-2
5.823409958E0,-3.761859866E-2,5.679275396E-2,6.489649236E-2,9.408576188E-2
5.833368958E0,-4.731782065E-2,1.825601226E-2,-7.133603096E-5,5.071748440E-2
5.843326958E0,-1.177565050E-2,5.383261018E-2,2.327893496E-2,5.982077127E-2
5.853284958E0,4.038027030E-4,5.608422674E-2,-4.722620666E-2,7.332065290E-2
5.863242958E0,-4.690868458E-2,8.126235561E-2,2.806488097E-2,9.793688106E-2
5.873201958E0,-7.709601346E-2,7.187612182E-2,5.171511412E-2,1.174070918E-1
5.883159958E0,-5.579232734E-2,5.760917145E-2,1.270599961E-3,8.020732416E-2
5.893117958E0,-4.108071449E-2,6.210635637E-2,-1.274108291E-3,7.447447856E-2
5.903075958E0,1.311459551E-2,8.297013544E-2,3.330690980E-2,9.036252670E-2
5.913033958E0,-2.073122544E-2,5.230471445E-2,6.968302310E-2,8.956165792E-2
5.922992958E0,-1.080511366E-1,7.574064715E-2,-2.626686215E-2,1.345423420E-1
5.932950958E0,-8.600313189E-2,5.298006786E-3,-1.716742516E-3,8.618326273E-2
5.942908958E0,3.217997090E-2,2.782473399E-2,3.930030584E-2,5.791614963E-2
5.952866958E0,-7.754950844E-3,1.120972454E-2,1.445548654E-2,1.986852480E-2
5.962825958E0,-8.911169445E-2,-1.162934449E-2,2.448755443E-2,9.314384608E-2
5.972783958E0,-6.051304492E-2,-5.698345542E-2,-4.699991941E-3,8.325282411E-2
5.982741958E0,2.066976800E-2,-6.564522833E-2,-2.909574509E-2,7.472012911E-2
5.992699958E0,-5.041792531E-3,-4.332690868E-2,9.185449541E-2,1.016852448E-1
6.002658958E0,-9.540525366E-2,-1.069319521E-1,-3.792211711E-2,1.482386312E-1
6.012616958E0,-8.135594761E-2,-5.741311613E-2,3.722337484E-2,1.063044484E-1
6.022574958E0,-5.903955343E-3,-6.835877493E-2,-4.121293008E-2,8.003926789E-2
6.032532958E0,-1.413168669E-2,-7.561717954E-2,-4.750102580E-2,9.041023095E-2
6.042490958E0,-3.513188976E-2,-5.951902740E-2,5.024336994E-2,8.544682863E-2
6.052449958E0,-2.811343570E-2,-5.638772464E-2,-1.666924238E-2,6.517518238E-2
6.062407958E0,-1.762634251E-2,1.792610139E-3,-1.143481493E-2,2.108687729E-2
6.072365958E0,-3.987718849E-2,-2.719200131E-2,-3.763501883E-2,6.120449116E-2
6.082323958E0,-5.380994993E-3,-1.004188025E-2,5.022816718E-2,5.150401192E-2
6.092282958E0,-1.863011986E-2,3.866340701E-2,-6.506196856E-3,4.340819053E-2
6.102240958E0,-2.375645148E-2,3.110768977E-2,-3.465059996E-2,5.227543808E-2
6.112198958E0,-1.757318766E-2,3.014036844E-2,-6.759381294E-4,3.489578236E-2
6.122156958E0,-1.820660785E-2,3.651113830E-2,-3.181528509E-2,5.173737676E-2
6.132115958E0,-4.361811372E-2,5.370431861E-2,-3.827002645E-3,6.929169958E-2
6.142073958E0,-3.191132332E-2,3.806915632E-2,2.536522150E-2,5.577622863E-2
6.152031958E0,-1.023025196E-2,2.988273463E-2,-1.415318549E-2,3.461139326E-2
6.161989958E0,-3.403951110E-2,2.910950432E-2,-1.279955506E-3,4.480725213E-2
6.171948958E0,1.117995970E-2,2.416278728E-2,1.189440608E-2,2.916005288E-2
6.181906958E0,4.570891815E-2,3.469924148E-2,2.372273862E-2,6.209759163E-2
6.191864958E0,-7.701791659E-2,2.772630891E-3,-2.357655823E-2,8.059343060E-2
6.201822958E0,-1.238635243E-1,1.967472950E-2,-1.339421690E-2,1.261295869E-1
6.211780958E0,4.997089882E-3,-6.594581176E-3,2.298306584E-2,2.442704902E-2
6.221739958E0,6.719120017E-2,-1.862333617E-2,2.358240545E-2,7.360445555E-2
6.231697958E0,-6.204583769E-2,-2.476854969E-2,3.136797309E-2,7.380458498E-2
6.241655958E0,-9.188413348E-2,-2.742303941E-2,-3.763677299E-2,1.030108914E-1
6.251613958E0,-1.404132779E-2,-2.770484780E-2,4.199879587E-2,5.223615924E-2
6.261572958E0,2.408220763E-2,-1.999832720E-2,-1.458237112E-2,3.453304740E-2
6.271530958E0,-4.079338322E-2,-1.672015884E-2,2.553420603E-2,5.094761529E-2
6.281488958E0,-7.940506065E-2,5.296389665E-3,1.745101511E-2,8.147240839E-2
6.291446958E0,-6.278010408E-3,2.908118187E-2,1.730132639E-2,3.441604928E-2
6.301405958E0,2.403691911E-2,-2.878723137E-2,-2.356252491E-2,4.429075243E-2
6.311363958E0,1.725180779E-2,1.441643810E-2,7.897307932E-2,8.211093604E-2
6.321321958E0,-4.003891425E-2,6.645625541E-3,-1.697914481E-2,4.399511736E-2
6.331279958E0,-7.584839123E-2,4.311292799E-2,-5.903348923E-3,8.744456839E-2
6.341237958E0,-1.685325038E-2,2.477682715E-2,1.684875190E-2,3.437737123E-2
6.351196958E0,3.530692936E-2,1.927415868E-2,-6.654131413E-4,4.023077464E-2
6.361154958E0,-2.095810883E-2,-2.043688665E-2,4.947913885E-2,5.748994558E-2
6.371112958E0,-8.433235397E-2,-1.884356607E-4,3.106859565E-2,8.987346143E-2
6.381070958E0,-6.769600217E-3,-3.162568912E-2,9.811627865E-4,3.235698348E-2
6.391029958E0,2.405428032E-2,-3.933222799E-2,1.206105173E-2,4.765607547E-2
6.400987958E0,-2.668529210E-2,-1.778645343E-2,7.104016185E-2,7.794335979E-2
6.410945958E0,-5.900614436E-2,-6.630678596E-3,-3.204274178E-3,5.946392472E-2
6.420903958E0,-2.587251314E-2,-6.429173495E-2,2.868117750E-2,7.500282702E-2
6.430862958E0,-2.254843500E-2,-4.831909695E-2,1.311413527E-2,5.491035963E-2
6.440820958E0,-3.507314351E-2,-5.521324743E-4,2.464016676E-2,4.286686441E-2
6.450778958E0,6.292634157E-3,-1.111489914E-2,3.571654737E-2,3.793164884E-2
6.460736958E0,-1.039360969E-2,-3.608814706E-2,9.819813967E-3,3.881765355E-2
6.470695958E0,-8.292145737E-2,2.147691445E-2,-4.253849387E-3,8.576316915E-2
6.480653958E0,-4.435484919E-2,1.316856005E-2,2.448755443E-2,5.234886763E-2
6.490611958E0,4.958380401E-2,-1.208799460E-2,1.236452222E-2,5.251242371E-2
6.500569958E0,-1.341460335E-3,9.421490673E-3,8.024134040E-3,1.244792069E-2
6.510528958E0,-9.158358660E-2,1.966361065E-2,-2.455245852E-3,9.370293032E-2
6.520486958E0,-4.683255200E-2,2.761907646E-2,6.899714470E-4,5.437441836E-2
6.530444958E0,2.204894802E-2,2.565360800E-2,4.245487869E-2,5.428333480E-2
6.540402958E0,-2.703270579E-2,3.517060015E-2,1.371581376E-2,4.643125935E-2
6.550360958E0,-4.427523569E-2,-8.623071648E-3,-3.044177413E-2,5.441833765E-2
6.560319958E0,-2.519445311E-2,3.269667976E-2,-1.547114789E-2,4.408162601E-2
6.570277958E0,-9.482187512E-3,2.085334545E-2,-2.160955489E-2,3.149201103E-2
6.580235958E0,4.138015702E-3,2.617570041E-2,1.581321001E-2,3.086013734E-2
6.590193958E0,-1.105061746E-2,3.407355286E-3,3.168079913E-2,3.372535025E-2
6.600152958E0,-6.338680523E-2,3.721586483E-2,-4.750453413E-2,8.751907469E-2
6.610110958E0,-5.584039328E-2,3.427051267E-2,1.431632280E-2,6.706395946E-2
6.620068958E0,1.330543286E-2,6.604411807E-3,-1.801468670E-2,2.334912709E-2
6.630026958E0,4.340387265E-2,1.505614176E-2,3.287830889E-2,5.649395332E-2
6.639985958E0,-3.176402602E-2,2.488708371E-2,-4.735250652E-2,6.221398684E-2
6.649943958E0,-5.268340389E-2,-2.250109082E-3,-3.597557902E-2,6.383452297E-2
6.659901958E0,2.273378945E-2,-1.818244698E-2,-5.739626884E-3,2.967102758E-2
6.669859958E0,3.739343289E-2,-1.705977243E-2,1.910811603E-2,4.532576262E-2
6.679818958E0,-6.008077580E-2,-3.445865597E-2,2.360111654E-2,7.317179302E-2
6.689776958E0,-4.148058638E-2,-6.514668924E-2,4.742091894E-3,7.737711290E-2
6.699734958E0,-5.934588129E-3,-9.083812142E-2,1.941100180E-2,9.307830376E-2
6.709692958E0,-4.551310952E-2,-5.779440941E-2,1.551792562E-2,7.518273015E-2
6.719650958E0,7.727689343E-4,-3.643220088E-2,2.165574789E-2,4.238954883E-2
6.729609958E0,1.254743957E-2,-8.107880786E-2,-2.534592569E-2,8.586982749E-2
6.739567958E0,-8.444219026E-2,-5.166497424E-2,2.614582479E-2,1.023882670E-1
6.749525958E0,-1.183448400E-1,1.004075649E-2,1.237387776E-2,1.194128586E-1
6.759483958E0,1.163999738E-2,-2.907538033E-2,4.201107502E-2,5.240035978E-2
6.769444250E0,3.654865641E-2,-2.133382212E-2,3.527391315E-2,5.509251492E-2
6.779402250E0,-9.839686277E-2,9.140440598E-3,-8.735740185E-3,9.920586381E-2
6.789360250E0,-1.085948454E-1,3.023863820E-2,-2.535294235E-2,1.155421455E-1
6.799318250E0,-2.188707379E-2,2.634731619E-2,3.092826247E-2,4.614956651E-2
6.809277250E0,-1.008649382E-2,6.959505904E-2,4.319922924E-2,8.253110328E-2
6.819235250E0,-5.114347570E-2,4.752841635E-2,-3.056924343E-3,6.988526492E-2
6.829193250E0,-6.614871014E-2,6.407797353E-2,2.987342477E-2,9.681972967E-2
6.839151250E0,-1.604191951E-2,7.402969703E-2,1.924494088E-2,7.815437911E-2
6.849110250E0,-1.049419208E-2,5.663153526E-2,7.388132393E-2,9.367875362E-2
6.859068250E0,-7.079203434E-3,6.027964052E-2,4.708879709E-2,7.681865004E-2
6.869026250E0,-1.827794845E-2,6.214021540E-2,-1.409178972E-3,6.478792754E-2
6.878984250E0,-4.428347661E-2,8.929490416E-2,-1.408009529E-3,9.968243928E-2
6.888943250E0,-1.002809704E-2,4.046656955E-2,2.785028815E-3,4.178351789E-2
6.898901250E0,2.475039134E-2,1.439460240E-2,7.164242506E-2,7.715195084E-2
6.908859250E0,-1.106873469E-2,5.024676863E-3,2.688666701E-2,2.950689967E-2
6.918817250E0,-6.137079948E-2,3.498909893E-3,1.441338658E-3,6.148735526E-2
6.928775250E0,-4.540444610E-3,-2.278032278E-2,2.449457109E-2,3.375711415E-2
6.938734250E0,2.589952910E-2,-3.573537723E-2,9.227491021E-3,4.508823998E-2
6.948692250E0,-2.568357042E-2,-3.119140545E-2,-1.067993939E-2,4.179247143E-2
6.958650250E0,-3.434815730E-2,-6.121189683E-2,-3.507452309E-2,7.846600788E-2
6.968608250E0,-1.059790135E-3,-1.029705183E-1,3.707719445E-2,1.094475634E-1
6.978567250E0,-2.335099732E-2,-4.859228069E-2,1.148159266E-2,5.512082899E-2
6.988525250E0,-4.504088747E-2,-4.842697808E-2,3.932369471E-2,7.694287956E-2
6.998483250E0,7.130491053E-4,-6.433627428E-2,-4.232799411E-3,6.447930845E-2
7.008441250E0,-3.450970947E-2,-8.832029209E-2,1.155994534E-3,9.483000772E-2
7.018400250E0,-6.987995549E-2,-2.474937265E-2,7.144128084E-3,7.447669563E-2
7.028358250E0,-4.796291472E-2,-2.600533630E-2,-2.189606845E-2,5.878908502E-2
7.038316250E0,9.550079739E-3,-3.323862528E-2,-5.133855343E-3,3.496236125E-2
7.048274250E0,-3.630946646E-2,-1.763850974E-2,-3.253098428E-2,5.184360441E-2
7.058233250E0,-6.628934938E-2,1.421364021E-2,2.943897665E-2,7.391183096E-2
7.068191250E0,-5.392707925E-2,3.415924198E-2,-2.235390544E-2,6.763638649E-2
7.078149250E0,-3.974870049E-2,5.378192212E-2,3.018683553E-2,7.337369677E-2
7.088107250E0,-4.945357556E-2,6.123929651E-2,-3.508329391E-4,7.871486935E-2
7.098066250E0,9.033994435E-3,6.031677034E-2,-3.491957188E-3,6.108943939E-2
7.108024250E0,1.856544645E-2,6.624016425E-2,2.719364583E-2,7.397249175E-2
7.117982250E0,-5.326584139E-2,2.044739337E-2,2.464835286E-2,6.215212831E-2
7.127940250E0,-3.423505479E-2,4.590054237E-2,4.815006673E-2,7.481529050E-2
7.137898250E0,1.791246664E-2,8.227845551E-3,2.030913413E-2,2.830220543E-2
7.147857250E0,-9.958067498E-3,6.572904451E-2,6.238394380E-3,6.677116118E-2
7.157815250E0,-4.662313946E-2,5.515101112E-2,1.462213218E-2,7.368281964E-2
7.167773250E0,8.029237791E-3,5.344253694E-2,4.456104577E-2,7.004470154E-2
7.177731250E0,5.742933302E-2,2.834832475E-2,8.187856078E-3,6.456622023E-2
7.187690250E0,4.583037350E-3,1.078917269E-2,2.500269413E-3,1.198590112E-2
7.197648250E0,-4.258503405E-2,3.242189717E-4,4.486217737E-2,6.185632710E-2
7.207606250E0,-1.679074912E-2,-9.003076712E-3,3.124167323E-2,3.659271502E-2
7.217564250E0,-3.698328269E-2,3.168478254E-3,3.812676966E-2,5.321139932E-2
7.227523250E0,-2.336698580E-2,-2.868567254E-2,-1.665637851E-2,4.057485403E-2
7.237481250E0,-1.449319194E-2,-5.524411890E-2,6.548296809E-3,5.748778545E-2
7.247439250E0,-3.601332097E-2,-6.035075728E-3,2.840577364E-2,4.626304576E-2
7.257397250E0,-1.931955226E-2,-3.241191122E-2,2.885483980E-2,4.750135649E-2
7.267356250E0,1.802875999E-2,-6.658458352E-2,1.179324925E-2,6.998302421E-2
7.277314250E0,4.923900330E-3,-1.125974747E-1,2.665160894E-3,1.127365920E-1
7.287272250E0,-6.375331145E-2,-3.737054195E-2,7.155237794E-3,7.424445808E-2
7.297230250E0,-8.904340994E-2,-5.569223489E-2,5.056555152E-2,1.165642693E-1
7.307189250E0,2.955686656E-2,-1.208736876E-1,3.858986914E-2,1.302813675E-1
7.317147250E0,4.334653339E-2,-5.201376066E-2,-3.670472682E-2,7.701681781E-2
7.327105250E0,-9.320486418E-2,-1.580085777E-2,-3.895005763E-2,1.022444170E-1
7.337063250E0,-9.234923380E-2,-1.807653015E-2,4.232974827E-2,1.031840565E-1
7.347021250E0,1.697748201E-2,-2.504605489E-2,-1.500337064E-2,3.377337548E-2
7.356980250E0,3.258071988E-2,3.162031699E-2,-1.605703890E-2,4.815782649E-2
7.366938250E0,-1.058299781E-2,3.285301055E-2,-8.873734474E-3,3.563794759E-2
7.376896250E0,-2.396157911E-2,4.609924721E-2,-7.079808712E-3,5.243492689E-2
7.386854250E0,-9.819803688E-3,6.982387704E-2,3.782446861E-2,8.001557833E-2
7.396813250E0,-1.300707754E-2,9.601985998E-2,2.375197470E-2,9.976549443E-2
7.406771250E0,-1.978534466E-3,9.321913504E-2,-2.848938882E-2,9.749547175E-2
7.416729250E0,-1.082803840E-2,9.708884063E-2,-1.127401650E-2,9.833917245E-2
7.426687250E0,-1.678606336E-2,5.818797271E-2,5.324182212E-2,8.063686324E-2
7.436646250E0,-1.767678388E-3,6.864156090E-2,3.333380699E-2,7.632778824E-2
7.446604250E0,2.943116285E-2,5.461194352E-2,2.495240808E-2,6.686763336E-2
7.456562250E0,-2.466434363E-3,2.715677183E-2,6.691553593E-3,2.807757903E-2
7.466520250E0,-2.183297791E-2,1.837722321E-2,3.947630703E-2,4.871119044E-2
7.476479250E0,-2.219799948E-2,2.567336977E-2,9.842033386E-3,3.533749733E-2
7.486437250E0,-2.071701625E-2,2.280834373E-3,1.523550510E-2,2.581700183E-2
7.496395250E0,-5.568699523E-2,-3.494202884E-2,-3.041780055E-2,7.243776230E-2
7.506353250E0,5.981461785E-4,-2.795148153E-2,-1.050861597E-2,2.986760968E-2
7.516312250E0,-1.569433794E-3,-5.235692826E-2,4.113633156E-2,6.660261882E-2
7.526270250E0,-4.273215091E-2,-6.207236943E-2,3.410271585E-2,8.271644937E-2
7.536228250E0,-3.387220765E-2,-4.319604982E-2,3.140773416E-2,6.324295167E-2
7.546186250E0,2.564024620E-2,-1.039624254E-1,-4.792904198E-2,1.173149657E-1
7.556144250E0,1.408998531E-3,-5.676993155E-2,1.344333351E-2,5.835695006E-2
7.566103250E0,-1.098537509E-1,-1.725751796E-2,4.218415260E-2,1.189334741E-1
7.576061250E0,-5.383127171E-2,-5.396269245E-2,1.643652320E-2,7.797395261E-2
7.586019250E0,3.677294509E-2,-4.311258081E-2,1.793107152E-2,5.943456436E-2
7.595977250E0,-4.453621337E-2,-3.325398336E-2,-7.220141888E-3,5.604848044E-2
7.605936250E0,-8.153216807E-2,-3.649829269E-2,4.337289155E-2,9.930169949E-2
7.615894250E0,-1.030206993E-2,-5.817493524E-2,5.654549897E-2,8.177927114E-2
7.625852250E0,1.275499174E-2,2.596172886E-3,8.342222571E-3,1.546035593E-2
7.635810250E0,-3.013649237E-3,1.465792811E-2,-8.276149035E-3,1.710063101E-2
7.645769250E0,-1.532473795E-2,-1.237485535E-2,4.896458387E-3,2.029679637E-2
7.655727250E0,-2.865579007E-2,4.072058539E-2,7.420175135E-2,8.936005977E-2
7.665685250E0,-5.453099613E-2,6.351711592E-3,1.911571741E-2,5.813247312E-2
7.675643250E0,-5.384931128E-2,1.485569190E-2,-5.883468390E-3,5.616987723E-2
7.685602250E0,2.526429536E-2,1.837708617E-2,-1.396724403E-2,3.422113122E-2
7.695560250E0,2.963218601E-2,6.271247509E-2,-2.818942666E-2,7.487031959E-2
7.705518250E0,-4.088477338E-2,6.614796096E-2,3.096100688E-3,7.782482427E-2
7.715476250E0,2.321312409E-2,2.110638371E-2,-2.654226601E-2,4.109526065E-2
7.725434250E0,5.156209979E-2,4.800685563E-2,2.674750328E-2,7.535739681E-2
7.735393250E0,-1.373015314E-2,5.990288797E-2,-2.429459631E-2,6.608404121E-2
7.745351250E0,-1.058921436E-1,6.419920276E-2,-1.980334997E-2,1.254067637E-1
7.755309250E0,-1.768848973E-2,-1.475936816E-2,4.875349939E-2,5.392240091E-2
7.765267250E0,5.302736635E-2,-5.319123457E-2,-5.228463292E-2,9.151443524E-2
7.775225208E0,1.911894252E-2,-3.589880691E-2,-4.644618809E-2,6.173740105E-2
7.785183208E0,-4.623438184E-2,-1.639689004E-2,3.723156095E-2,6.158461819E-2
7.795141208E0,-6.142654446E-2,-4.631078850E-2,4.741039395E-2,9.036401358E-2
7.805099208E0,-8.850007569E-3,-3.115296914E-2,1.178564787E-2,3.446348236E-2
7.815058208E0,2.131911957E-2,-4.387144891E-2,-8.571433425E-3,4.952452281E-2
7.825016208E0,-4.484362160E-2,-3.094835314E-2,7.076300383E-2,8.930931458E-2
7.834974208E0,-1.151143904E-1,-1.319151037E-2,3.708245695E-2,1.216570895E-1
7.844932208E0,-6.976901371E-2,-6.650286868E-2,5.998073816E-2,1.135254851E-1
7.854891208E0,4.265023051E-3,-3.830714713E-2,3.543120325E-2,5.235454236E-2
7.864849208E0,-4.347313475E-4,1.270690410E-2,-7.680317760E-3,1.485401239E-2
7.874807208E0,-9.951918100E-2,-1.769813307E-2,5.473812461E-2,1.149502222E-1
7.884765208E0,-1.177038755E-1,-7.960901884E-3,8.751761556E-2,1.468908142E-1
7.894724208E0,-7.476540467E-2,8.131559269E-2,4.230869830E-2,1.182882805E-1
7.904682208E0,-5.356220386E-2,3.444638595E-2,1.102200150E-2,6.462930995E-2
7.914640208E0,-1.762609126E-2,-1.840520762E-2,1.566235185E-2,2.991220530E-2
7.924598208E0,-3.839125110E-2,1.913673998E-2,3.332269728E-2,5.431855238E-2
7.934557208E0,-1.145141006E-1,7.395855286E-2,2.014599681E-2,1.378013351E-1
7.944515208E0,-8.827280173E-2,3.850128382E-2,-1.892334402E-2,9.814544987E-2
7.954473208E0,1.917845621E-3,-1.299169092E-3,-3.804783225E-3,4.454475002E-3
7.964431208E0,2.102611012E-2,4.834961210E-2,2.350580692E-4,5.272416476E-2
7.974390208E0,-2.242977763E-2,7.675059834E-2,3.830510974E-3,8.005262072E-2
7.984348208E0,-2.797986793E-2,4.543909656E-2,-1.066368413E-1,1.192434502E-1
7.994306208E0,4.860687589E-3,1.106871528E-2,-1.802170336E-2,2.170079569E-2
8.004264208E0,-3.111323777E-2,5.674720050E-2,-7.692596912E-3,6.517249708E-2
8.014222208E0,-6.114695162E-2,6.446838481E-2,-1.487414718E-2,9.009085740E-2
8.024181208E0,-1.462384980E-2,-8.541301992E-3,-1.277675092E-2,2.121452773E-2
8.034139208E0,3.964136297E-2,5.298783369E-3,-1.172776043E-2,4.167799333E-2
8.044097208E0,2.709275624E-2,1.579725808E-3,-2.983834147E-2,4.033409967E-2
8.054055208E0,9.317111021E-3,-3.282636004E-2,2.135753989E-2,4.025571986E-2
8.064014208E0,-4.210753581E-3,-4.335984495E-2,5.641978383E-3,4.392765097E-2
8.073972208E0,4.100049343E-3,-2.054391811E-3,-1.501506507E-2,1.569978056E-2
8.083930208E0,4.041592718E-2,3.110581683E-3,-3.938099742E-3,4.072630008E-2
8.093888208E0,4.309831452E-2,-1.380641636E-1,-3.786072135E-3,1.446841814E-1
8.103847208E0,4.470011357E-3,-7.397589351E-2,7.524898767E-2,1.056164001E-1
8.113805208E0,-2.076920036E-2,-2.487482283E-2,4.893534780E-3,3.277290310E-2
8.123763208E0,4.367050569E-2,-7.180982902E-2,2.719540000E-2,8.833659712E-2
8.133721208E0,2.731473573E-2,-4.805358768E-2,1.005721092E-4,5.527433574E-2
8.143680208E0,-8.789644204E-3,-5.455861509E-2,3.737013996E-2,6.671152589E-2
8.153638208E0,8.353688596E-3,-2.496962995E-2,7.673651934E-2,8.112804653E-2
8.163596208E0,2.604047898E-2,-4.923118036E-2,-1.158216476E-2,5.688551842E-2
8.173554208E0,-2.428933839E-2,7.444346063E-3,-6.619048119E-4,2.541315340E-2
8.183512208E0,2.313602992E-2,-1.150965015E-2,8.450629950E-2,8.836890053E-2
8.193471208E0,5.153427984E-2,-7.275480302E-3,3.810045719E-2,6.450084844E-2
8.203429208E0,-3.555045904E-2,1.168373273E-2,4.393480897E-2,5.771145629E-2
8.213387208E0,-5.110985877E-2,3.605744918E-2,-3.765606880E-4,6.254997285E-2
8.223345208E0,-2.146574536E-3,1.084382497E-1,3.270172298E-2,1.132822336E-1
8.233304208E0,3.605409617E-2,8.913198612E-2,2.596163750E-2,9.959124169E-2
8.243262208E0,-3.082145486E-2,4.180289587E-2,3.224505544E-2,6.113254275E-2
8.253220208E0,6.805352743E-3,1.169276119E-1,1.473089039E-2,1.180482037E-1
8.263178208E0,1.906007750E-2,9.756057389E-2,-5.532518506E-2,1.137639145E-1
8.273137208E0,-5.029705469E-2,8.736226235E-2,5.125142992E-2,1.130869916E-1
8.283095208E0,-1.081362501E-1,8.388815744E-2,2.011676073E-2,1.383306026E-1
8.293053208E0,-2.240807898E-2,8.479711625E-2,1.856490970E-3,8.772752981E-2
8.303011208E0,2.845775904E-2,4.601485544E-2,-2.807774484E-2,6.095548151E-2
8.312970208E0,-5.331255516E-2,-4.872027989E-3,-2.882326484E-2,6.080086998E-2
8.322928208E0,-8.238231668E-2,1.319075206E-2,2.357071102E-2,8.669729211E-2
8.332886208E0,-6.171842559E-2,-3.798707603E-3,3.345250547E-2,7.030408494E-2
8.342844208E0,-7.345270475E-2,-4.369645271E-2,-2.327718079E-2,8.858051118E-2
8.352803208E0,-1.627836287E-2,-5.638788910E-2,-1.270599961E-3,5.870428910E-2
8.362761208E0,1.635934909E-2,-1.085147660E-1,-9.650829434E-3,1.101645190E-1
8.372719208E0,-1.938002526E-2,-1.072968458E-1,3.540898383E-2,1.146385390E-1
8.382677208E0,-1.179566305E-1,-9.021500923E-2,2.867416084E-2,1.512439158E-1
8.392636208E0,-6.228442236E-2,-9.032772345E-2,-2.758716345E-3,1.097545325E-1
8.402594208E0,5.144706496E-2,-8.453675983E-2,1.370762765E-2,9.990577217E-2
8.412552208E0,3.072839733E-3,-8.356987705E-2,3.361564279E-2,9.012978494E-2
8.422510208E0,-5.844981833E-2,-7.495327388E-2,4.109715521E-2,1.035536127E-1
8.432468208E0,-2.779984450E-2,-4.407544364E-2,-3.063356280E-3,5.220019385E-2
8.442427208E0,2.228899221E-2,1.136735268E-2,2.013254821E-2,3.211441076E-2
8.452385208E0,1.986554516E-2,5.007610302E-3,9.200593829E-3,2.245811596E-2
8.462343208E0,1.981861440E-2,1.438109899E-2,1.458704889E-2,2.850220132E-2
8.472301208E0,1.065410657E-3,6.562813436E-2,1.578046560E-2,6.750711232E-2
8.482260208E0,-2.486860103E-2,7.810929026E-2,1.143481493E-2,8.276631884E-2
8.492218208E0,-4.461836675E-4,1.083971913E-1,1.786675215E-2,1.098606890E-1
8.502176208E0,2.256474781E-2,1.113890653E-1,-1.746329427E-2,1.149854702E-1
8.512134208E0,-2.996471899E-3,1.499261999E-1,-5.488781333E-3,1.500565593E-1
8.522093208E0,-7.160105144E-3,1.039989796E-1,-4.590064287E-3,1.043461717E-1
8.532051208E0,4.745383694E-2,7.955828511E-2,-2.764154255E-2,9.667182757E-2
8.542009208E0,1.570393103E-3,7.882110653E-2,-4.288932681E-3,7.895332744E-2
8.551967208E0,-5.510589163E-2,7.769780159E-2,5.259336591E-2,1.088102468E-1
8.561926208E0,-5.561048350E-2,8.123221505E-2,1.172951460E-2,9.914020450E-2
8.571884208E0,1.858600764E-2,-4.699580809E-3,-1.131904006E-2,2.226311765E-2
8.581842208E0,1.359969628E-2,-2.621289418E-2,1.023847461E-2,3.125530231E-2
8.591800208E0,-1.488567487E-2,-5.982455355E-2,6.308268607E-2,8.820422782E-2
8.601759208E0,-5.283253987E-3,-9.332952864E-2,-5.171862245E-3,9.362190902E-2
8.611717208E0,-4.508609832E-2,-7.665849555E-2,7.853980064E-3,8.928026773E-2
8.621675208E0,-7.068630023E-2,-5.159521879E-2,5.380900204E-2,1.027328007E-1
8.631633208E0,9.844792541E-5,-1.206113121E-1,2.941207945E-2,1.241457560E-1
8.641592208E0,4.891986181E-2,-1.438273073E-1,6.309438050E-2,1.645002980E-1
8.651550208E0,-1.787441063E-2,-7.832962979E-2,-6.362355351E-3,8.059469600E-2
8.661508208E0,-8.597522970E-2,-3.308206609E-2,1.384503722E-2,9.315496914E-2
8.671466208E0,-1.844819607E-2,-6.127920376E-2,2.881273985E-2,7.018298034E-2
8.681424208E0,2.400737012E-2,-4.707289084E-2,1.354273617E-2,5.454921241E-2
8.691383208E0,-1.790630308E-2,-4.031975876E-2,1.115064025E-3,4.413119083E-2
8.701341208E0,-4.897814211E-2,-2.085578484E-2,-8.615287542E-3,5.392629548E-2
8.711299208E0,-4.353495535E-2,3.378846455E-2,1.563077688E-2,5.728240445E-2
8.721257208E0,-1.507531195E-2,4.339301876E-2,3.718185961E-2,5.909915221E-2
8.731216208E0,-1.236480544E-3,4.434578600E-2,2.445539474E-2,5.065712144E-2
8.741174208E0,-2.889039590E-2,6.996826672E-2,-4.649705887E-2,8.883799754E-2
8.751132208E0,-8.111047419E-2,4.358237718E-2,-1.925663531E-2,9.406992414E-2
8.761090208E0,-6.905186185E-2,9.945358255E-2,3.403021038E-2,1.257665692E-1
8.771048708E0,2.957261293E-3,9.576548782E-2,7.234759927E-3,9.608389981E-2
8.781006708E0,-3.859006100E-2,1.004872789E-1,2.804090738E-2,1.112347901E-1
8.790964708E0,-7.077679960E-2,8.258230973E-2,1.486771524E-2,1.097735952E-1
8.800922708E0,-1.348771753E-2,8.685434030E-2,1.546003819E-3,8.790895905E-2
8.810881708E0,7.571746842E-3,6.249251015E-2,2.370110393E-2,6.726356742E-2
8.820839708E0,-1.611678557E-2,5.760143302E-2,-3.690762520E-3,5.992743605E-2
8.830797708E0,-5.299257542E-2,6.643394463E-2,4.543871284E-3,8.510187316E-2
8.840755708E0,1.198684234E-2,2.506817381E-2,7.392050028E-3,2.875308907E-2
8.850714708E0,3.555458178E-2,1.365580671E-3,2.104997635E-4,3.558141940E-2
8.860672708E0,-2.523778418E-2,-2.967885867E-2,3.314435720E-2,5.115006174E-2
8.870630708E0,-5.615083018E-2,-3.814369004E-2,1.608101249E-2,6.975998698E-2
8.880588708E0,-2.227683640E-2,-7.900258949E-2,-2.822392523E-2,8.680009529E-2
8.890547708E0,4.279619391E-3,-7.058626260E-2,3.210004449E-2,7.766046913E-2
8.900505708E0,3.779016647E-3,-5.333297473E-2,-9.212872982E-3,5.425462367E-2
8.910463708E0,2.910439485E-2,-7.574335149E-2,-8.162128329E-3,8.155207804E-2
8.920421708E0,2.239267065E-2,-7.851011689E-2,7.555772066E-3,8.198999844E-2
8.930380708E0,-6.553192025E-2,-2.943203308E-2,-1.340240300E-2,7.307736687E-2
8.940338708E0,-4.575002225E-2,-4.505454163E-2,3.285024226E-2,7.212568664E-2
8.950296708E0,1.634851918E-2,-4.638407056E-2,-2.478634715E-3,4.924327072E-2
8.960254708E0,-5.465897250E-3,-1.154181898E-2,1.260659695E-3,1.283272695E-2
8.970212708E0,-8.029845125E-2,-5.213213023E-3,-3.212226391E-2,8.664213006E-2
8.980171708E0,-4.837103667E-2,3.936485362E-2,6.081104279E-5,6.236467419E-2
8.990129708E0,-3.022252182E-2,6.003247689E-2,-1.506008863E-2,6.887746638E-2
9.000087708E0,-3.946527041E-2,4.295294269E-2,2.744975388E-2,6.446667234E-2
9.010045708E0,-2.907165958E-2,6.153993476E-2,-1.161900222E-2,6.904582662E-2
9.020004708E0,-3.029466641E-2,7.324278971E-2,1.786967576E-2,8.125022073E-2
9.029962708E0,-3.251299496E-2,2.767182930E-2,2.864609420E-2,5.141423627E-2
9.039920708E0,-6.554735599E-3,9.451387304E-2,4.241687179E-2,1.038028312E-1
9.049878708E0,6.516532267E-3,8.350431514E-2,1.532438278E-2,8.514853227E-2
9.059837708E0,-3.365324312E-2,6.258837707E-2,9.940266609E-3,7.175412614E-2
9.069795708E0,-2.212385633E-2,2.394255739E-2,3.538968801E-2,4.811591308E-2
9.079753708E0,3.926916942E-2,3.513789229E-2,9.793501496E-3,5.359712505E-2
9.089711708E0,5.975804147E-2,-2.241971402E-2,2.326607108E-2,6.793362320E-2
9.099670708E0,-2.308649304E-2,-9.264045255E-3,2.521436334E-2,3.541994938E-2
9.109628708E0,-1.309963029E-2,-2.578804828E-3,2.865837336E-2,3.161570672E-2
9.119586708E0,5.325019552E-2,-2.608911593E-2,-1.127927899E-3,5.930849445E-2
9.129544708E0,-9.932857091E-3,-3.964061379E-2,4.018908262E-2,5.731668408E-2
9.139503708E0,-4.850703468E-2,-4.176170954E-2,2.619552612E-3,6.406118055E-2
9.149461708E0,-2.663046989E-2,-6.576579974E-2,1.773928285E-2,7.313688876E-2
9.159419708E0,1.610658264E-2,-6.609337172E-2,-9.718072414E-4,6.803455151E-2
9.169377708E0,-3.436085900E-2,-2.878260842E-2,2.537282288E-2,5.150618720E-2
9.179335708E0,-4.547983521E-2,-3.191753827E-2,-1.728904724E-2,5.818982569E-2
9.189294708E0,3.032109308E-2,-3.909991994E-2,-1.369651794E-2,5.133972174E-2
9.199252708E0,-2.157989854E-2,6.960196607E-4,-3.585044861E-2,4.185010310E-2
9.209210708E0,-1.101554307E-1,1.705125743E-2,1.519282043E-2,1.124979382E-1
9.219168708E0,-4.707582358E-2,-1.108429262E-2,9.952545762E-3,4.937659239E-2
9.229127708E0,1.576566941E-2,-6.283975253E-3,-4.453590274E-2,4.766016481E-2
9.239085708E0,-3.286920688E-2,-7.755353982E-3,2.372039974E-2,4.126969396E-2
9.249043708E0,-6.871885378E-2,3.923457035E-2,-2.043601871E-2,8.172675961E-2
9.259002708E0,-4.642261650E-2,6.386555515E-2,2.896242857E-2,8.409929088E-2
9.268960708E0,-3.631248828E-2,4.188271950E-2,1.219670713E-2,5.675842372E-2
9.278918708E0,-1.625423625E-2,3.142839127E-2,-7.861581445E-3,3.624566784E-2
9.288876708E0,1.684449668E-2,4.329991098E-2,-9.057337046E-3,4.733555444E-2
9.298834708E0,1.321604127E-2,2.465352399E-2,1.055305481E-2,2.989693894E-2
9.308793708E0,-1.514743370E-2,5.218723110E-2,5.935157776E-2,8.047087436E-2
9.318751708E0,2.650951247E-2,5.651800792E-2,4.408332825E-2,7.642237434E-2
9.328709708E0,4.073407053E-2,4.473664496E-2,-3.216553330E-3,6.058859727E-2
9.338667708E0,-3.056297823E-2,2.837202424E-2,6.474271059E-2,7.701094710E-2
9.348626708E0,-1.877773921E-2,4.895633382E-2,5.217002749E-2,7.396646456E-2
9.358584708E0,3.721315364E-2,1.177569847E-2,3.929796696E-2,5.538786947E-2
9.368542708E0,6.143734810E-2,6.482524769E-3,2.088859320E-2,6.521429441E-2
9.378500708E0,2.160459389E-3,1.002004456E-2,4.573692083E-2,4.687147112E-2
9.388459708E0,1.972449022E-2,-1.172536673E-2,3.361447334E-2,4.069978572E-2
9.398417708E0,3.265113543E-2,-3.276639867E-2,1.894790232E-2,4.998756374E-2
9.408375708E0,-4.935001588E-2,-5.477443216E-2,3.077448070E-2,7.989199678E-2
9.418333708E0,-7.290019769E-2,-4.613208298E-2,-1.706217527E-3,8.628742134E-2
9.428292708E0,7.451502050E-3,-7.336132374E-2,1.446250319E-2,7.514368039E-2
9.438250708E0,2.524284110E-4,-5.227035292E-2,3.018157303E-2,6.035876793E-2
9.448208708E0,-5.628550800E-2,-4.715417627E-2,5.426216125E-4,7.342934828E-2
9.458166708E0,-2.209009780E-2,-7.167514206E-2,-5.594615936E-3,7.521035924E-2
9.468125708E0,2.990283444E-2,-6.616447935E-2,-5.744304657E-3,7.283484654E-2
9.478083708E0,-1.048464421E-1,-4.125598021E-2,2.254627883E-2,1.149050348E-1
9.488041708E0,-1.480379421E-1,-2.135999755E-2,2.149904251E-2,1.511082083E-1
9.497999708E0,-1.943621335E-2,-4.149647436E-2,-3.837527633E-2,5.976943706E-2
9.507958708E0,2.778578377E-2,-2.351601214E-2,-3.688014328E-2,5.181889207E-2
9.517916708E0,1.160694006E-2,-8.818659185E-2,8.176161647E-3,8.932214540E-2
9.527874708E0,-1.762573951E-2,3.087722724E-2,8.025888205E-3,3.644838456E-2
9.537832708E0,-3.678385380E-2,-7.266992703E-4,-7.991974354E-3,3.764905904E-2
9.547790708E0,-3.034370308E-2,4.537563600E-2,2.538685620E-2,6.020117213E-2
9.557749708E0,1.471151007E-2,4.910905578E-2,-3.882960498E-2,6.431069982E-2
9.567707708E0,3.188258745E-2,5.619198910E-2,1.296444654E-2,6.589473345E-2
9.577665708E0,-9.678206281E-3,6.228108762E-2,1.251596510E-2,6.425924785E-2
9.587623708E0,1.378503474E-2,1.151995587E-1,2.913199782E-2,1.196229025E-1
9.597582708E0,5.181015878E-2,7.664036005E-2,2.568857253E-2,9.601010415E-2
9.607540708E0,1.302881160E-2,5.179134719E-2,1.251713455E-2,5.485227646E-2
9.617498708E0,-5.313966030E-2,1.091679730E-1,1.955191970E-2,1.229786461E-1
9.627456708E0,-3.781672105E-2,5.497807972E-2,3.536980748E-3,6.682218100E-2
9.637415708E0,2.344917116E-2,2.853025538E-2,3.239942193E-3,3.707204237E-2
9.647373708E0,-2.149007526E-2,9.561239127E-3,2.210189044E-2,3.227590726E-2
9.657331708E0,-6.641644866E-2,4.383949935E-3,1.327142537E-2,6.787116031E-2
9.667289708E0,5.322405207E-3,-4.613860628E-2,1.357138753E-2,4.838679103E-2
9.677248708E0,-1.293100093E-2,-5.666041503E-2,2.479979575E-2,6.318736650E-2
9.687206708E0,-8.262253675E-2,-5.440585658E-2,3.333380699E-2,1.043916831E-1
9.697164708E0,-9.113612842E-2,-5.677451796E-2,4.081999719E-2,1.148712843E-1
9.707122708E0,8.303708606E-3,-6.870711367E-2,3.228949428E-2,7.636904141E-2
9.717081708E0,-1.480825408E-2,-4.895297167E-2,1.537642300E-2,5.340517024E-2
9.727039708E0,-4.252756232E-2,-7.611619371E-2,1.328195035E-2,8.819681801E-2
9.736997708E0,-1.231317636E-2,-8.516539034E-2,8.942146897E-3,8.651427636E-2
9.746955708E0,-4.766050860E-2,-4.626407473E-2,9.988798499E-3,6.716892724E-2
9.756914708E0,-9.583771921E-2,3.720126506E-3,5.040241420E-2,1.083471787E-1
9.766872708E0,-1.049686672E-2,-4.984022269E-2,2.974361658E-2,5.898232562E-2
9.776831208E0,4.863578763E-2,-3.954771616E-2,-4.685373902E-3,6.286027696E-2
9.786789208E0,7.438083147E-3,-4.058194242E-2,1.057936728E-2,4.259274755E-2
9.796748208E0,-4.497046050E-2,4.321053081E-2,-1.142662883E-2,6.340394417E-2
9.806706208E0,-3.448216360E-2,2.370735314E-2,-2.415250897E-2,4.831564849E-2
9.816664208E0,5.160996930E-3,2.656527115E-2,1.386491776E-2,3.040699697E-2
9.826622208E0,2.372756714E-3,3.574635903E-2,-3.702983201E-2,5.152320465E-2
9.836581208E0,-7.901810745E-3,5.026611012E-2,6.531339884E-3,5.130086589E-2
9.846539208E0,2.671108609E-3,5.011944551E-2,-7.689088583E-3,5.077613340E-2
9.856497208E0,9.308191733E-3,8.484537405E-2,4.080771804E-2,9.460787379E-2
9.866455208E0,1.744674619E-2,6.158836615E-2,-1.188212693E-2,6.510530499E-2
9.876413208E0,2.629439660E-2,3.846525036E-2,-4.694729447E-3,4.682959814E-2
9.886372208E0,-1.449227375E-2,7.041895000E-2,2.733807206E-2,7.691699878E-2
9.896330208E0,-1.210579891E-2,5.464690804E-2,1.102083206E-2,5.704641676E-2
9.906288208E0,-1.261580174E-3,5.593139514E-2,6.381066442E-3,5.630835245E-2
9.916246208E0,-9.286187016E-3,1.125647485E-2,-3.777476728E-2,4.049536441E-2
9.926205208E0,1.430395914E-2,3.074672470E-2,2.329823077E-2,4.114330910E-2
9.936163208E0,4.608915162E-2,-7.729269918E-3,1.641371906E-2,4.953142118E-2
9.946121208E0,-5.246076202E-3,-1.311819177E-2,-9.780052900E-3,1.718306450E-2
9.956079208E0,-6.602491819E-2,7.193646692E-3,3.842205405E-3,6.652669327E-2
9.966038208E0,-1.551998128E-2,-3.516986012E-2,9.980612397E-3,3.971651424E-2
9.975996208E0,3.905418375E-2,-5.854476250E-2,1.301005483E-3,7.038757773E-2
9.985954208E0,-1.373570114E-2,-5.487507736E-2,8.338714242E-3,5.717934729E-2
9.995912208E0,-5.852781014E-2,-3.402784408E-2,4.216719568E-2,7.975883101E-2
1.000587121E1,1.359660136E-2,-8.338591816E-2,1.043494105E-2,8.512911905E-2
1.001582921E1,4.499307278E-2,-7.343800449E-2,6.393930316E-3,8.636202549E-2
1.002578721E1,-7.521252480E-2,-1.652921984E-2,2.465536952E-2,8.085806232E-2
1.003574521E1,-8.558007670E-2,-4.435165149E-2,4.127140224E-2,1.048539325E-1
1.004570421E1,-1.002777841E-2,-6.717785664E-2,3.101363182E-3,6.799293505E-2
1.005566221E1,-1.060528004E-2,-9.087805607E-2,3.004416347E-2,9.630132293E-2
1.006562021E1,-6.989746516E-2,9.125840832E-3,2.854727626E-2,7.605184803E-2
1.007557821E1,-5.756518942E-2,-1.213333793E-2,-3.037043810E-3,5.890834031E-2
1.008553721E1,4.379265311E-3,-1.812294242E-2,-2.399521887E-2,3.038732524E-2
1.009549521E1,-2.505302815E-2,-1.125534195E-3,1.132839561E-2,2.751824111E-2
1.010545321E1,-4.504476582E-2,3.734612983E-2,8.935714960E-3,5.919131138E-2
1.011541121E1,-3.508082484E-2,2.333468450E-2,-2.055179358E-2,4.687801181E-2
1.012537021E1,-2.191266678E-2,3.115642265E-2,1.372458458E-2,4.048767541E-2
1.013532821E1,-2.669255316E-2,7.991800765E-2,1.177512288E-2,8.507663521E-2
1.014528621E1,-5.839678226E-4,6.788866793E-2,-6.038419604E-3,6.815918693E-2
1.015524421E1,-1.428255513E-3,7.908056759E-2,2.793799639E-3,7.914279121E-2
1.016520321E1,4.258746430E-3,8.824266116E-2,2.584527791E-2,9.204826212E-2
1.017516121E1,-8.980181208E-4,7.401561803E-2,1.132547200E-2,7.488247101E-2
1.018511921E1,-9.257727521E-3,7.275711450E-2,-1.936013103E-2,7.585590222E-2
1.019507721E1,2.240541119E-3,7.976924169E-2,7.299839437E-2,1.081522886E-1
1.020503621E1,2.892336643E-2,5.922685848E-2,3.153695762E-2,7.306819819E-2
1.021499421E1,2.777927418E-2,3.312867022E-2,7.890232801E-3,4.394829505E-2
1.022495221E1,-2.772977384E-2,3.542009354E-2,2.315965176E-2,5.059538371E-2
1.023491021E1,-1.483342909E-2,1.155848354E-2,4.726187468E-2,5.086564615E-2
1.024486821E1,6.773502320E-2,-3.255771702E-2,3.214448333E-2,8.173925687E-2
1.025482721E1,3.299633129E-2,-5.469063425E-2,6.699154973E-3,6.422384316E-2
1.026478521E1,-5.943325605E-2,-2.411375290E-2,6.702487886E-2,9.276917263E-2
1.027474321E1,-2.352535855E-3,-4.511154285E-2,3.544231296E-2,5.741727328E-2
1.028470121E1,7.494435688E-2,-1.027900769E-1,2.137391210E-2,1.289934132E-1
1.029466021E1,-4.085947503E-2,-5.515768974E-2,3.679301977E-2,7.788192179E-2
1.030461821E1,-7.500110228E-2,-6.271253904E-2,5.176247656E-2,1.106227005E-1
1.031457621E1,1.997254464E-2,-1.053608692E-1,-6.913747787E-3,1.074598307E-1
1.032453421E1,3.635964059E-2,-1.133952359E-1,-1.305215478E-2,1.197950822E-1
1.033449321E1,-6.592771280E-2,-4.311875694E-2,5.924632788E-2,9.856884843E-2
1.034445121E1,-8.897864289E-2,-3.148213997E-2,-7.366907001E-3,9.467098471E-2
1.035440921E1,-2.017614880E-2,-6.938901778E-2,-5.691562772E-2,9.198533279E-2
1.036436721E1,-2.736002653E-2,-6.165245712E-2,-1.635349274E-2,6.940485030E-2
1.037432621E1,-3.963017103E-2,2.711600577E-2,1.013965666E-2,4.907790605E-2
1.038428421E1,-2.959102252E-2,2.961316885E-2,-4.928910434E-2,6.466826262E-2
1.039424221E1,-3.124047410E-2,8.143572556E-3,-4.087788463E-3,3.254220352E-2
1.040420021E1,-2.433453554E-2,6.539297579E-2,1.806146443E-2,7.207376360E-2
1.041415921E1,-3.185722287E-2,7.482655375E-2,1.444262266E-3,8.133868507E-2
1.042411721E1,-2.250813717E-2,9.803618093E-2,-2.759651899E-2,1.043037721E-1
1.043407521E1,-3.825285253E-2,1.046942501E-1,5.263254225E-2,1.232653691E-1
1.044403321E1,-3.632630233E-2,9.853365107E-2,8.017409742E-2,1.321225436E-1
1.045399221E1,2.268707568E-2,8.403425560E-2,-2.819936693E-2,9.149679673E-2
1.046395021E1,-1.409382026E-2,7.377941793E-2,9.972426295E-3,7.577260432E-2
1.047390821E1,8.648436230E-3,8.269083953E-2,6.670562088E-2,1.065936689E-1
1.048386621E1,4.333545566E-2,4.172488122E-2,1.791002154E-2,6.276700010E-2
1.049382521E1,-2.463159237E-2,5.325629398E-2,4.005342722E-4,5.867800797E-2
1.050378321E1,-6.341464346E-2,5.195939069E-2,3.513124108E-2,8.919304562E-2
1.051374121E1,4.891085344E-2,-5.715890843E-3,4.591292202E-2,6.732710748E-2
1.052369921E1,1.106530927E-1,-6.337245215E-2,-2.174053252E-2,1.293554227E-1
1.053365821E1,-3.384631316E-2,-3.767557475E-2,1.912624240E-3,5.068214655E-2
1.054361621E1,-3.648306709E-2,-6.366521493E-4,3.065578222E-2,4.765707182E-2
1.055357421E1,9.775760679E-2,-9.937088099E-2,-8.707673550E-3,1.396672662E-1
1.056353221E1,2.312765424E-2,-9.743038198E-2,-5.863587856E-3,1.003092687E-1
1.057349121E1,-1.386804419E-1,-2.747583794E-2,3.185913920E-2,1.449213283E-1
1.058344921E1,-5.038919401E-2,-4.862274103E-2,5.067197084E-3,7.020625545E-2
1.059340721E1,7.145349604E-2,-1.280824183E-1,-2.472085834E-2,1.487340876E-1
1.060336521E1,-2.153112225E-2,-1.070269785E-1,1.314629495E-2,1.099599401E-1
1.061332421E1,-7.606283787E-2,8.494277587E-3,3.529905617E-2,8.428363674E-2
1.062328221E1,-3.151471993E-2,-7.705663612E-2,-7.810125947E-3,8.361758673E-2
1.063324021E1,-3.072463090E-2,-1.048404213E-1,4.611114264E-3,1.093470588E-1
1.064319821E1,-7.800261511E-2,-6.543765217E-3,6.493216038E-2,1.017025775E-1
1.065315721E1,-2.215452452E-2,5.214026151E-2,3.499500096E-2,6.658888736E-2
1.066311521E1,-1.552261481E-2,-2.287267224E-2,-1.021040797E-2,2.946800192E-2
1.067307321E1,-3.490285706E-2,5.109753851E-3,2.526231050E-2,4.338782488E-2
1.068303121E1,-4.795375560E-2,8.440683288E-2,5.414930999E-2,1.111585529E-1
1.069299021E1,-1.470854307E-2,6.825147852E-2,1.253643036E-2,7.093495363E-2
1.070294821E1,-1.929757039E-2,4.114980756E-2,-1.695692539E-2,4.851020721E-2
1.071290621E1,-2.671044884E-2,8.055353603E-2,5.593738854E-2,1.016430602E-1
1.072286421E1,1.182348347E-2,1.106770480E-1,2.348826528E-3,1.113315800E-1
1.073282321E1,1.897197641E-3,4.784431217E-2,-4.535100460E-3,4.809620258E-2
1.074278121E1,-4.830647062E-2,5.902702988E-2,2.525178552E-2,8.034524274E-2
1.075273921E1,7.539029843E-3,5.604795573E-2,2.420396447E-2,6.151456908E-2
1.076269721E1,4.485166152E-2,4.290240996E-2,-1.351525426E-2,6.352125958E-2
1.077265471E1,-5.082732406E-2,1.358133693E-2,-4.075684726E-2,6.655065877E-2
1.078261371E1,-4.842350629E-2,-1.858245134E-3,2.271350920E-2,5.351815147E-2
1.079257171E1,3.710112692E-2,-1.407184524E-2,1.134242892E-2,4.126937292E-2
1.080252971E1,2.024333925E-2,-5.302465288E-2,-2.877005517E-2,6.363271699E-2
1.081248771E1,-7.393740239E-2,-2.179761596E-2,1.344274879E-2,7.824693622E-2
1.082244671E1,2.103034021E-2,-2.211231493E-2,7.157576680E-3,3.134422730E-2
1.083240471E1,8.149099088E-2,-6.473541071E-2,-9.755494595E-3,1.045304964E-1
1.084236271E1,-6.542283313E-2,-4.032805449E-2,-3.460382223E-2,8.428477672E-2
1.085232071E1,-1.034406344E-1,-4.204119732E-2,7.009057403E-3,1.118774062E-1
1.086227971E1,3.992154053E-2,-3.786102285E-2,1.928236306E-2,5.830090886E-2
1.087223771E1,7.047305502E-2,-7.908551945E-2,-1.110503197E-2,1.065095893E-1
1.088219571E1,-3.240396494E-2,-1.235913182E-2,3.903893530E-2,5.221880459E-2
1.089215371E1,-4.310681582E-2,1.228516454E-2,1.186984777E-4,4.482339710E-2
1.090211271E1,1.482720043E-2,1.906411573E-3,8.203058839E-3,1.705199261E-2
1.091207071E1,1.248551847E-2,-2.633944072E-2,3.155332983E-2,4.295657030E-2
1.092202871E1,-2.966678051E-2,2.963715157E-2,3.319990575E-2,5.348562762E-2
1.093198671E1,-1.561663621E-2,3.835645560E-2,3.289877415E-2,5.289070196E-2
1.094194571E1,-3.857952688E-2,5.024530683E-3,3.080079317E-2,4.962171564E-2
1.095190371E1,-2.514571109E-2,5.827272993E-2,3.109666228E-2,7.067545716E-2
1.096186171E1,6.573101794E-3,5.658790042E-2,2.361105680E-2,6.166748044E-2
1.097181971E1,2.576923669E-2,4.432374931E-2,7.147636414E-3,5.176617640E-2
1.098177871E1,-2.791726161E-2,3.909720646E-2,2.481090546E-2,5.406982595E-2
1.099173671E1,-2.549473276E-2,7.265895437E-2,2.031965911E-2,7.963789044E-2
1.100169471E1,2.179288794E-2,4.781601713E-2,2.002086639E-2,5.623287784E-2
1.101165271E1,-2.331335587E-2,2.171125989E-3,7.147636414E-3,2.448091208E-2
1.102161171E1,-1.983443843E-2,1.881467717E-2,4.142810762E-2,4.963552282E-2
1.103156971E1,3.940359143E-2,2.263685586E-3,-9.912199974E-3,4.069421332E-2
1.104152771E1,6.155740789E-3,-1.441806436E-2,-4.134390771E-2,4.421642715E-2
1.105148571E1,-5.008259435E-2,-5.629461687E-2,3.784259498E-2,8.431733001E-2
1.106144471E1,-1.311847728E-2,-3.481574725E-2,-1.559510887E-2,4.034151861E-2
1.107140271E1,3.623644707E-2,-8.730335165E-2,-2.008226216E-2,9.663463436E-2
1.108136071E1,-4.252785011E-2,-8.487878541E-2,1.920810342E-3,9.495638872E-2
1.109131871E1,-3.344311338E-2,-4.624166345E-2,1.209964335E-2,5.833639208E-2
1.110127771E1,6.369434137E-2,-5.832073191E-2,2.153061748E-2,8.900474359E-2
1.111123571E1,6.322544036E-3,-2.961683250E-2,-1.664000630E-2,3.455461098E-2
1.112119371E1,-1.144148350E-1,-6.657557515E-3,-8.557400107E-3,1.149273972E-1
1.113115171E1,-4.953407070E-2,2.610429129E-2,1.119975686E-2,5.710072449E-2
1.114111071E1,7.213720457E-2,-7.223595399E-3,1.018584967E-3,7.250513174E-2
1.115106871E1,-4.595546052E-6,2.340580126E-2,3.170184910E-2,3.940607555E-2
1.116102671E1,-6.954153875E-2,6.989418067E-2,2.421682835E-2,1.015267299E-1
1.117098471E1,-4.067055058E-2,6.234427409E-2,1.074367404E-2,7.520856819E-2
1.118094371E1,-3.846161412E-3,4.285660981E-2,-1.021450102E-2,4.422463107E-2
1.119090171E1,-3.808485472E-2,6.506002254E-2,2.451211274E-2,7.927235560E-2
1.120085971E1,-2.063266559E-2,8.588885536E-2,3.543938935E-2,9.517642924E-2
1.121081771E1,1.059131067E-2,2.780373883E-2,3.255144954E-3,2.993024764E-2
1.122077571E1,-4.336471458E-2,3.680631305E-2,9.988798499E-3,5.774927919E-2
1.123073471E1,-4.421901563E-2,4.032040743E-2,2.360988736E-2,6.433104522E-2
1.124069271E1,2.107193310E-2,1.076590260E-2,1.986883879E-2,3.089824879E-2
1.125065071E1,-1.613034152E-2,-1.845471709E-2,-9.016991258E-3,2.611648199E-2
1.126060871E1,-2.163834100E-2,1.585609568E-3,3.155040622E-2,3.829046998E-2
1.127056771E1,2.451077656E-2,6.807264509E-3,-1.824331284E-4,2.543914895E-2
1.128052571E1,2.638361689E-2,-5.443570479E-2,7.603134513E-3,6.096842503E-2
1.129048371E1,-2.277160449E-2,-4.481219281E-2,2.017815650E-2,5.416490188E-2
1.130044171E1,2.114177307E-2,-5.086560505E-2,-1.974604726E-3,5.511971887E-2
1.131040071E1,5.678607535E-2,-4.020415748E-2,1.957998633E-2,7.228006984E-2
1.132035871E1,-3.195499700E-2,-7.581951147E-2,9.247956276E-3,8.279640601E-2
1.133031671E1,-3.731135260E-2,-6.476317585E-2,4.098079562E-2,8.523984742E-2
1.134027471E1,3.173156255E-2,-2.685461696E-2,1.388655245E-2,4.382806011E-2
1.135023371E1,2.614963918E-3,-5.345584849E-2,-1.981036663E-3,5.355642147E-2
1.136019171E1,-4.681975665E-2,-1.412637052E-2,1.403214812E-2,5.087774698E-2
1.137014971E1,8.162057523E-3,-2.870371669E-2,2.690186977E-2,4.017752023E-2
1.138010771E1,2.733119245E-2,8.238178678E-5,3.996571898E-3,2.762197412E-2
1.139006671E1,-9.289829649E-2,1.796446460E-2,-5.285298228E-3,9.476681833E-2
1.140002471E1,-1.084324664E-1,5.192498348E-2,3.033710897E-2,1.239925153E-1
1.140998271E1,1.107331311E-2,3.651818236E-2,-1.741534710E-2,4.194627780E-2
1.141994071E1,2.619382449E-2,3.339491040E-4,-1.442274213E-2,2.990390366E-2
1.142989971E1,-9.535377989E-2,5.134474782E-2,3.721635818E-2,1.145149937E-1
1.143985771E1,-1.172649963E-1,5.910667992E-2,2.808359206E-2,1.342883729E-1
1.144981571E1,-4.499113589E-2,4.540312705E-2,-7.543492913E-3,6.436264863E-2
1.145977371E1,-3.512066356E-2,2.326138417E-2,2.389113843E-2,4.842870531E-2
1.146973271E1,-3.454343831E-2,4.434858170E-2,4.589596510E-2,7.257055492E-2
1.147969071E1,-2.268070998E-3,3.563613902E-2,2.224631667E-2,4.207109644E-2
1.148964871E1,-6.450307982E-3,1.238132383E-2,1.142545938E-3,1.400746458E-2
1.149960671E1,-3.457714888E-2,5.150514426E-2,2.015184402E-2,6.522619050E-2
1.150956571E1,1.955470855E-2,3.477214895E-2,1.910577714E-2,4.423256368E-2
1.151952371E1,3.262116616E-2,-4.645128613E-3,-1.307437420E-2,3.544935771E-2
1.152948171E1,-6.432501383E-3,-9.079437694E-3,1.446951985E-2,1.825322623E-2
1.153943971E1,4.341361192E-3,9.773310330E-3,7.434149981E-3,1.302426957E-2
1.154939871E1,5.710913401E-2,-3.552521551E-3,1.686629355E-2,5.965354520E-2
1.155935671E1,3.081321850E-2,-3.572866207E-2,1.477006674E-2,4.943831105E-2
1.156931471E1,-2.516840331E-3,-3.165346339E-2,1.626636922E-2,3.567731769E-2
1.157927271E1,1.221828929E-2,-1.912261530E-2,-1.112608194E-2,2.527351793E-2
1.158923171E1,1.407388262E-2,-3.290059227E-2,-2.908346593E-2,4.611259193E-2
1.159918971E1,-3.905389138E-2,-3.152871670E-2,5.698696375E-2,7.593932082E-2
1.160914771E1,-3.975046379E-2,-3.841721183E-2,1.761883020E-2,5.802072659E-2
1.161910571E1,-8.860806646E-3,-4.456540377E-2,-4.136027992E-2,6.144315961E-2
1.162906471E1,-2.572522498E-2,-1.314539046E-2,-4.239231348E-3,2.919862279E-2
1.163902271E1,-1.303164613E-2,5.969385915E-3,6.969881058E-4,1.435071989E-2
1.164898071E1,4.742031595E-2,-2.662252818E-2,4.500426471E-2,7.058915790E-2
1.165893871E1,-2.959571172E-2,8.469710145E-3,-2.819468915E-2,4.174425276E-2
1.166889771E1,-1.450513762E-1,3.346256451E-2,2.225040972E-2,1.505148687E-1
1.167885571E1,-5.596448673E-2,4.707030527E-2,3.183107257E-2,7.975496595E-2
1.168881371E1,3.709918090E-2,-1.672341135E-2,-3.552768230E-2,5.402071751E-2
1.169877171E1,-8.195720126E-3,9.196235826E-3,2.883671343E-2,3.135756086E-2
1.170873071E1,-1.095805307E-1,4.823988545E-2,1.132313311E-2,1.202630142E-1
1.171868871E1,-5.028847116E-2,3.489179760E-2,-6.935967207E-3,6.159931422E-2
1.172864671E1,3.070468870E-3,2.047115682E-2,2.792045474E-3,2.088759341E-2
1.173860471E1,4.269840152E-3,2.924587235E-2,3.811741412E-2,4.823370029E-2
1.174856271E1,-1.754281412E-2,5.083121611E-2,4.141290486E-2,6.787187596E-2
1.175852171E1,-6.244814896E-3,2.521501201E-2,1.192656577E-2,2.858386809E-2
1.176847971E1,3.790651693E-3,3.214517768E-2,2.165750206E-2,3.894520361E-2
1.177843783E1,-3.184409633E-3,3.222106358E-2,7.374976158E-2,8.054417879E-2
1.178839683E1,4.161053618E-2,4.032317572E-2,-2.249950111E-2,6.215804672E-2
1.179835483E1,-4.155878832E-3,3.613707181E-3,2.450275719E-2,2.511404624E-2
1.180831283E1,-1.844640993E-2,3.068014867E-2,4.965221643E-2,6.121179754E-2
1.181827083E1,4.999309540E-2,4.695213670E-3,2.764855921E-2,5.732187581E-2
1.182822883E1,6.481899848E-2,-2.579319200E-2,9.087742567E-3,7.035181862E-2
1.183818783E1,-1.566718265E-2,-3.596516367E-2,3.288824916E-2,5.119170385E-2
1.184814583E1,-2.852556847E-2,-2.362802287E-2,5.624085903E-2,6.734259978E-2
1.185810383E1,3.041239644E-2,-2.717060415E-2,-1.231423616E-2,4.260042253E-2
1.186806183E1,-2.367208712E-5,-5.686980930E-2,1.418066740E-2,5.861115165E-2
1.187802083E1,-4.511790169E-2,-5.850903966E-2,1.552903533E-2,7.549889876E-2
1.188797883E1,-3.579960067E-3,-5.708633901E-2,-2.234104156E-2,6.140674518E-2
1.189793683E1,-1.612563862E-2,-4.418940039E-2,-2.263924956E-2,5.220416601E-2
1.190789483E1,-3.666147112E-2,-2.899890058E-3,-9.918047190E-3,3.808990007E-2
1.191785383E1,1.782082866E-2,-2.628447689E-2,6.246580482E-3,3.236472505E-2
1.192781183E1,3.447676406E-2,-1.341371370E-2,-5.422941685E-2,6.564605569E-2
1.193776983E1,-1.006820003E-1,9.907887653E-3,-3.791510046E-2,1.080397439E-1
1.194772783E1,-1.096012700E-1,3.208001778E-3,8.188440800E-3,1.099535367E-1
1.195768683E1,2.305893347E-2,-2.458206005E-4,-4.659880042E-2,5.199252870E-2
1.196764483E1,5.480223385E-2,-5.799798388E-3,-2.654051185E-2,6.116634095E-2
1.197760283E1,-6.011484040E-2,3.158089397E-2,2.480505824E-2,7.229410636E-2
1.198756083E1,-1.160303750E-1,4.927326204E-2,8.341053128E-3,1.263347752E-1
1.199751983E1,-1.903747207E-2,5.781440872E-2,3.251051903E-3,6.095490576E-2
1.200747783E1,3.874102423E-3,2.202114405E-2,4.149184227E-3,2.274104625E-2
1.201743583E1,-3.899291132E-3,2.902706771E-2,2.974654019E-2,4.174484141E-2
1.202739383E1,9.775927872E-4,3.490160082E-2,3.753093839E-2,5.126059660E-2
1.203735283E1,6.991164009E-3,3.808320791E-2,5.646071434E-3,3.912908408E-2
1.204731083E1,-3.740073277E-3,4.336660579E-2,5.249805629E-2,6.819601572E-2
1.205726883E1,2.352894454E-2,2.681156684E-2,3.184159756E-2,4.781588316E-2
1.206722683E1,1.528683498E-2,2.907165273E-2,1.717444181E-2,3.706493987E-2
1.207718583E1,4.630880593E-3,3.827443013E-2,5.923814178E-2,7.067909520E-2
1.208714383E1,1.736323607E-2,2.301543566E-2,3.992829680E-2,4.924897087E-2
1.209710183E1,7.534806143E-2,-4.376421645E-3,2.361222625E-2,7.908236628E-2
1.210705983E1,4.562446243E-2,-1.907259420E-2,4.037619352E-2,6.384036674E-2
1.211701883E1,2.245243788E-2,1.177190691E-3,7.360825896E-2,7.696540477E-2
1.212697683E1,3.003796679E-2,1.939630154E-2,3.319405854E-2,4.878874342E-2
1.213693483E1,2.080174606E-2,-2.982681150E-2,1.478526950E-2,3.925500627E-2
1.214689283E1,-2.357469443E-3,-3.377958409E-2,5.864464939E-2,6.771863012E-2
1.215685183E1,-1.200049650E-2,-5.326099916E-2,-1.679671168E-2,5.712158499E-2
1.216680983E1,1.309746385E-2,-4.764476680E-2,-2.442908227E-2,5.512120666E-2
1.217676783E1,-2.711013800E-2,-1.769723771E-2,-5.868265629E-3,3.290271032E-2
1.218672583E1,6.962462403E-3,-5.309667413E-2,1.523842871E-2,5.567712633E-2
1.219668483E1,4.741387487E-2,-7.832686150E-2,-1.140440941E-2,9.226718440E-2
1.220664283E1,-8.412195470E-2,-2.440198408E-3,-5.047141135E-2,9.813165236E-2
1.221660083E1,-1.346220814E-1,-9.346125545E-3,4.427979469E-2,1.420251917E-1
1.222655883E1,-7.196871797E-3,-5.391060655E-2,1.074893653E-2,5.544085226E-2
1.223651783E1,3.465788842E-2,-7.190174907E-3,-3.834896386E-2,5.218726735E-2
1.224647583E1,-8.028163137E-2,-1.563856099E-2,-7.217218280E-3,8.210842323E-2
1.225643383E1,-1.724823733E-1,-6.498889664E-2,3.708830416E-2,1.880140104E-1
1.226639183E1,-1.127932376E-1,4.821687117E-3,-2.623236358E-2,1.159038395E-1
1.227635083E1,-6.261494536E-2,-2.409886991E-2,-2.174521029E-2,7.052829988E-2
1.228630883E1,-8.426499221E-2,-3.573726844E-2,6.836564541E-2,1.142436114E-1
1.229626683E1,-6.572575545E-2,-3.095823859E-2,-7.076885104E-3,7.299568322E-2
1.230622483E1,-5.085205595E-2,1.881955594E-2,-3.402319372E-2,6.401316264E-2
1.231618383E1,-8.699462780E-2,7.455731688E-2,2.075878501E-2,1.164379059E-1
1.232614183E1,-5.934057768E-2,1.515207265E-2,1.776325643E-2,6.376850903E-2
1.233609983E1,-1.581086199E-2,8.229900300E-2,-3.792036295E-2,9.198403762E-2
1.234605783E1,-2.335882254E-2,8.927686916E-2,6.985668540E-3,9.254616968E-2
1.235601683E1,-2.482965081E-2,7.993062484E-2,3.976749837E-2,9.266536717E-2
1.236597483E1,6.204528951E-2,2.597438260E-2,7.882046700E-3,6.772306226E-2
1.237593283E1,6.147973585E-2,4.361072704E-2,-3.851911783E-2,8.464854324E-2
1.238589083E1,-1.315433716E-2,6.846507548E-2,3.797591150E-2,7.938937587E-2
1.239584983E1,1.273636174E-2,6.932708298E-2,4.381786466E-2,8.299677468E-2
1.240580783E1,4.982253486E-2,3.458058869E-2,-1.383451223E-3,6.066313569E-2
1.241576583E1,1.269535357E-2,-1.689626967E-2,-9.308767319E-4,2.115472671E-2
1.242572383E1,-1.870277608E-3,-1.282836174E-2,3.814372659E-2,4.028658190E-2
1.243568183E1,6.855495815E-2,-2.934282649E-2,4.617546201E-3,7.471348932E-2
1.244564083E1,3.084002662E-2,-2.480290208E-2,-5.031762958E-2,6.401683403E-2
1.245559883E1,3.396343791E-3,-4.795256789E-2,7.796794295E-2,9.159685610E-2
1.246555683E1,7.493561346E-2,-1.272230878E-1,1.390409410E-2,1.483050372E-1
1.247551483E1,2.589639765E-2,-6.053614142E-2,-7.066769421E-2,9.658763293E-2
1.248547383E1,-1.026172186E-1,-3.732294196E-2,6.465032458E-2,1.268974390E-1
1.249543183E1,-2.974850220E-2,-7.387751411E-2,3.575864732E-2,8.730143946E-2
1.250538983E1,1.208373253E-1,-6.808028301E-2,-3.309933364E-2,1.425908482E-1
1.251534783E1,3.513363022E-2,-2.155118323E-2,-2.008050799E-2,4.584814361E-2
1.252530683E1,-8.773630142E-2,-9.327067276E-3,5.296583354E-2,1.029078826E-1
1.253526483E1,-5.884078693E-2,-1.904199681E-2,1.075302958E-2,6.277311123E-2
1.254522283E1,2.967580487E-2,3.330537491E-2,-5.960417747E-2,7.444836711E-2
1.255518083E1,-6.303437802E-3,4.415769752E-2,2.451795995E-2,5.089956718E-2
1.256513983E1,-1.631114382E-2,4.033407530E-2,3.559258640E-2,5.621141565E-2
1.257509783E1,3.237654470E-2,8.654140463E-2,-4.479259551E-2,1.026841369E-1
1.258505583E1,-3.845582172E-2,9.725940574E-2,3.394016325E-2,1.099553405E-1
1.259501383E1,-7.998487604E-2,6.248055076E-2,7.689965665E-2,1.273379630E-1
1.260497283E1,-3.610580748E-2,5.488467959E-2,-3.581595004E-2,7.482472629E-2
1.261493083E1,-1.253051919E-2,8.811338288E-2,-3.072594881E-2,9.415447989E-2
1.262488883E1,-1.753112425E-2,8.458990554E-2,3.948098481E-2,9.498179088E-2
1.263484683E1,2.742157989E-2,3.104926329E-2,8.498343229E-3,4.228736966E-2
1.264480583E1,3.173620149E-2,3.010374111E-2,-6.813760400E-2,8.097008579E-2
1.265476383E1,-6.203132928E-2,2.438782286E-2,1.344508767E-2,6.799575059E-2
1.266472183E1,-4.312501528E-2,9.371898975E-3,6.120222151E-2,7.545403469E-2
1.267467983E1,1.748227945E-2,-2.764195369E-2,-1.468703628E-2,3.585270886E-2
1.268463883E1,-6.720529287E-3,-5.236743498E-2,-2.859288454E-3,5.287427815E-2
1.269459683E1,-5.251830228E-2,-5.540463410E-2,7.168803334E-2,1.047235393E-1
1.270455483E1,2.319579029E-2,-9.695310300E-2,-6.745932698E-3,9.991724815E-2
1.271451283E1,1.083341281E-2,-5.671428250E-2,-8.541612625E-3,5.836807191E-2
1.272447183E1,-2.240042735E-2,-5.689010097E-2,6.151095450E-2,8.672865880E-2
1.273442983E1,2.968430389E-3,-1.203140360E-1,8.082021475E-2,1.449696036E-1
1.274438783E1,3.624216638E-2,-6.438930122E-2,-7.613074780E-4,7.389219393E-2
1.275434583E1,-6.015623686E-2,-1.014513843E-2,-1.124244153E-2,6.203296832E-2
1.276430483E1,-1.047180501E-1,-6.831911436E-2,1.131465465E-1,1.686283261E-1
1.277426296E1,5.404972003E-2,-5.902971595E-2,-2.367128313E-2,8.346381998E-2
1.278422096E1,8.666880084E-2,1.851212030E-2,-4.612868428E-2,9.991013538E-2
1.279417896E1,-5.703001387E-2,1.862816012E-2,7.721306741E-2,9.778184193E-2
1.280413796E1,-1.111718595E-1,-1.153830151E-2,1.553839087E-2,1.128439469E-1
1.281409596E1,-1.445471452E-2,4.602607478E-2,-3.161647975E-2,5.767963353E-2
1.282405396E1,1.254139136E-2,6.300657176E-2,1.418534517E-2,6.579011020E-2
1.283401196E1,-1.878140971E-2,2.735800741E-2,3.394308686E-2,4.746930657E-2
1.284397096E1,-1.069923063E-2,5.962072327E-2,1.607984304E-3,6.059446998E-2
1.285392896E1,-3.373823103E-2,9.270549369E-2,-5.003637850E-2,1.106174307E-1
1.286388696E1,-8.653675427E-2,7.441180344E-2,6.477428555E-2,1.312304629E-1
1.287384496E1,-2.231426771E-2,2.834163699E-2,1.103778899E-2,3.772277451E-2
1.288380396E1,1.314439004E-2,8.891925710E-2,-5.811547637E-2,1.070365259E-1
1.289376196E1,-4.076590588E-2,6.997242372E-2,2.571137667E-2,8.496513434E-2
1.290371996E1,-5.095556080E-2,8.777410733E-3,4.337581515E-2,6.749054346E-2
1.291367796E1,6.975414442E-2,2.694739583E-2,-1.829652250E-2,7.698419021E-2
1.292363696E1,9.106743734E-3,1.402067296E-2,-6.050757229E-2,6.277482263E-2
1.293359496E1,-7.018621255E-2,-1.250838200E-3,6.313706517E-2,9.441375973E-2
1.294355296E1,-1.264031437E-2,-2.681109175E-2,2.736379981E-2,4.034091878E-2
1.295351096E1,3.601682702E-2,-2.803949126E-2,-1.170437157E-2,4.712130317E-2
1.296346996E1,-6.764061351E-3,-6.608660175E-2,2.601894021E-2,7.134547432E-2
1.297342796E1,-2.398575369E-2,-9.455777284E-2,3.619835794E-2,1.040519577E-1
1.298338596E1,8.590992361E-2,-3.607394929E-2,-1.140323997E-2,9.387160739E-2
1.299334396E1,2.221087021E-2,-5.600303267E-2,2.481792212E-2,6.515820502E-2
1.300330296E1,-6.914731307E-2,-6.634228952E-2,1.005586606E-1,1.389053437E-1
1.301326096E1,1.161716812E-2,-8.799498590E-2,3.005644262E-2,9.370947594E-2
1.302321896E1,2.776853677E-2,-1.681185049E-2,-6.978710353E-2,7.696732924E-2
1.303317696E1,-9.322193988E-2,-3.450757158E-2,5.744480073E-2,1.148085698E-1
1.304313596E1,-6.932198037E-2,-6.832646906E-2,7.780071259E-2,1.246073602E-1
1.305309396E1,7.249738849E-2,1.157858334E-3,-4.853890657E-2,8.725386768E-2
1.306305196E1,1.648515102E-3,1.061767568E-2,-1.126875401E-2,1.557040320E-2
1.307300996E1,-1.192248277E-1,1.450209067E-2,5.399377406E-2,1.316821848E-1
1.308296896E1,-6.035944588E-2,1.552064823E-2,8.786610961E-3,6.293931808E-2
1.309292696E1,-1.513900549E-2,8.084904883E-2,-5.064273477E-2,9.659422741E-2
1.310288496E1,-7.578477535E-2,3.261455378E-2,1.776325643E-2,8.439534687E-2
1.311284296E1,-6.933741610E-2,5.393045054E-2,6.147060871E-2,1.072138354E-1
1.312280196E1,2.355161392E-2,1.070829290E-1,-5.334414840E-2,1.219304325E-1
1.313275996E1,-4.391780179E-2,7.193305909E-2,-8.589559793E-3,8.471669754E-2
1.314271796E1,-1.248169859E-1,4.687510877E-2,5.682382643E-2,1.449327535E-1
1.315267596E1,-1.446560039E-3,9.803637279E-2,-6.643021703E-3,9.827183047E-2
1.316263496E1,1.937478104E-2,9.085471289E-2,-1.921628952E-2,9.486425448E-2
1.317259296E1,-9.456984186E-2,6.385659247E-2,3.916523516E-2,1.206442499E-1
1.318255096E1,-3.774992347E-2,4.476701394E-2,4.904586017E-2,7.638480646E-2
1.319250896E1,1.193310551E-1,2.461328784E-2,-2.415017009E-2,1.242133059E-1
1.320246796E1,1.558880255E-2,9.428863646E-3,5.144731164E-2,5.457783533E-2
1.321242596E1,-8.775501251E-2,-2.114148527E-2,9.635685146E-2,1.320323727E-1
1.322238396E1,6.668120876E-2,-2.444804918E-2,5.818739712E-2,9.181429025E-2
1.323234196E1,1.070917547E-1,-3.721397362E-2,-1.685752273E-3,1.133859141E-1
1.324230096E1,-3.800371775E-2,-6.745787431E-2,3.978036225E-2,8.704782933E-2
1.325225896E1,4.751276134E-3,-8.276893641E-2,7.720371187E-2,1.132858534E-1
1.326221696E1,1.137364483E-1,-5.210269315E-2,1.688091159E-2,1.262364269E-1
1.327217496E1,4.299084452E-2,-6.470198108E-2,4.517149508E-2,8.986113195E-2
1.328213396E1,-7.270501032E-2,-1.193705147E-1,7.959990084E-2,1.608461455E-1
1.329209196E1,5.968459496E-2,-6.260256571E-2,1.717911959E-2,8.818420640E-2
1.330204996E1,5.473765866E-2,-3.212701477E-2,-9.766604304E-3,6.421637574E-2
1.331200796E1,-1.021458416E-1,-9.349663110E-2,4.052471280E-2,1.442832123E-1
1.332196696E1,-2.576414550E-2,-1.145961078E-2,-1.201719761E-2,3.065170323E-2
1.333192496E1,8.666478088E-2,-2.666687566E-2,-5.528016150E-2,1.061969998E-1
1.334188296E1,-1.861763742E-2,-6.862657741E-3,1.058229089E-2,2.248771609E-2
1.335184096E1,-1.465494146E-1,1.841149338E-2,-3.372732460E-2,1.515032885E-1
1.336179996E1,-8.879484845E-2,7.370130278E-2,-6.097418010E-2,1.305153546E-1
1.337175796E1,1.440222434E-2,5.164643674E-2,-2.549970746E-2,5.937182475E-2
1.338171596E1,-5.113124222E-2,2.429536376E-2,-2.625048995E-2,6.239997479E-2
1.339167396E1,-6.644185207E-2,1.095442048E-1,-5.595200658E-3,1.282410184E-1
1.340163196E1,1.041138545E-2,1.020528618E-1,-4.705956101E-2,1.128617997E-1
1.341159096E1,-6.710390307E-3,8.681551114E-2,3.684330583E-3,8.715237578E-2
1.342154896E1,-3.824211741E-2,8.736816438E-2,2.149728835E-2,9.776394579E-2
1.343150696E1,1.183926866E-2,1.278348162E-1,-2.730064988E-2,1.312525580E-1
1.344146496E1,-6.750994194E-3,7.478907675E-2,9.528037906E-3,7.569521405E-2
1.345142396E1,-2.442680963E-2,3.793154575E-2,4.620411336E-2,6.457779249E-2
1.346138196E1,8.380763032E-2,3.858012987E-2,-2.250008583E-2,9.496525250E-2
1.347133996E1,1.036278276E-1,-2.120494584E-2,3.363844693E-2,1.109951417E-1
1.348129796E1,-6.317895956E-3,-1.868706169E-2,7.390822113E-2,7.649540662E-2
1.349125696E1,3.500214096E-2,-3.215721929E-3,6.193604708E-2,7.121491885E-2
1.350121496E1,1.067970733E-1,-8.235048590E-2,1.254052341E-2,1.354418034E-1
1.351117296E1,5.527817436E-2,-1.257127794E-1,4.772205055E-2,1.453849152E-1
1.352113096E1,-3.368318041E-2,-1.052905747E-1,6.299263895E-2,1.272349572E-1
1.353108996E1,4.894715186E-2,-7.856823273E-2,3.567386270E-3,9.263647831E-2
1.354104796E1,4.613301488E-2,-1.302025456E-1,1.105065286E-2,1.385751597E-1
1.355100596E1,-2.514778045E-2,-9.334859605E-2,6.014562964E-2,1.138589830E-1
1.356096396E1,-1.331733058E-3,-7.691852306E-2,3.559551001E-2,8.476598985E-2
1.357092296E1,4.248903922E-2,-4.185283475E-2,-3.954939723E-2,7.156209228E-2
1.358088096E1,-9.281672783E-2,-3.518776721E-2,4.603512883E-3,9.936959423E-2
1.359083896E1,-1.234700067E-1,2.477555721E-2,3.100193739E-3,1.259693693E-1
1.360079696E1,1.829818073E-2,2.809485708E-2,-8.057930946E-2,8.727639730E-2
1.361075596E1,4.690822320E-2,1.876632800E-2,-2.953837931E-2,5.852411744E-2
1.362071396E1,-1.080787190E-1,6.761742108E-2,-8.137570024E-3,1.277471924E-1
1.363067196E1,-1.263596824E-1,1.318097351E-1,-4.137138963E-2,1.872222409E-1
1.364062996E1,5.236252423E-3,9.350319095E-2,-2.700478077E-2,9.746549770E-2
1.365058896E1,3.113395199E-2,4.744695732E-2,-3.479093313E-2,6.656534950E-2
1.366054696E1,-3.377296486E-2,8.163512475E-2,3.406412423E-2,9.468511661E-2
1.367050496E1,4.192179078E-2,5.898338590E-2,-2.221591115E-2,7.569691580E-2
1.368046296E1,3.814604263E-2,5.742016020E-2,5.627360344E-3,6.916547224E-2
1.369042196E1,-1.256317223E-2,2.238641230E-2,2.493662059E-2,3.578854285E-2
1.370037996E1,5.726443240E-2,4.013235549E-2,3.496868849E-2,7.818331248E-2
1.371033796E1,1.122983439E-1,2.219890854E-2,3.123114824E-2,1.186553589E-1
1.372029596E1,1.854173325E-2,-2.570422296E-2,3.886644244E-2,5.015080556E-2
1.373025496E1,1.590381901E-2,-2.488967841E-2,3.886585772E-2,4.881580120E-2
1.374021296E1,1.037222510E-1,-6.829808266E-2,8.479047418E-3,1.244782217E-1
1.375017096E1,6.001977746E-2,-5.285163925E-2,5.069185138E-2,9.468544373E-2
1.376012896E1,-5.183856803E-2,-4.625943351E-2,2.449749470E-2,7.367020816E-2
1.377008796E1,2.240972808E-2,-3.819721034E-2,1.252122760E-2,4.602177670E-2
1.378004633E1,2.288552926E-2,-7.310420156E-2,-2.310468793E-2,8.001123884E-2
1.379000433E1,-9.725401534E-2,-9.309509184E-2,6.234301329E-3,1.347735365E-1
1.379996233E1,-8.065059068E-2,-4.054219049E-2,1.895784259E-2,9.223658050E-2
1.380992133E1,-6.693223247E-3,-5.084249027E-2,-6.606593549E-2,8.363292346E-2
1.381987933E1,-4.895910211E-2,-2.016859995E-2,-2.654928267E-2,5.923369407E-2
1.382983733E1,-1.192559549E-1,-3.893828097E-2,2.000274003E-2,1.270365385E-1
1.383979533E1,-1.209397658E-2,5.260418326E-2,-3.822500288E-2,6.614087398E-2
1.384975433E1,-6.555877633E-3,3.979608578E-2,-9.635626674E-3,4.146749662E-2
1.385971233E1,-1.567575842E-1,2.848061800E-2,1.745569289E-2,1.602772192E-1
1.386967033E1,-9.341511726E-2,7.231854592E-2,-1.053843677E-2,1.186061333E-1
1.387962833E1,6.526962238E-2,2.382543035E-2,-3.353378177E-3,6.956306406E-2
1.388958733E1,1.891983112E-2,1.882712991E-2,5.352775097E-2,5.981338441E-2
1.389954533E1,-1.240529193E-1,5.554653872E-2,1.101615429E-2,1.363667863E-1
1.390950333E1,-5.317301684E-2,1.008551876E-1,4.429850578E-3,1.140997903E-1
1.391946133E1,5.995932274E-2,3.287519342E-2,5.323071241E-2,8.665683741E-2
1.392942033E1,2.396756337E-2,5.651872968E-3,6.371009231E-2,6.830346714E-2
1.393937833E1,4.691467797E-2,5.425152663E-2,5.353067458E-2,8.949719701E-2
1.394933633E1,9.525146275E-2,3.719026498E-2,2.015008986E-2,1.042208381E-1
1.395929433E1,2.062904078E-2,1.964732981E-2,5.427736402E-2,6.129932411E-2
1.396925333E1,1.076894954E-3,3.089764682E-2,8.241825879E-2,8.802609649E-2
1.397921133E1,7.122220668E-2,3.194245289E-2,2.284448683E-2,8.133138140E-2
1.398916933E1,3.172201058E-2,-2.527349330E-3,3.826476395E-2,4.976811841E-2
1.399912733E1,-8.277357764E-2,-8.806089498E-3,5.817102492E-2,1.015523535E-1
1.400908633E1,-1.009942736E-2,7.610671939E-3,3.383198977E-3,1.309071410E-2
1.401904433E1,6.919695045E-2,-1.788597487E-2,3.916055739E-2,8.149647418E-2
1.402900233E1,-1.740283497E-2,-2.480498515E-3,3.467164993E-2,3.887331793E-2
1.403896033E1,-1.756367223E-2,2.336708173E-2,3.063005447E-2,4.234032744E-2
1.404891933E1,8.512438674E-2,5.278481654E-2,-6.491578817E-3,1.003720014E-1
1.405887733E1,5.282827780E-2,-1.741492683E-2,-3.945701122E-3,5.576446152E-2
1.406883533E1,-4.240647471E-3,5.528122131E-3,3.377351761E-2,3.448468815E-2
1.407879333E1,2.797004187E-2,5.357960846E-2,-2.640076339E-2,6.595527267E-2
1.408875233E1,7.864877813E-2,9.393186495E-3,-9.187729955E-3,7.973880257E-2
1.409871033E1,6.517126125E-3,-1.128974916E-2,5.420368910E-4,1.304703695E-2
1.410866833E1,-4.982588788E-2,5.646473430E-3,-8.736909628E-3,5.090024906E-2
1.411862633E1,-1.765278517E-2,1.806890136E-3,-8.298134565E-2,8.485746521E-2
1.412858533E1,-8.315213917E-2,-7.440208244E-2,-4.780157268E-2,1.213875548E-1
1.413854333E1,-2.063916377E-1,-6.679400520E-2,-4.390966594E-2,2.213300838E-1
1.414850133E1,-1.405559546E-1,-7.021950513E-2,-8.956297159E-2,1.808543092E-1
1.415845933E1,-3.874288347E-2,-1.140707994E-1,-4.166316569E-2,1.274714779E-1
1.416841833E1,-1.614351922E-1,-1.227169676E-1,-4.316239178E-2,2.073252698E-1
1.417837633E1,-2.163936107E-1,-1.730558390E-2,-3.418340743E-2,2.197593760E-1
1.418833433E1,-1.457590263E-1,-3.020837886E-2,-1.232943892E-2,1.493661775E-1
1.419829233E1,-9.701754115E-2,-6.667309575E-2,3.586915970E-2,1.230621859E-1
1.420825133E1,-7.501395701E-2,-3.913285621E-3,2.493837476E-2,7.914752104E-2
1.421820933E1,-1.717612746E-2,-4.664113792E-3,1.296093822E-2,2.201724850E-2
1.422816733E1,-9.348617464E-3,3.527193057E-2,4.738934398E-2,5.981016350E-2
1.423812533E1,-5.298967465E-2,2.103480100E-2,4.783665597E-2,7.442253777E-2
1.424808433E1,9.787658849E-3,7.577289820E-2,7.283116400E-2,1.055542932E-1
1.425804233E1,1.106938679E-1,5.068889122E-2,-6.665825844E-5,1.217476921E-1
1.426800033E1,5.248934942E-2,5.532888525E-2,4.693676949E-2,8.955153642E-2
1.427795833E1,-6.925611240E-3,9.246555685E-2,7.702244818E-2,1.205416974E-1
1.428791733E1,8.740990802E-2,8.152799279E-2,4.873186469E-2,1.290817581E-1
1.429787533E1,1.482589942E-1,6.599320161E-2,3.136738837E-2,1.652868570E-1
1.430783333E1,6.005536325E-2,3.498425670E-2,8.046236515E-2,1.063237371E-1
1.431779133E1,4.063413796E-2,7.194224104E-2,4.318811953E-2,9.323107252E-2
1.432775033E1,7.402791089E-2,1.365437231E-2,1.474784732E-2,7.670770805E-2
1.433770833E1,4.096369708E-3,1.847738419E-2,5.635955751E-2,5.945244901E-2
1.434766633E1,-1.784914655E-2,2.852680187E-2,2.687029481E-2,4.306254986E-2
1.435762433E1,6.068880857E-2,-2.237741307E-2,2.013430238E-2,6.774415276E-2
1.436758333E1,6.350754110E-2,-1.343921305E-2,1.429644227E-2,6.646960573E-2
1.437754133E1,-2.947333132E-2,-5.339859146E-2,3.570134461E-2,7.067299934E-2
1.438749933E1,3.050599529E-2,-1.390004673E-2,-5.171686828E-2,6.163165998E-2
1.439745733E1,5.968548575E-2,-4.821016515E-2,-7.835912168E-2,1.096664451E-1
1.440741633E1,-1.286635722E-2,-3.650850705E-2,-8.305969834E-3,3.959044544E-2
1.441737433E1,-2.466326783E-2,-2.160062875E-2,-2.507169127E-2,4.127291661E-2
1.442733233E1,4.898505826E-2,-2.715523694E-2,-7.521624327E-2,9.377860138E-2
1.443729033E1,6.054865812E-2,-4.802350192E-2,-9.802857041E-3,7.790053108E-2
1.444724933E1,-2.050702583E-2,-3.652052125E-3,-7.309019566E-5,2.082980882E-2
1.445720733E1,-2.396207704E-2,2.892098643E-2,-2.477348328E-2,4.499255567E-2
1.446716533E1,4.098595762E-2,-1.416757512E-2,-1.504254699E-2,4.590040443E-2
1.447712333E1,2.937444257E-2,-2.860747517E-2,-1.803866029E-2,4.479552184E-2
1.448708233E1,3.922363423E-2,1.165078732E-2,1.249491513E-2,4.278267443E-2
1.449704033E1,5.336676981E-2,1.059316305E-2,-4.270221591E-3,5.457528760E-2
1.450699833E1,-2.086951209E-3,3.089604797E-2,3.569608212E-2,4.725601997E-2
1.451695633E1,-1.714875061E-2,7.655901066E-2,4.512296319E-2,9.050659406E-2
1.452691533E1,4.153276821E-2,8.175102753E-2,-9.214042425E-3,9.215801601E-2
1.453687333E1,3.989730656E-2,3.616895741E-2,4.242973566E-2,6.855852259E-2
1.454683133E1,-2.281538551E-2,5.877244759E-2,4.512237847E-2,7.752916516E-2
1.455678933E1,3.462686620E-2,1.014728180E-1,3.269821465E-2,1.120933802E-1
1.456674833E1,7.083518953E-2,9.362482217E-2,3.358640671E-3,1.174500399E-1
1.457670633E1,5.802864522E-2,8.137352580E-2,4.991300225E-2,1.117151832E-1
1.458666433E1,9.567701214E-2,8.527889027E-2,5.844701350E-2,1.408638817E-1
1.459662233E1,1.213588330E-1,4.841050537E-2,4.348223448E-2,1.377034788E-1
1.460658133E1,4.531703593E-2,5.305525940E-3,2.567220032E-2,5.235307269E-2
1.461653933E1,9.529378654E-3,1.422647668E-2,5.516087830E-2,5.775746005E-2
1.462649733E1,6.420779086E-2,-2.175841221E-2,-6.958186626E-3,6.815046052E-2
1.463645533E1,4.989520022E-2,-4.540084298E-2,1.624473453E-2,6.938774350E-2
1.464641433E1,-9.335189424E-2,-8.551751149E-2,3.300987124E-2,1.308337591E-1
1.465637233E1,-1.044177681E-1,-1.038257284E-1,-9.651998878E-3,1.475669789E-1
1.466633033E1,-5.729611244E-2,-1.500511841E-1,-4.767410338E-2,1.675440912E-1
1.467628833E1,-1.078459359E-1,-1.940823899E-1,-3.630009949E-2,2.249809263E-1
1.468624733E1,-2.301499164E-1,-1.577896725E-1,-4.977676213E-2,2.834506850E-1
1.469620533E1,-1.911929883E-1,-1.345101346E-1,-6.654482245E-2,2.430554432E-1
1.470616333E1,-1.432434811E-1,-1.520732518E-1,-1.999689281E-2,2.098686363E-1
1.471612133E1,-2.176584913E-1,-1.574542616E-1,-1.566235185E-2,2.690954712E-1
1.472608033E1,-2.308797220E-1,-6.966572813E-2,4.690636396E-3,2.412068859E-1
1.473603833E1,-1.761466589E-1,-6.466437617E-2,-2.300586998E-2,1.890460183E-1
1.474599633E1,-1.550929732E-1,-6.681076113E-2,6.027894616E-3,1.689788261E-1
1.475595433E1,-1.388276273E-1,-1.172682853E-2,1.335679471E-2,1.399608251E-1
1.476591333E1,-9.520292172E-2,2.956040687E-2,3.266196191E-2,1.049009901E-1
1.477587100E1,-6.927284549E-2,7.433274725E-2,5.750795066E-2,1.167529393E-1
1.478582900E1,-7.909998218E-2,7.759018541E-2,8.369996846E-2,1.388622655E-1
1.479578700E1,8.535678615E-4,1.200319079E-1,2.995937884E-2,1.237172254E-1
1.480574600E1,8.319016434E-2,1.017382816E-1,6.842938006E-2,1.481683550E-1
1.481570400E1,4.979397487E-2,1.185760060E-1,9.896470964E-2,1.622766862E-1
1.482566200E1,8.161339869E-2,1.598239737E-1,9.821509659E-2,2.045743254E-1
1.483562000E1,1.466118793E-1,1.703500399E-1,6.034385026E-2,2.327134709E-1
1.484557900E1,1.510764842E-1,1.019352505E-1,6.124198258E-2,1.922640887E-1
1.485553700E1,1.333807266E-1,1.171975888E-1,9.252809465E-2,2.002177349E-1
1.486549500E1,1.623025353E-1,1.020503767E-1,3.475000262E-2,1.948434116E-1
1.487545300E1,1.195052930E-1,4.510349379E-2,1.634004414E-2,1.287743657E-1
1.488541200E1,6.238130341E-2,5.809194133E-2,4.926980853E-2,9.845615621E-2
1.489537000E1,1.070435974E-1,4.411621884E-2,4.013821185E-2,1.225383554E-1
1.490532800E1,1.222076842E-1,5.376564128E-2,1.828424335E-2,1.347582124E-1
1.491528600E1,3.333949889E-2,1.978944456E-2,1.543957293E-2,4.173157934E-2
1.492524500E1,-1.728316120E-2,-3.472031887E-2,-2.243225813E-2,4.480417847E-2
1.493520300E1,4.851701606E-2,8.044590158E-3,-4.024521589E-2,6.354757022E-2
1.494516100E1,3.068097778E-2,-6.017147616E-2,-5.970358014E-2,9.014680484E-2
1.495511900E1,-4.542107069E-2,-5.713691742E-2,-2.767019391E-2,7.805985284E-2
1.496507700E1,-5.674957136E-2,-4.139148943E-2,-5.311669171E-2,8.806334189E-2
1.497503600E1,2.585725556E-4,-6.326703781E-2,-1.044587535E-1,1.221245926E-1
1.498499400E1,-5.130180733E-2,-5.416314231E-2,-2.063248515E-2,7.740297710E-2
1.499495200E1,-8.139726184E-2,-5.497296341E-4,-5.146660745E-2,9.630487070E-2
1.500491000E1,-6.398257712E-2,-2.699950000E-2,-5.490944803E-2,8.853129762E-2
1.501486900E1,-1.039000794E-1,-6.127260737E-2,-7.945664406E-2,1.444400125E-1
1.502482700E1,-1.363417383E-1,-3.758719957E-2,-6.897843361E-2,1.573527613E-1
1.503478500E1,-7.464587022E-2,4.006084587E-2,-1.524076760E-2,8.607646781E-2
1.504474400E1,-4.950881804E-2,1.112593576E-2,-2.182765603E-2,5.523908107E-2
1.505470200E1,-1.210157476E-1,-2.537832292E-2,5.091989279E-2,1.337224959E-1
1.506466000E1,-9.365107982E-2,1.221390160E-2,4.208884299E-2,1.033981375E-1
1.507461800E1,9.587094784E-3,5.856051343E-2,-1.808426857E-2,6.203456206E-2
1.508457600E1,-1.075005344E-2,2.217403047E-2,4.209235132E-2,4.877517110E-2
1.509453500E1,-5.338373131E-2,2.078976612E-2,4.658476710E-2,7.383886287E-2
1.510449300E1,2.833242763E-2,6.677969780E-2,4.733554959E-2,8.661933242E-2
1.511445100E1,5.064629791E-2,6.876337484E-2,2.009395659E-2,8.773378086E-2
1.512440900E1,3.657702911E-3,4.620934845E-2,6.410185575E-2,7.910581891E-2
1.513436800E1,1.973757108E-2,7.514913733E-2,5.003170073E-2,9.241285426E-2
1.514432600E1,8.551293422E-2,2.561610360E-2,-5.052579045E-3,8.941015175E-2
1.515428400E1,8.210629156E-2,5.981294135E-2,1.904788971E-2,1.033530511E-1
1.516424300E1,6.483676854E-2,7.795063885E-2,-1.837429047E-2,1.030423369E-1
1.517420100E1,9.490992140E-2,8.508851772E-2,-2.256382048E-2,1.294491214E-1
1.518415900E1,6.795203713E-2,1.122711361E-1,-9.390628338E-3,1.315692641E-1
1.519411700E1,7.570517099E-2,8.849848598E-2,2.583299875E-3,1.164900355E-1
1.520407500E1,2.210245872E-1,1.329832439E-1,-1.028817594E-2,2.581516180E-1
1.521403400E1,2.473495013E-1,1.115415771E-1,-1.013731778E-2,2.715254397E-1
1.522399200E1,1.312204454E-1,9.703606951E-2,5.826984286E-2,1.732921771E-1
1.523395000E1,8.067350445E-2,1.424869701E-1,2.997750521E-2,1.664614123E-1
1.524390800E1,1.563813524E-1,7.624035568E-2,2.585054040E-3,1.739954072E-1
1.525386700E1,1.200762462E-1,2.452500402E-2,4.390031040E-2,1.301807128E-1
1.526382500E1,-1.651582606E-2,-1.350539622E-2,3.896233678E-2,4.442107523E-2
1.527378300E1,-9.940756314E-2,-2.070958617E-2,-1.301590204E-3,1.015502078E-1
1.528374100E1,-1.144544773E-1,-9.897439409E-2,-2.584878623E-2,1.535054325E-1
1.529370000E1,-1.597768305E-1,-1.786436210E-1,-3.393723965E-3,2.396950067E-1
1.530365800E1,-1.870977264E-1,-1.661354034E-1,-1.357021809E-2,2.505806902E-1
1.531361600E1,-2.289287071E-1,-1.758865126E-1,-5.158589065E-2,2.932669814E-1
1.532357400E1,-3.183723407E-1,-2.331789203E-1,6.044266820E-3,3.946769430E-1
1.533353300E1,-3.782964705E-1,-2.650771993E-1,-2.639433146E-3,4.619319298E-1
1.534349100E1,-3.343324255E-1,-2.216158138E-1,3.495465517E-3,4.011283559E-1
1.535344900E1,-3.369433169E-1,-2.350256355E-1,1.127986372E-2,4.109684701E-1
1.536340700E1,-3.763599458E-1,-2.122831460E-1,3.103526652E-2,4.332137240E-1
1.537336600E1,-2.892489127E-1,-1.661128551E-1,1.561323524E-2,3.339194323E-1
1.538332400E1,-2.294700680E-1,-9.074195299E-2,1.396607459E-2,2.471551443E-1
1.539328200E1,-2.036298515E-1,-9.230280326E-2,6.231377721E-2,2.320946591E-1
1.540324000E1,-1.996414109E-1,-5.911298395E-2,9.808587313E-2,2.301561999E-1
1.541319900E1,-1.068167071E-1,6.651664618E-4,5.691913605E-2,1.210373472E-1
1.542315700E1,-5.615937260E-2,1.481528216E-2,8.640547514E-2,1.041118334E-1
1.543311500E1,9.992516963E-3,1.099715906E-1,1.036144155E-1,1.514250582E-1
1.544307300E1,8.705103516E-2,1.529010531E-1,1.145381838E-1,2.099419213E-1
1.545303200E1,1.421227891E-1,1.715598837E-1,1.311495388E-1,2.585186306E-1
1.546299000E1,1.375737558E-1,1.709508962E-1,8.713930070E-2,2.361016834E-1
1.547294800E1,2.264501455E-1,2.283049737E-1,7.920287490E-2,3.311735569E-1
1.548290600E1,2.987316895E-1,2.753715148E-1,5.195835829E-2,4.095970758E-1
1.549286500E1,2.548208907E-1,2.299702973E-1,6.722602308E-2,3.497704420E-1
1.550282300E1,1.626775428E-1,2.514052762E-1,1.678267837E-2,2.999170788E-1
1.551278100E1,1.845922858E-1,2.315141632E-1,-4.728292465E-2,2.998479526E-1
1.552273900E1,2.981728419E-1,1.718482245E-1,-4.353953719E-2,3.468927027E-1
1.553269800E1,2.895548135E-1,1.193860007E-1,-1.719315290E-2,3.136727780E-1
1.554265600E1,1.650579078E-1,1.231987507E-1,-7.077996075E-2,2.177885395E-1
1.555261400E1,1.207509327E-1,8.707912006E-2,-1.221202683E-1,1.925536830E-1
1.556257200E1,1.295401292E-1,3.275565441E-2,-1.081957090E-1,1.719298968E-1
1.557253100E1,9.285972314E-2,2.080145141E-2,-7.885613501E-2,1.235876960E-1
1.558248900E1,3.886086018E-2,1.308210349E-2,-8.409056246E-2,9.355496021E-2
1.559244700E1,-1.797027756E-2,-7.238756133E-2,-8.483374357E-2,1.129586383E-1
1.560240500E1,-4.627943738E-2,-1.081358298E-1,-8.902210414E-2,1.475129792E-1
1.561236400E1,-6.503116105E-2,-1.252434033E-1,-1.050382125E-1,1.759204026E-1
1.562232200E1,-5.688578865E-2,-1.719936557E-1,-6.222548425E-2,1.915458730E-1
1.563228000E1,-1.030925241E-1,-2.028269375E-1,-4.231220663E-2,2.314241948E-1
1.564223800E1,-1.609141688E-1,-1.496142966E-1,-3.841796100E-2,2.230554801E-1
1.565219700E1,-1.379794155E-1,-1.571614075E-1,-1.117402911E-2,2.094346820E-1
1.566215500E1,-8.217187174E-2,-1.988284287E-1,3.777476728E-2,2.184305235E-1
1.567211300E1,-9.359637181E-2,-2.123367394E-1,5.409376144E-2,2.382714979E-1
1.568207100E1,-1.065538474E-1,-1.890758942E-1,4.451192915E-2,2.215507346E-1
1.569203000E1,-8.210238123E-2,-1.550364562E-1,4.241511762E-2,1.804886311E-1
1.570198800E1,-2.313151203E-2,-1.120666663E-1,9.150892496E-2,1.465192407E-1
1.571194600E1,-1.126418587E-2,-1.004955655E-1,1.066210538E-1,1.469499564E-1
1.572190400E1,3.271707877E-2,-6.923678004E-2,7.787731111E-2,1.092200281E-1
1.573186300E1,1.471770903E-2,-1.608387214E-2,1.007750076E-1,1.031062756E-1
1.574182100E1,4.742477902E-3,2.323854349E-2,1.022660476E-1,1.049803100E-1
1.575177900E1,6.019642733E-2,9.415923027E-2,9.582300067E-2,1.472128322E-1
