"Time (s)","Linear Acceleration x (m/s^2)","Linear Acceleration y (m/s^2)","Linear Acceleration z (m/s^2)","Absolute acceleration (m/s^2)"
7.251458359E-3,-1.620184885E-2,-3.305103930E-2,2.445890307E-2,4.419399331E-2
1.720845827E-2,-2.701596357E-3,-2.187938562E-2,2.895190358E-2,3.638981807E-2
2.716645831E-2,1.760521716E-2,-2.326743239E-2,2.655980766E-2,3.945555048E-2
3.712445835E-2,-5.039568990E-4,-1.932851952E-2,2.102366388E-2,2.856291445E-2
4.708245827E-2,3.799063917E-3,-3.181108240E-2,-1.420288682E-3,3.206859944E-2
5.704045831E-2,-1.937178891E-2,-3.350539536E-2,1.055071592E-2,4.011477696E-2
6.699845835E-2,-8.120339010E-3,-1.867934153E-2,2.536814511E-2,3.253306767E-2
7.695545827E-2,-1.407249391E-2,-1.096474447E-2,3.360570252E-2,3.804739082E-2
8.691345830E-2,-1.704828814E-4,-2.172366695E-2,2.537633121E-2,3.340516361E-2
9.687145834E-2,2.739292625E-3,-2.158922668E-2,1.115064025E-2,2.445271377E-2
1.068294583E-1,-2.779528778E-3,-1.212321494E-2,9.050320387E-3,1.538201611E-2
1.167874583E-1,-2.718096469E-3,-1.582497753E-2,6.490409374E-5,1.605684199E-2
1.267454583E-1,-2.060355971E-2,-9.844582407E-3,-8.361518383E-4,2.284998086E-2
1.367024583E-1,1.505347397E-2,-4.836369110E-3,9.939681888E-3,1.867604939E-2
1.466604583E-1,8.924020529E-3,5.757552255E-3,2.760353565E-2,2.957604995E-2
1.566184583E-1,8.731409591E-3,5.204862468E-3,2.131953299E-2,2.361886097E-2
1.665764583E-1,-1.559644276E-2,2.488483619E-3,6.801481247E-3,1.719597990E-2
1.765344583E-1,-2.219383791E-3,-1.211610692E-2,-4.274899364E-3,1.303842306E-2
1.864924583E-1,1.233864829E-2,5.833191471E-3,-2.074007392E-2,2.482778747E-2
1.964504583E-1,-8.513893168E-3,-1.428709586E-2,8.162713051E-4,1.665153999E-2
2.064074583E-1,-4.141164405E-2,-1.725764587E-2,-1.893913150E-2,4.869744661E-2
2.163654583E-1,-4.460738495E-2,-1.269074203E-2,-1.160672307E-2,4.780784189E-2
2.263234582E-1,-9.771446530E-3,-6.297423849E-3,4.706423879E-3,1.254149673E-2
2.362814583E-1,-1.169264060E-2,-1.166402578E-2,2.865194142E-2,3.307115191E-2
2.462394583E-1,-2.618112735E-2,-2.652769365E-2,1.189089775E-2,3.912241569E-2
2.561974584E-1,-2.781187925E-2,-2.825377344E-2,4.106499553E-3,3.985774304E-2
2.661544583E-1,1.689827051E-3,-2.104126948E-2,4.153043389E-2,4.658720292E-2
2.761124583E-1,-8.556449935E-3,-2.131102712E-2,3.135277033E-2,3.886346510E-2
2.860704584E-1,-2.022149898E-2,-2.914730108E-2,9.054413438E-3,3.661224637E-2
2.960284583E-1,6.061059292E-3,-2.022928309E-2,1.235107362E-2,2.446445081E-2
3.059872083E-1,2.034630049E-2,-1.046946703E-2,5.613327026E-3,2.356037190E-2
3.159452083E-1,1.614785347E-2,-1.278908489E-2,1.568807960E-3,2.065853389E-2
3.259032083E-1,4.529161882E-3,-1.460365864E-2,6.810252070E-3,1.673797139E-2
3.358602083E-1,1.179359643E-2,-2.081310930E-2,1.938761294E-2,3.079210890E-2
3.458182083E-1,1.445007786E-2,-3.248466337E-3,1.609153748E-2,2.186995341E-2
3.557762083E-1,-8.721743412E-3,-1.239710217E-3,5.910950303E-3,1.060872391E-2
3.657342083E-1,-1.316215552E-2,-1.133141971E-2,-1.724928617E-3,1.745333176E-2
3.756922083E-1,8.214753270E-3,-1.387613710E-2,3.075693905E-2,3.472777926E-2
3.856502083E-1,5.050331522E-3,-1.174340174E-3,1.742938042E-2,1.818428511E-2
3.956072083E-1,-1.996935608E-2,-9.541641818E-3,1.622953176E-2,2.744477750E-2
4.055652083E-1,-6.381651163E-3,-1.284085102E-2,2.371338308E-2,2.771168460E-2
4.155232083E-1,4.163765721E-4,-5.664197803E-3,-1.012094557E-2,1.160560406E-2
4.254812083E-1,1.371409614E-3,-3.803440193E-3,3.208893478E-2,3.234264456E-2
4.354392083E-1,-1.383372651E-2,7.502635494E-3,1.667333543E-2,2.292731216E-2
4.453972083E-1,-2.027845452E-2,3.473593276E-3,6.347152591E-3,2.153062734E-2
4.553552083E-1,1.062694900E-3,5.456639919E-3,1.255981922E-3,5.699274537E-3
4.653122083E-1,1.551266313E-3,-9.331973456E-3,1.038757861E-2,1.404969555E-2
4.752702083E-1,-1.751263015E-2,-6.668895632E-3,-1.580268502E-2,2.451308299E-2
4.852282084E-1,-2.905596575E-2,-1.359522407E-2,-1.879821360E-2,3.718134072E-2
4.951862083E-1,-3.588874787E-2,-1.296451050E-2,-1.939638376E-2,4.280537886E-2
5.051442083E-1,-1.719733732E-2,-3.270868482E-3,6.601506472E-4,1.751807039E-2
5.151022084E-1,1.874233615E-3,-2.442930155E-2,4.553811550E-3,2.492068870E-2
5.250592083E-1,-6.138004996E-3,-2.332595022E-2,-1.011275947E-2,2.615421502E-2
5.350172083E-1,-5.267701764E-3,-1.752066093E-2,-1.295742989E-2,2.241912645E-2
5.449752084E-1,-7.487195190E-3,-2.770404381E-2,-4.424588084E-3,2.903703006E-2
5.549332083E-1,-2.862577513E-3,-2.425755786E-2,6.056545973E-3,2.516555607E-2
5.648912083E-1,-6.972439215E-3,-2.811095520E-2,2.132888854E-2,3.596890597E-2
5.748492084E-1,1.670531239E-2,-1.704561121E-2,9.210534096E-3,2.558230369E-2
5.848072083E-1,1.653592587E-3,-2.026997605E-2,2.448112249E-2,3.182658725E-2
5.947642083E-1,-3.735128269E-3,-3.550168047E-2,3.031898260E-2,4.683546952E-2
6.047222083E-1,-1.193851601E-2,-1.247906369E-2,2.762517035E-2,3.257921472E-2
6.146802083E-1,1.588323042E-2,-8.436253108E-3,2.822334051E-2,3.346646567E-2
6.246382083E-1,-2.408650853E-3,-9.712170381E-3,3.720349431E-2,3.852567769E-2
6.345962083E-1,-2.942066755E-2,-1.608675007E-2,2.552894354E-2,4.214363730E-2
6.445542083E-1,-2.489618344E-2,-1.366128847E-2,-1.279487729E-2,3.114738573E-2
6.545122083E-1,-1.434575988E-2,-6.153966067E-3,-2.013313293E-2,2.547577608E-2
6.644692083E-1,-2.705161331E-2,-8.614209462E-3,-2.470448613E-3,2.849732450E-2
6.744272083E-1,-3.154510718E-2,-2.861430910E-2,2.465186119E-3,4.266086749E-2
6.843852083E-1,-3.178129815E-2,-6.335385069E-3,1.623947203E-2,3.624787535E-2
6.943432083E-1,-8.231966011E-4,1.023582509E-2,3.120483577E-2,3.285105087E-2
7.043012083E-1,8.539547827E-3,1.676387591E-2,2.566401422E-2,3.182126708E-2
7.142592083E-1,-2.685955055E-3,-5.873254035E-4,1.578572810E-2,1.602337409E-2
7.242172083E-1,-1.120289974E-2,-5.673379758E-3,7.401990294E-3,1.457675069E-2
7.341742082E-1,-3.933568150E-3,2.553606983E-3,2.132479548E-2,2.183439419E-2
7.441322083E-1,-6.140124612E-4,4.155661846E-3,2.327601135E-2,2.365204517E-2
7.540902083E-1,3.516095225E-3,1.966299852E-3,3.817062378E-3,5.549705031E-3
7.640482082E-1,-1.735837329E-3,-1.491516905E-2,1.459991276E-2,2.094356349E-2
7.740062083E-1,9.433696736E-3,-2.876408919E-2,1.728436947E-3,3.032086666E-2
7.839642083E-1,1.790232880E-2,-1.393872972E-2,7.862750888E-3,2.401258866E-2
7.939212084E-1,6.949726436E-3,-1.028552642E-2,3.166384220E-2,3.401014046E-2
8.038792083E-1,5.772992559E-3,-2.622366585E-2,2.642590642E-2,3.767408425E-2
8.138372083E-1,9.095819034E-3,-1.774068983E-2,3.451202095E-2,3.985656269E-2
8.237952084E-1,2.065781090E-2,-2.375166407E-2,2.134233713E-2,3.803132987E-2
8.337532083E-1,5.172794145E-3,-2.686741688E-2,1.206163645E-2,2.990148764E-2
8.437112083E-1,-1.543255627E-2,3.998618424E-3,5.173616409E-3,1.676063988E-2
8.536692084E-1,-6.166071631E-3,-1.489366226E-2,-5.192327499E-4,1.612796384E-2
8.636262083E-1,-1.756658899E-2,-1.290538967E-2,2.686795592E-2,3.459799397E-2
8.735842083E-1,-2.625763452E-2,-1.755635636E-2,6.508535743E-3,3.224980708E-2
8.835422084E-1,-1.357231943E-2,-1.045210811E-2,1.099744320E-2,2.035677223E-2
8.935002083E-1,-1.068395935E-4,-1.859627453E-2,4.112346768E-3,1.904584566E-2
9.034582083E-1,-2.248612560E-2,5.836827708E-3,-6.794464588E-4,2.324125749E-2
9.134162084E-1,-8.258442935E-3,7.153465357E-3,7.706630230E-3,1.337034389E-2
9.233742083E-1,1.241787806E-2,1.165715531E-3,4.867807031E-3,1.338873159E-2
9.333312083E-1,-1.238140605E-2,-3.358494490E-5,3.812384605E-4,1.238731959E-2
9.432892083E-1,-3.372409036E-2,-1.076103296E-2,6.075841784E-3,3.591698699E-2
9.532472083E-1,-1.134133257E-2,-6.499509104E-3,1.356729448E-2,1.883987586E-2
9.632052083E-1,1.295425046E-2,1.586461069E-2,1.057352006E-2,2.304989813E-2
9.731632083E-1,-1.256840732E-3,1.157220623E-2,2.075352252E-2,2.379504785E-2
9.831212083E-1,-3.751341501E-2,-9.023359241E-3,8.035243750E-3,3.941119714E-2
9.930792083E-1,-2.408047859E-2,1.600611331E-3,1.088342249E-2,2.647414382E-2
1.003036208E0,-8.616895527E-3,2.753321375E-2,8.338129520E-3,3.003086998E-2
1.012994208E0,-1.905260403E-3,3.139680717E-3,3.851560950E-3,5.321854372E-3
1.022952208E0,-1.229484899E-2,7.555598477E-3,1.029402316E-2,1.772617536E-2
1.032910208E0,-1.927951254E-2,-4.522784762E-3,1.718145847E-2,2.621750753E-2
1.042868208E0,-1.911929883E-2,-1.191937552E-2,1.703176975E-2,2.824358832E-2
1.052826208E0,8.533444796E-3,-9.761789488E-3,7.453445792E-3,1.495546951E-2
1.062784208E0,-5.194903929E-3,-2.802248865E-2,1.323224902E-3,2.853064705E-2
1.072741208E0,-3.495520335E-3,-2.849313470E-2,1.300186872E-2,3.151390134E-2
1.082699208E0,2.991070077E-3,-2.951370223E-2,1.764631212E-2,3.451662572E-2
1.092657208E0,1.192044446E-2,-3.445410610E-2,7.616583109E-3,3.724506359E-2
1.102615208E0,-1.355457678E-2,-3.823840580E-2,1.778723001E-3,4.060869470E-2
1.112573208E0,-2.232540026E-3,-2.006494892E-2,8.665573597E-3,2.196994711E-2
1.122531208E0,1.126453305E-2,-1.064869333E-2,1.914436877E-2,2.463313277E-2
1.132488208E0,1.257334091E-2,-2.186532489E-2,2.258311629E-2,3.385525773E-2
1.142446208E0,-1.983777545E-2,-1.806143702E-2,2.647268414E-2,3.769026198E-2
1.152404208E0,-8.278012834E-3,-1.327453170E-2,2.153178692E-2,2.661496827E-2
1.162362208E0,2.542077005E-4,2.169682458E-3,1.494255960E-2,1.510139831E-2
1.172320208E0,-1.294920724E-2,5.094642453E-3,1.209671974E-2,1.843822059E-2
1.182278208E0,-1.077448156E-2,8.724548249E-3,3.230118871E-2,3.515073238E-2
1.192236208E0,-4.041504096E-3,1.358461685E-2,1.568457127E-2,2.113956826E-2
1.202193208E0,-1.032970944E-2,8.107191911E-3,2.751114964E-2,3.048430437E-2
1.212151208E0,-2.039468620E-2,-1.790344343E-3,1.239200413E-2,2.393136696E-2
1.222109208E0,-2.209966119E-2,-4.072028389E-3,2.272111058E-2,3.195661600E-2
1.232067208E0,-1.143035643E-2,-1.118470028E-2,4.757294655E-3,1.668479610E-2
1.242025208E0,8.548263833E-4,1.558319516E-3,-5.725593567E-3,5.995123815E-3
1.251983208E0,-1.297425890E-2,2.606853191E-3,-7.821235657E-3,1.537201369E-2
1.261941208E0,-1.457575645E-2,4.279211685E-3,-1.533724666E-3,1.526815772E-2
1.271898208E0,-1.419336682E-2,-5.136687588E-4,-4.853188992E-4,1.421094831E-2
1.281856208E0,9.269992970E-3,-3.516360177E-3,1.882686496E-2,2.127788530E-2
1.291814208E0,-9.063366987E-3,2.774120104E-3,1.358600557E-2,1.656562437E-2
1.301772542E0,-7.282341644E-3,-9.880542783E-3,-5.275942683E-3,1.336013461E-2
1.311730542E0,9.492589161E-3,-8.113861391E-3,-5.125669241E-3,1.349875849E-2
1.321688542E0,2.267774982E-2,-9.338971842E-3,9.993476272E-3,2.648332117E-2
1.331646542E0,1.250295505E-2,-1.221181853E-2,-1.833102107E-3,1.757306632E-2
1.341603542E0,6.689634975E-3,-2.571460177E-2,1.607399583E-3,2.661908514E-2
1.351561542E0,-8.668716475E-3,-2.135394934E-2,1.732588470E-2,2.883269114E-2
1.361519542E0,3.663646057E-4,-1.495155883E-2,6.399777532E-3,1.626777449E-2
1.371477542E0,3.523678333E-3,-2.706787588E-2,-7.820066214E-3,2.839435946E-2
1.381435542E0,1.134436581E-2,-2.076290547E-2,-8.717613816E-3,2.521487001E-2
1.391393542E0,1.110952701E-3,-1.499508404E-2,9.688836336E-3,1.788743444E-2
1.401351542E0,5.749859512E-3,-2.182891684E-2,-1.990392208E-3,2.266107137E-2
1.411308542E0,2.747314274E-3,-1.133192221E-2,2.796138525E-3,1.199077092E-2
1.421266542E0,2.202116232E-3,1.146290897E-2,1.267325521E-2,1.722959650E-2
1.431224542E0,7.353732493E-3,5.685275188E-3,2.015359819E-2,2.219385626E-2
1.441182542E0,9.341804087E-3,2.121263858E-2,3.684330583E-3,2.346954688E-2
1.451140542E0,-1.044698266E-2,1.008570696E-2,4.880086184E-3,1.531914400E-2
1.461098542E0,-6.651902162E-3,-6.842649300E-3,1.655229807E-2,1.910623519E-2
1.471056542E0,-1.101041671E-2,2.455637799E-2,2.897646189E-2,3.954592671E-2
1.481013542E0,-9.388088454E-3,8.402430620E-3,2.433552682E-2,2.740355654E-2
1.490971542E0,-3.537675105E-3,6.674715439E-3,2.388763011E-2,2.505365928E-2
1.500929542E0,5.848330278E-3,-1.222236179E-2,4.948849440E-2,5.130984479E-2
1.510887542E0,-7.123534922E-3,-1.327763803E-2,2.224807084E-2,2.687037546E-2
1.520845542E0,-6.386767477E-3,-3.372299401E-3,8.328189254E-3,1.102369894E-2
1.530803542E0,-9.784456585E-3,-4.754060414E-4,1.686220050E-2,1.950116425E-2
1.540761542E0,-1.352380581E-2,-2.560693991E-2,1.207216144E-2,3.137428528E-2
1.550718542E0,8.885154817E-3,-1.812455954E-2,2.180309772E-2,2.971229889E-2
1.560676542E0,-4.286136981E-3,-1.506874069E-2,1.791236043E-2,2.379686055E-2
1.570634542E0,1.858818892E-2,-2.153361417E-2,8.632829189E-3,2.972781604E-2
1.580592542E0,7.205615211E-3,-1.778867355E-2,8.932206631E-3,2.116936731E-2
1.590550542E0,1.477792393E-2,-2.652635976E-2,-7.685580254E-3,3.132256282E-2
1.600508542E0,5.980002265E-3,-5.461664870E-3,-2.400223553E-2,2.533174926E-2
1.610466542E0,-5.895034913E-3,-3.184860508E-2,-1.756503582E-2,3.684583512E-2
1.620423542E0,-7.708914299E-3,-2.241031280E-2,-1.382691085E-2,2.743780135E-2
1.630381542E0,6.733123641E-3,-2.772844680E-2,-4.548549056E-3,2.889448069E-2
1.640339542E0,6.468866039E-3,-1.898745325E-2,-1.023847461E-2,2.252101177E-2
1.650297542E0,3.968870714E-3,-7.797974702E-3,-1.294105768E-2,1.562150179E-2
1.660255542E0,1.215809723E-2,6.263555679E-4,-2.465770841E-3,1.242142003E-2
1.670213542E0,-5.295622218E-3,3.729874911E-3,9.202347994E-3,1.125339016E-2
1.680171542E0,-2.187936734E-3,1.613835175E-2,1.144417048E-2,1.990483615E-2
1.690128542E0,-6.813650765E-4,1.810644231E-2,6.802065969E-3,1.935395600E-2
1.700086542E0,-1.089065842E-2,2.785257222E-2,1.709725857E-3,2.995488913E-2
1.710044542E0,-1.288158054E-2,2.563710789E-2,2.430979908E-2,3.760535533E-2
1.720002542E0,3.407227378E-3,2.355993021E-2,3.778119922E-2,4.465533030E-2
1.729960542E0,-1.257169638E-3,2.190789993E-2,3.298882127E-2,3.962068757E-2
1.739918542E0,-1.695655994E-3,-6.002715044E-4,2.924777269E-2,2.930303368E-2
1.749876542E0,-8.489517588E-3,-1.096389480E-3,3.493828297E-2,3.597162209E-2
1.759833542E0,-2.205556953E-2,2.122703735E-3,2.580902517E-2,3.401558170E-2
1.769791542E0,-1.648514645E-2,-5.542429537E-4,2.012319267E-2,2.601941817E-2
1.779749542E0,-3.727508616E-3,-1.601975377E-2,3.180592954E-2,3.580703821E-2
1.789707542E0,-1.057823438E-2,-1.754042270E-2,3.974352479E-2,4.471144410E-2
1.799665542E0,-2.279098481E-3,-2.771159951E-2,3.136388004E-2,4.191443675E-2
1.809623542E0,1.686978361E-2,-2.423532017E-2,6.788617373E-4,2.953643844E-2
1.819581542E0,1.957713582E-2,-2.577767861E-2,1.040921330E-2,3.400153942E-2
1.829538542E0,6.829200704E-3,-3.917246195E-2,5.321550965E-3,4.011780979E-2
1.839496542E0,-1.341497451E-3,-2.213987907E-2,-4.556150436E-3,2.264359441E-2
1.849454542E0,-4.748761375E-3,-1.433712610E-2,1.969868481E-2,2.482220987E-2
1.859412542E0,5.585260391E-3,-1.713335599E-2,3.531718254E-3,1.836355235E-2
1.869370542E0,2.097504063E-2,-4.673377974E-3,8.946239948E-5,2.148955082E-2
1.879328542E0,-7.589740735E-3,8.295125077E-3,9.870100021E-4,1.128660503E-2
1.889286542E0,-4.938229434E-3,-2.538267178E-3,-6.431937218E-5,5.552751318E-3
1.899243542E0,-1.379979439E-2,-5.375445848E-3,-1.787786186E-2,2.321524688E-2
1.909201542E0,-6.121303886E-6,1.307921642E-2,4.576615691E-3,1.385681605E-2
1.919159542E0,-8.771134112E-3,8.361417884E-3,9.965994358E-3,1.568971466E-2
1.929117542E0,-1.482218005E-2,4.627797101E-4,-5.001708269E-3,1.565018441E-2
1.939075542E0,-1.119065713E-2,-4.837757824E-3,2.186273932E-3,1.238606077E-2
1.949033542E0,-3.454798132E-2,-1.334052301E-2,-1.292819381E-2,3.922589403E-2
1.958991542E0,-8.477567341E-3,1.355309671E-2,4.591233730E-3,1.663234817E-2
1.968949542E0,1.506754383E-4,-2.105034180E-3,1.447244346E-2,1.462550826E-2
1.978906542E0,-8.139744457E-3,-1.592201390E-2,1.791762292E-2,2.531416951E-2
1.988864542E0,-9.171156753E-3,7.095029745E-3,4.148599505E-3,1.231504938E-2
1.998822542E0,9.710014220E-3,1.340200100E-2,1.193709075E-2,2.040568898E-2
2.008780542E0,1.214722507E-2,-1.401089715E-2,8.796551228E-3,2.052412311E-2
2.018738542E0,-9.357463662E-3,-1.227131395E-2,1.373978734E-2,2.066226097E-2
2.028696542E0,5.116898417E-3,-1.375021183E-2,1.479228616E-2,2.083417156E-2
2.038654542E0,5.462816041E-3,6.636443585E-3,7.305511236E-3,1.128074630E-2
2.048611542E0,2.500492338E-2,3.648552932E-3,1.763286352E-2,3.081356857E-2
2.058569542E0,5.184671301E-3,-1.496303399E-2,1.793457985E-2,2.392534968E-2
2.068527542E0,-1.745947530E-2,-3.440565644E-2,8.356255889E-3,3.947669547E-2
2.078485542E0,5.757917706E-3,-2.552786546E-2,1.299543679E-2,2.921826327E-2
2.088443542E0,-1.918727271E-3,-1.412293528E-2,1.583484471E-2,2.130448597E-2
2.098401542E0,-1.355591068E-2,-1.102890853E-2,1.403741062E-2,2.241536157E-2
2.108359542E0,-1.277654992E-2,-2.332546600E-2,1.418300629E-2,3.014092333E-2
2.118316542E0,-2.247496108E-2,-5.382325463E-3,2.885016203E-2,3.696518838E-2
2.128274542E0,-8.375040069E-3,1.566797066E-2,1.282703698E-2,2.191254157E-2
2.138232542E0,5.078032706E-3,4.606875032E-4,9.680650234E-3,1.094137277E-2
2.148190542E0,-2.704136241E-3,-1.783035323E-4,1.282411337E-2,1.310732729E-2
2.158148542E0,-4.250012152E-4,1.564410671E-2,9.998738766E-5,1.565019802E-2
2.168106542E0,-2.735747751E-3,1.249731797E-2,4.589479566E-3,1.359156337E-2
2.178064542E0,1.122025866E-3,6.139695207E-3,-1.547757983E-3,6.430424096E-3
2.188021542E0,6.194394082E-3,1.717292519E-2,9.230414629E-3,2.045679427E-2
2.197979542E0,3.469317500E-3,7.148696221E-3,5.525618792E-4,7.965258703E-3
2.207937542E0,-1.647255667E-2,-2.771379221E-3,-1.540741324E-3,1.677496795E-2
2.217895542E0,9.316021521E-3,-1.148245146E-2,-1.575941563E-2,2.161004696E-2
2.227853542E0,3.608938046E-2,-3.328618873E-3,3.249297738E-3,3.638792411E-2
2.237811542E0,1.807922535E-2,-1.270814664E-2,-2.138911486E-3,2.220203420E-2
2.247769542E0,-2.347565722E-3,-2.987624788E-2,8.787780404E-3,3.123021512E-2
2.257727542E0,-2.247907240E-3,-1.607116358E-2,1.477299035E-2,2.194485429E-2
2.267684542E0,2.040932251E-2,-5.070997775E-4,2.345435143E-2,3.109508315E-2
2.277642542E0,1.015822157E-2,2.996889884E-3,1.642015100E-2,1.953950289E-2
2.287600542E0,2.983486969E-3,-1.228989713E-2,1.777085781E-2,2.181160593E-2
2.297558542E0,-2.773045678E-2,-1.571664873E-2,1.836727381E-2,3.678787881E-2
2.307515958E0,-1.296863096E-2,-1.549696701E-2,4.006687582E-2,4.487422326E-2
2.317473958E0,2.092515657E-2,-5.173333185E-3,3.811741412E-2,4.378998530E-2
2.327431958E0,5.106629245E-4,-8.768548546E-3,3.631998003E-2,3.736695290E-2
2.337388958E0,-3.368180769E-2,-1.354449947E-2,2.180192828E-2,4.234668478E-2
2.347346958E0,-3.705139361E-2,-1.211222400E-2,2.823795855E-2,4.813412555E-2
2.357304958E0,-3.858943060E-3,1.755760803E-2,1.192071855E-2,2.156999240E-2
2.367262958E0,3.152416684E-2,2.630589232E-3,3.687254190E-3,3.184790320E-2
2.377220958E0,-1.513327019E-2,-6.427049311E-3,3.168196857E-2,3.569411663E-2
2.387178958E0,-3.513845874E-2,-7.782278582E-4,2.285208821E-2,4.192296336E-2
2.397136958E0,-9.619181380E-3,6.436413992E-4,2.075527668E-2,2.288502643E-2
2.407093958E0,1.605798908E-2,4.275538903E-3,2.719130695E-2,3.186701146E-2
2.417051958E0,1.212030960E-2,5.266605411E-4,1.387251914E-2,1.842894634E-2
2.427009958E0,-1.609923022E-2,-2.376290169E-3,-6.330195665E-3,1.746148177E-2
2.436967958E0,-1.345974226E-2,-2.633360264E-2,1.328311980E-2,3.242012586E-2
2.446925958E0,1.333885107E-2,-1.083245122E-2,5.347278714E-3,1.799612005E-2
2.456883958E0,2.456351342E-2,-9.717981052E-4,-6.026140451E-3,2.531056996E-2
2.466841958E0,1.595778242E-3,-9.844628088E-3,-3.173868656E-3,1.046597595E-2
2.476799958E0,-5.736155100E-3,-9.480721140E-3,-9.456701875E-3,1.456766141E-2
2.486756958E0,6.157501806E-3,-6.412184592E-3,3.415943384E-3,9.523634229E-3
2.496714958E0,2.275480516E-4,-1.159418810E-2,2.064651847E-3,1.177878445E-2
2.506672958E0,1.089195577E-2,-1.504891497E-2,-5.119237304E-3,1.926943520E-2
2.516630958E0,-5.704708043E-3,-1.568987031E-2,-2.203172386E-2,2.764258635E-2
2.526588958E0,-7.097094543E-3,-2.386848047E-2,-1.005662620E-2,2.685533172E-2
2.536546958E0,8.116392139E-3,-1.926904237E-3,-1.155877590E-2,1.425461615E-2
2.546504958E0,8.789132573E-3,-4.272587886E-3,1.163595915E-4,9.773300271E-3
2.556461958E0,-9.223014247E-3,-3.427847950E-3,6.850013137E-3,1.198902887E-2
2.566419958E0,-4.130579118E-2,-1.269159171E-2,-6.176998615E-3,4.365088999E-2
2.576377958E0,-1.698608838E-2,-7.689097719E-3,1.642190516E-2,2.484609408E-2
2.586335958E0,2.119555375E-2,2.362361918E-2,1.851462364E-2,3.674395420E-2
2.596293958E0,1.268449282E-2,1.827338031E-2,1.222477376E-2,2.538223552E-2
2.606251958E0,-1.362077823E-2,-3.406003118E-3,2.674282551E-2,3.020438996E-2
2.616209958E0,-2.402109280E-2,-2.548703545E-2,1.716567099E-2,3.900336057E-2
2.626167958E0,-1.435648587E-2,-2.308636056E-3,2.524769247E-2,2.913562187E-2
2.636124958E0,3.381667737E-2,1.395691090E-2,2.180485189E-2,4.258890227E-2
2.646082958E0,1.218144955E-2,-2.942575646E-2,3.423310876E-2,4.675648181E-2
2.656040958E0,-1.845609667E-2,-3.789868257E-2,2.585054040E-2,4.944884310E-2
2.665998958E0,-6.033486016E-3,-1.606167099E-2,4.411197960E-2,4.733124732E-2
2.675956958E0,1.323500818E-2,-2.230319912E-2,3.483127892E-2,4.342598443E-2
2.685914958E0,2.129780693E-2,-6.198669858E-3,5.070179164E-2,5.534159163E-2
2.695872958E0,-1.642954309E-2,-1.725831281E-2,3.648253262E-2,4.357469947E-2
2.705829958E0,7.465231586E-3,-1.171696136E-2,2.091665983E-2,2.511022749E-2
2.715787958E0,-3.663097881E-4,-1.890433143E-2,2.794618249E-2,3.374162185E-2
2.725745958E0,1.189373000E-2,1.091261289E-2,3.692224324E-2,4.029637675E-2
2.735703958E0,7.322577797E-3,2.319161044E-3,2.539621174E-2,2.653236183E-2
2.745661958E0,-2.140174119E-2,-2.090516640E-2,5.936093330E-3,3.050078215E-2
2.755619958E0,-5.847179107E-3,1.062877625E-3,4.881840348E-3,7.691006277E-3
2.765577958E0,-6.254547313E-3,1.414834326E-2,4.280161858E-3,1.605038207E-2
2.775535958E0,8.830172718E-3,1.027154792E-2,-1.442858934E-2,1.979042287E-2
2.785492958E0,-1.771505345E-3,-1.626832439E-3,-1.577637255E-2,1.595865740E-2
2.795450958E0,-2.044986930E-2,-1.069536142E-2,-9.639135003E-3,2.501001467E-2
2.805408958E0,-1.164036283E-2,7.224700889E-3,-4.097728729E-3,1.429985072E-2
2.815366958E0,1.297345491E-2,-4.141966570E-3,1.139622331E-3,1.366620498E-2
2.825324958E0,-2.372699613E-2,2.055999795E-3,-4.548549056E-3,2.424637661E-2
2.835282958E0,-1.322400810E-2,8.983726082E-3,-6.344813704E-3,1.719995307E-2
2.845240958E0,-1.331813000E-3,7.321810350E-5,-8.039921522E-4,1.557398516E-3
2.855197958E0,1.667984046E-2,4.708625721E-3,9.825076461E-3,1.992286027E-2
2.865155958E0,1.196227033E-2,6.250792304E-3,6.981575489E-3,1.519574651E-2
2.875113958E0,-1.901752073E-2,-1.316750024E-2,2.438288927E-4,2.313241470E-2
2.885071958E0,-2.868583700E-2,-1.041662282E-2,5.036206841E-3,3.093132158E-2
2.895029958E0,1.007287050E-2,-3.496461371E-3,6.532509327E-3,1.250446481E-2
2.904987958E0,1.992882757E-2,-1.288283220E-2,1.267617881E-2,2.690373660E-2
2.914945958E0,1.154863464E-2,-2.404416190E-2,1.297964931E-2,2.966418681E-2
2.924903958E0,-1.376173267E-2,-1.633158395E-2,1.193241298E-2,2.446402256E-2
2.934860958E0,-2.303123228E-2,-2.175928015E-2,4.291856289E-2,5.334704278E-2
2.944818958E0,-3.448230978E-3,-2.408702016E-2,2.720183194E-2,3.649677380E-2
2.954776958E0,8.788620941E-3,-1.126688107E-2,2.496234834E-2,2.876284586E-2
2.964734958E0,1.324843850E-2,-1.250541271E-2,1.239434302E-2,2.203465926E-2
2.974692958E0,-1.060712328E-2,-1.596172015E-2,1.209730446E-2,2.266345847E-2
2.984650958E0,-1.266517874E-2,-9.122423865E-3,2.272169530E-2,2.756629839E-2
2.994608958E0,1.980850283E-2,-7.989397924E-4,2.212177098E-2,2.970501372E-2
3.004566958E0,3.336421251E-3,2.307272010E-2,2.436476290E-2,3.372126615E-2
3.014523958E0,-2.011844181E-3,-8.306234786E-3,9.996399879E-3,1.315177037E-2
3.024481958E0,-1.004761783E-2,-7.019143850E-3,-4.224028587E-3,1.296400486E-2
3.034439958E0,-4.253721479E-3,8.837755825E-3,1.029460788E-2,1.421896711E-2
3.044397958E0,1.803326989E-2,1.226607886E-2,1.757673025E-3,2.188024058E-2
3.054355958E0,4.705985337E-3,-3.259831863E-3,1.906777024E-3,6.033953960E-3
3.064313958E0,-1.939652994E-2,-2.960582329E-3,-3.030027151E-3,1.985375244E-2
3.074271958E0,-6.184764449E-3,-5.019158553E-3,-2.430687547E-3,8.327755149E-3
3.084229958E0,1.447898503E-3,-7.530290997E-3,-4.824537635E-3,9.059682994E-3
3.094186958E0,1.647606499E-2,-1.421208705E-2,2.811926007E-3,2.193971431E-2
3.104144958E0,-3.803303149E-3,-1.726824394E-2,1.329247534E-2,2.212119492E-2
3.114102958E0,-2.152102439E-2,-1.643357218E-2,1.104655981E-2,2.924454255E-2
3.124060958E0,-1.809292976E-3,-8.952735839E-3,1.914378405E-3,9.332195066E-3
3.134018958E0,1.747758340E-2,7.662319299E-4,2.481967628E-2,3.036559506E-2
3.143976958E0,4.495631754E-3,-4.088875679E-3,2.137683570E-2,2.222383212E-2
3.153934958E0,-9.366782662E-3,-2.987686914E-2,6.857029796E-3,3.205281243E-2
3.163891958E0,-4.903803952E-3,-1.440223119E-2,2.302224219E-2,2.759520233E-2
3.173849958E0,4.861046188E-4,-4.002684066E-3,2.062605321E-2,2.101646613E-2
3.183807958E0,6.460186578E-3,-7.358748307E-3,4.622165501E-2,4.724750342E-2
3.193765958E0,-2.981732804E-3,-1.320389003E-2,3.694212377E-2,3.934404594E-2
3.203723958E0,-1.080459472E-2,-1.468822399E-2,2.826076269E-2,3.363263146E-2
3.213681958E0,-6.088029575E-3,-1.707069942E-2,3.843784153E-2,4.249635919E-2
3.223639958E0,-9.456811510E-3,-2.168657368E-2,2.002437472E-2,3.099539232E-2
3.233597958E0,1.421796167E-2,-1.932147545E-2,2.809587121E-3,2.415292172E-2
3.243554958E0,1.124196645E-2,-1.602528121E-2,1.029402316E-2,2.211692475E-2
3.253512958E0,-4.022080377E-3,-1.899404964E-2,1.149445653E-2,2.256265905E-2
3.263470958E0,-1.088766173E-2,5.661648782E-3,1.224348485E-2,1.733488870E-2
3.273428958E0,-1.538530346E-3,4.174930248E-3,4.463179708E-3,6.302149737E-3
3.283386958E0,-1.250145670E-2,1.459930977E-3,4.166141152E-3,1.325799948E-2
3.293344958E0,-1.212869670E-2,9.605741920E-3,8.205397725E-3,1.751296986E-2
3.303302667E0,-1.368478697E-2,2.047413524E-2,3.415943384E-3,2.486226614E-2
3.313260667E0,1.585245945E-2,1.088593497E-2,9.551426768E-3,2.147169774E-2
3.323217667E0,6.541590784E-3,8.678857740E-3,-8.711766601E-3,1.392874219E-2
3.333175667E0,-5.214071833E-4,7.928559473E-3,-1.529046893E-3,8.091471137E-3
3.343133667E0,-2.082613762E-3,-7.025849875E-3,-3.473246098E-3,8.109456517E-3
3.353091667E0,1.950377153E-2,6.796109118E-4,-6.315577626E-3,2.051208170E-2
3.363049667E0,-1.658411058E-2,-9.322965089E-3,-3.621765375E-3,1.936666172E-2
3.373007667E0,-1.423630731E-2,-1.599304844E-2,2.515472174E-3,2.155870229E-2
3.382965667E0,2.171434795E-2,-1.214588203E-2,-2.689719200E-5,2.488043571E-2
3.392923667E0,3.010464560E-2,-5.343240481E-3,-6.016200185E-3,3.116142760E-2
3.402880667E0,9.659052081E-4,-3.516734764E-3,3.865594268E-3,5.314434619E-3
3.412838667E0,1.072598621E-5,-9.768778738E-3,1.773460507E-3,9.928459863E-3
3.422796667E0,5.967942383E-3,-5.462331818E-3,8.658556938E-3,1.185006386E-2
3.432754667E0,1.102976734E-2,-6.776237721E-3,1.569334209E-2,2.034340559E-2
3.442712667E0,1.257827450E-2,-8.732259264E-3,1.120501935E-2,1.897413502E-2
3.452670667E0,-8.691886067E-4,-1.825257702E-2,7.311358452E-3,1.968166708E-2
3.462628667E0,-7.489369623E-3,1.642592512E-3,2.556987405E-2,2.669470409E-2
3.472586667E0,2.596510928E-3,1.854787968E-2,2.811282814E-2,3.378012456E-2
3.482543667E0,-9.706377983E-4,-1.438095281E-3,3.006287456E-2,3.011289894E-2
3.492501667E0,-1.348134041E-2,-1.603455453E-2,9.857236147E-3,2.315207513E-2
3.502459667E0,-8.998481166E-3,3.458363106E-3,2.221357226E-3,9.892793670E-3
3.512417667E0,-2.390963025E-4,-7.271341570E-3,2.946236551E-2,3.034733195E-2
3.522375667E0,-6.059305128E-3,-8.192680031E-3,3.275317848E-2,3.430168925E-2
3.532333667E0,-4.700996932E-3,-5.159336412E-3,2.077457249E-2,2.191577027E-2
3.542291667E0,4.248641711E-3,4.046638682E-4,1.942971289E-2,1.989292468E-2
3.552249667E0,-4.379564524E-4,1.194202434E-3,1.688851297E-2,1.693634540E-2
3.562206667E0,5.125925057E-3,5.738822892E-3,7.758670449E-3,1.092731271E-2
3.572164667E0,-4.641355332E-3,4.850859242E-3,2.527283549E-2,2.614936383E-2
3.582122667E0,-7.198763005E-3,-1.918005506E-3,2.812042952E-2,2.909053953E-2
3.592080667E0,-5.501992386E-3,1.085148208E-2,-4.695314169E-4,1.217567424E-2
3.602038667E0,-1.831859574E-3,5.413096435E-3,-1.219144464E-3,5.843255577E-3
3.611996667E0,-6.654679589E-4,-1.389022524E-2,-2.267550230E-3,1.408981862E-2
3.621954667E0,2.914453279E-3,1.147972886E-4,-6.909070015E-3,7.499497637E-3
3.631912667E0,-8.770622481E-3,-5.356972301E-3,2.794969082E-4,1.028100625E-2
3.641869667E0,-2.682940084E-3,-2.036538617E-2,-2.247201920E-2,3.044566912E-2
3.651827667E0,1.527183093E-2,-3.040827141E-2,-3.159250617E-3,3.417415185E-2
3.661785667E0,8.512486182E-3,-9.309050543E-3,4.926863909E-3,1.354233477E-2
3.671743667E0,-1.207614485E-3,-1.427782254E-2,-5.847215652E-3,1.547593229E-2
3.681701667E0,-2.311473783E-2,-2.686232798E-2,-7.794338465E-3,3.628536181E-2
3.691659667E0,-1.410640776E-3,-2.210199094E-2,-5.250799656E-3,2.276090526E-2
3.701617667E0,8.301109336E-3,2.632526122E-3,1.495834708E-2,1.730869023E-2
3.711575667E0,6.073393263E-3,-6.633949382E-3,5.827335119E-3,1.071695968E-2
3.721532667E0,-2.860695440E-3,-1.060205265E-2,-2.854610682E-3,1.134618442E-2
3.731490667E0,-1.340514388E-2,-9.772067796E-3,1.151667595E-2,2.019467792E-2
3.741448667E0,1.207959836E-2,9.338807389E-3,2.214399040E-2,2.689770122E-2
3.751406667E0,1.951225000E-2,-1.326645523E-2,-1.205695868E-3,2.362584256E-2
3.761364667E0,-1.092844605E-2,-1.836986851E-2,5.830258727E-3,2.215569721E-2
3.771322667E0,-1.982809100E-2,-7.520524319E-4,2.199722528E-2,2.962425857E-2
3.781280667E0,-2.038083561E-3,-1.016697412E-2,4.190524042E-2,4.316908989E-2
3.791238667E0,3.826454468E-3,2.042125449E-2,2.828356683E-2,3.509457994E-2
3.801195667E0,-5.478219800E-3,-1.341306503E-2,1.555944085E-2,2.126070096E-2
3.811153667E0,-1.527135585E-2,1.003811611E-3,1.885200799E-2,2.428209530E-2
3.821111667E0,-1.423287207E-2,1.855947361E-2,4.190640986E-2,4.799141481E-2
3.831069667E0,-1.324573416E-2,-7.223229948E-4,2.978337765E-2,3.260399988E-2
3.841027667E0,-6.976422630E-3,3.114455463E-3,3.038388669E-2,3.132971235E-2
3.850985667E0,1.165697258E-2,4.891698388E-3,3.023887575E-2,3.277504126E-2
3.860943667E0,1.742214449E-3,9.422943341E-3,1.841522098E-2,2.075927590E-2
3.870901667E0,-3.265432399E-3,-9.277146673E-3,8.236387968E-3,1.282835086E-2
3.880859667E0,-4.835592527E-3,-1.173947314E-3,1.317436159E-2,1.408278774E-2
3.890816667E0,3.840688784E-3,-4.094320899E-3,3.563468635E-2,3.607416285E-2
3.900774667E0,1.405370973E-2,-1.017444760E-2,1.887130380E-2,2.563498095E-2
3.910732667E0,7.562697362E-3,-1.154434972E-2,9.440329671E-3,1.672083210E-2
3.920690667E0,-7.630817425E-3,-2.750155656E-2,1.587928355E-2,3.266062819E-2
3.930648667E0,2.256290685E-2,-6.535697887E-3,1.058930755E-3,2.351428176E-2
3.940606667E0,3.143508816E-2,-2.760132467E-3,-4.177835584E-3,3.183139031E-2
3.950564667E0,5.588439815E-3,-1.729864033E-2,-5.858910084E-4,1.818837225E-2
3.960522667E0,-1.798952540E-2,-2.215479861E-2,-1.016655385E-2,3.029549377E-2
3.970479667E0,2.143315170E-3,-1.342643140E-2,-7.474495769E-3,1.551550666E-2
3.980437667E0,2.268058207E-2,-1.070016710E-2,-1.496477902E-2,2.920354414E-2
3.990395667E0,1.880024185E-2,-2.013926337E-2,6.436614990E-3,2.829256149E-2
4.000353667E0,-6.251221709E-4,-2.476389019E-2,-2.998452187E-3,2.495259006E-2
4.010311667E0,-1.287551405E-2,-1.196268146E-2,-1.901339114E-2,2.589196115E-2
4.020269667E0,5.748964157E-3,3.160575377E-3,-4.347404838E-3,7.870181346E-3
4.030227667E0,-4.723691437E-3,-4.793099714E-3,-4.650875330E-3,8.180324383E-3
4.040185667E0,-1.183695719E-2,-1.172172136E-2,-6.092798710E-4,1.666983890E-2
4.050142667E0,-1.415313067E-2,-9.018124156E-3,9.866006970E-3,1.946729988E-2
4.060100667E0,-9.058305491E-3,2.246344937E-3,-2.413730621E-3,9.639764492E-3
4.070058667E0,7.091320418E-3,5.885761594E-3,-6.157118082E-3,1.108328101E-2
4.080016667E0,-4.313015901E-3,2.676215786E-3,1.809128523E-2,1.878985999E-2
4.089974667E0,-2.233311128E-2,6.189396540E-3,1.345210433E-2,2.679618629E-2
4.099932667E0,-1.068149256E-2,-3.546190113E-3,1.809479356E-2,2.130941814E-2
4.109890667E0,-8.199897688E-3,-1.923631623E-2,2.438347399E-2,3.212207945E-2
4.119848667E0,4.956684709E-3,2.340000886E-3,2.288892567E-2,2.353608391E-2
4.129806667E0,1.223001799E-2,4.281568844E-3,1.181371450E-2,1.753479461E-2
4.139763667E0,2.901041228E-3,2.639487963E-3,3.861033440E-2,3.880903064E-2
4.149721667E0,5.484231468E-3,-2.351019233E-3,3.321978629E-2,3.375141904E-2
4.159679667E0,1.014804376E-2,-6.040027589E-3,1.959928215E-2,2.288223298E-2
4.169637667E0,1.842998520E-2,-2.840513410E-3,1.690722406E-2,2.517115603E-2
4.179595667E0,6.402134690E-3,-9.848383097E-3,1.645991206E-2,2.022144118E-2
4.189553667E0,-1.556035448E-3,-2.135444270E-2,2.987342477E-3,2.161845703E-2
4.199511667E0,2.587740105E-3,-1.467304864E-2,3.352325678E-2,3.668519457E-2
4.209469667E0,2.708084939E-2,-1.742314948E-3,3.966049433E-2,4.805583082E-2
4.219426667E0,1.209136588E-2,-1.353145287E-2,1.601026118E-2,2.419978944E-2
4.229384667E0,-1.126281543E-2,-1.863274653E-2,2.541784644E-3,2.192010319E-2
4.239342667E0,-2.270382475E-3,-1.504562591E-2,8.825787306E-3,1.759033875E-2
4.249300667E0,2.898258319E-2,5.055922922E-4,1.555827141E-2,3.289841275E-2
4.259258667E0,1.619019097E-2,8.505981155E-3,8.822863698E-3,2.030558846E-2
4.269216667E0,-1.671828590E-3,-5.133325439E-3,-3.750404119E-3,6.573550940E-3
4.279174667E0,-2.611240430E-2,-3.930489225E-3,7.026599050E-3,2.732543683E-2
4.289132667E0,-2.750968784E-3,2.816256601E-3,1.780126333E-2,1.823140441E-2
4.299089667E0,2.599452808E-3,1.897620650E-2,-3.156327009E-3,1.941174820E-2
4.309047958E0,2.414534613E-3,1.020543784E-2,2.234221101E-3,1.072253155E-2
4.319005958E0,-1.456563346E-2,6.898161303E-4,-4.352667332E-3,1.521772773E-2
4.328963958E0,-2.063369114E-2,3.602606608E-3,6.424335837E-3,2.190890402E-2
4.338921958E0,-3.180465046E-3,2.310705422E-2,1.256449699E-2,2.649373317E-2
4.348879958E0,-7.142775916E-3,9.756079316E-4,1.421107292E-2,1.593504478E-2
4.358837958E0,-4.252424128E-3,-2.339068986E-4,1.795621455E-2,1.845436166E-2
4.368795958E0,-2.261547698E-2,-8.510805108E-4,1.641313434E-3,2.269092433E-2
4.378753958E0,-5.291090626E-3,2.285530418E-4,1.631256223E-2,1.715073068E-2
4.388710958E0,5.600115974E-3,-5.815613279E-3,1.721361816E-2,1.901292473E-2
4.398668958E0,2.783932462E-3,-7.555744657E-3,1.032969117E-2,1.309740726E-2
4.408626958E0,1.155384231E-2,-2.262174446E-2,2.215802372E-2,3.370775296E-2
4.418584958E0,6.783099063E-3,7.367336405E-3,-5.934923887E-4,1.003196450E-2
4.428542958E0,4.378643587E-2,2.390032953E-2,-1.341935992E-3,4.990269041E-2
4.438500958E0,8.277884927E-3,-8.124523424E-3,3.742685795E-2,3.918291663E-2
4.448458958E0,1.110676786E-2,-2.832193005E-2,3.338467777E-2,4.516667714E-2
4.458416958E0,-5.042419508E-3,-3.100771151E-2,2.844553471E-2,4.237986093E-2
4.468373958E0,-4.327394569E-2,-3.255400769E-2,2.275794804E-2,5.873944153E-2
4.478331958E0,-2.360690894E-2,-3.080195348E-2,1.258203864E-2,4.079649720E-2
4.488289958E0,1.060659338E-2,-1.072807842E-2,-2.005010247E-2,2.509179346E-2
4.498247958E0,1.280224113E-2,-1.155905913E-2,-5.232673287E-3,1.802470792E-2
4.508205958E0,1.040501062E-2,-7.570719011E-3,-1.107287228E-2,1.697611654E-2
4.518163958E0,-4.275685083E-3,6.827994715E-3,1.422686040E-2,1.634951228E-2
4.528121958E0,3.506471073E-2,1.100333610E-2,-2.392680645E-3,3.682841654E-2
4.538079958E0,2.996515296E-3,-2.552026408E-3,-1.167630494E-2,1.232185212E-2
4.548037958E0,-3.239275245E-2,-1.502224619E-2,8.382568359E-3,3.667731920E-2
4.557994958E0,-2.510048881E-2,-8.458353756E-3,-1.631840944E-2,3.111058941E-2
4.567952958E0,-4.255567007E-3,3.166965287E-2,-6.740670204E-3,3.265751672E-2
4.577910958E0,2.173399094E-2,2.328424313E-2,-5.246706605E-3,3.228080344E-2
4.587868958E0,2.191441409E-2,4.680531677E-3,1.106468618E-2,2.499152260E-2
4.597826958E0,4.001487214E-3,2.642840976E-3,2.408818960E-2,2.456089141E-2
4.607784958E0,-3.034723196E-3,-4.455331648E-3,2.138969958E-2,2.205853062E-2
4.617742958E0,3.537819458E-2,-5.715178214E-3,1.719783068E-2,3.974978357E-2
4.627700958E0,-2.026168032E-2,-1.737500131E-2,3.321861684E-2,4.261341179E-2
4.637658958E0,-3.070217622E-2,-4.042578522E-2,1.136464834E-2,5.201944797E-2
4.647615958E0,-1.283843905E-2,-1.793865463E-2,3.280872703E-3,2.230212933E-2
4.657573958E0,1.298889522E-2,3.669602908E-3,-1.079045177E-2,1.728037134E-2
4.667531958E0,3.651829200E-2,1.277232897E-3,-1.061269641E-3,3.655602916E-2
4.677489958E0,1.691297991E-2,1.161967831E-2,6.123204231E-3,2.141400111E-2
4.687447958E0,-1.150626060E-2,-1.631385958E-2,1.809654772E-2,2.694477847E-2
4.697405958E0,-3.524701595E-3,-1.859257434E-2,2.974478602E-3,1.915606600E-2
4.707363958E0,1.304605175E-3,-1.312651492E-2,1.854561388E-2,2.275845300E-2
4.717321958E0,-1.762023719E-2,-2.121747167E-2,1.570445180E-2,3.173773257E-2
4.727278958E0,-7.043884881E-4,-1.317967890E-2,2.304446161E-2,2.655649280E-2
4.737236958E0,2.094956869E-2,7.418079274E-3,2.050209224E-2,3.023653609E-2
4.747194958E0,4.295768442E-2,1.741796007E-2,1.750714839E-2,4.955046143E-2
4.757152958E0,1.914093353E-2,2.195493347E-2,1.675928950E-2,3.360458636E-2
4.767110958E0,2.417913208E-2,-1.541788341E-2,1.451571286E-2,3.214105594E-2
4.777068958E0,9.695761632E-3,-8.091705926E-3,2.110143185E-2,2.459174505E-2
4.787026958E0,-3.181022359E-2,-9.965455318E-3,2.544065058E-2,4.193360617E-2
4.796984958E0,-2.305432878E-2,7.460727403E-3,1.211893916E-2,2.709304736E-2
4.806942958E0,-8.915487248E-3,1.248919582E-2,8.977814913E-3,1.777827567E-2
4.816900958E0,-9.752644077E-3,9.686004091E-3,9.277777076E-3,1.658342212E-2
4.826857958E0,-1.357741747E-3,3.281055428E-3,2.035006464E-2,2.065753901E-2
4.836815958E0,-1.135602370E-2,4.748395924E-3,1.406255364E-2,1.868855139E-2
4.846773958E0,-1.062473802E-2,3.644916695E-4,2.533598542E-3,1.092872516E-2
4.856731958E0,-2.084596334E-2,-1.904948856E-2,7.349950075E-4,2.824849411E-2
4.866689958E0,-3.465169631E-3,-7.118765786E-3,3.729354143E-3,8.751703218E-3
4.876647958E0,-1.503501870E-3,-5.971743073E-4,-1.108573616E-2,1.120315496E-2
4.886605958E0,8.582049776E-3,4.095892338E-3,-1.138277471E-2,1.483224435E-2
4.896563958E0,-4.269856140E-3,5.064922152E-3,-3.099082768E-2,3.169095310E-2
4.906520958E0,4.392008130E-3,-5.492006438E-3,-3.024355352E-2,3.105035265E-2
4.916478958E0,1.718112957E-2,-4.493831908E-3,-9.584755898E-3,2.018051744E-2
4.926436958E0,2.199954590E-2,2.482700357E-3,1.780652583E-2,2.841155017E-2
4.936394958E0,1.850203386E-2,-3.371349229E-3,2.989681363E-3,1.904283191E-2
4.946352958E0,6.369810551E-5,-1.300714036E-2,2.050326169E-2,2.428113460E-2
4.956310958E0,-3.106077500E-3,-2.069233689E-2,1.601260006E-2,2.634812866E-2
4.966268958E0,-1.318656765E-3,-1.232741981E-2,1.047411740E-2,1.622994979E-2
4.976226958E0,-4.892328791E-3,2.953063175E-3,1.421516597E-2,1.532078349E-2
4.986184958E0,5.714228041E-3,-1.417456437E-3,1.945427120E-2,2.032560584E-2
4.996141958E0,-3.529160097E-4,-2.543227262E-2,1.795972288E-2,3.113642057E-2
5.006099958E0,6.013404485E-3,-2.134962788E-2,3.038154781E-2,3.761656671E-2
5.016057958E0,1.214177985E-2,-1.822769894E-2,2.843442500E-2,3.589134090E-2
5.026015958E0,-2.364939261E-2,-2.097772669E-2,2.214925289E-2,3.859984704E-2
5.035973958E0,-4.157262521E-2,-1.300355894E-2,2.873555660E-2,5.218340661E-2
5.045931958E0,-4.882479887E-3,-2.308453331E-3,3.412376583E-2,3.454850157E-2
5.055889958E0,2.073577987E-2,1.481838849E-2,3.906641722E-2,4.664485136E-2
5.065847958E0,2.887086483E-2,1.239491860E-2,4.205726802E-2,5.249737743E-2
5.075805958E0,1.268524200E-2,-7.670953078E-3,3.412142694E-2,3.720256257E-2
5.085762958E0,8.007286750E-3,3.446294088E-3,2.992897332E-2,3.117269683E-2
5.095720958E0,1.845984254E-2,1.411971018E-2,3.322095573E-2,4.054335829E-2
5.105678958E0,1.859336006E-2,-1.158485083E-2,2.514010370E-2,3.334586362E-2
5.115636958E0,-1.211283613E-2,-1.692296586E-2,1.601143062E-2,2.625782708E-2
5.125594958E0,-1.146434337E-2,-8.976270882E-3,-3.600130677E-3,1.499885158E-2
5.135552958E0,9.979278501E-3,8.824864542E-3,1.789832711E-3,1.344126983E-2
5.145510958E0,3.043106642E-2,1.171564573E-2,1.122022212E-2,3.448477262E-2
5.155468958E0,6.720460765E-4,-1.403130759E-3,1.122139156E-2,1.132872678E-2
5.165426958E0,-4.619605517E-2,-3.231221619E-2,-1.272938848E-2,5.779439557E-2
5.175383958E0,-8.749609049E-3,5.947531946E-4,-4.947913885E-3,1.006932181E-2
5.185341958E0,3.958627123E-2,-2.559015658E-3,-2.186449349E-2,4.529544687E-2
5.195299958E0,1.424286716E-2,-1.110947220E-2,-1.228675425E-2,2.184591420E-2
5.205257958E0,-3.137796817E-2,-2.018420471E-2,-3.429099619E-2,5.067397188E-2
5.215215958E0,-2.516656235E-2,-1.328235235E-2,-1.213706553E-2,3.093679208E-2
5.225173958E0,2.671947319E-2,1.647420119E-2,-7.201430798E-3,3.220543678E-2
5.235131958E0,4.772776986E-2,1.952205322E-2,-1.843042374E-2,5.476067107E-2
5.245089958E0,9.189758208E-3,-8.127355669E-3,6.272308230E-3,1.377851286E-2
5.255047958E0,-1.667452315E-2,-9.136484591E-3,1.181429923E-2,2.238510083E-2
5.265004958E0,-5.325534381E-3,-6.118572140E-3,2.034714103E-2,2.190443767E-2
5.274962958E0,3.881531585E-2,1.619269431E-2,2.364614010E-2,4.824906253E-2
5.284920958E0,6.824358478E-3,1.487021858E-2,2.439809203E-2,2.937621766E-2
5.294878958E0,-2.884870023E-2,6.328441501E-3,-8.529333472E-3,3.074160383E-2
5.304836792E0,-4.766116641E-2,-1.891406156E-2,2.845839858E-3,5.135588879E-2
5.314794792E0,-7.283675540E-3,1.233159509E-3,2.888699949E-2,2.981662877E-2
5.324752792E0,2.911224520E-2,1.634606495E-2,5.283777952E-2,6.250238079E-2
5.334710792E0,1.340505252E-2,8.225753345E-4,7.214879394E-2,7.338814979E-2
5.344668792E0,-2.019997392E-2,-2.918551812E-2,4.849739134E-2,6.009850565E-2
5.354625792E0,-2.303181700E-3,-5.868384400E-3,4.670346558E-2,4.712702281E-2
5.364583792E0,3.450160559E-2,1.248711275E-2,3.278533816E-2,4.920535715E-2
5.374541792E0,1.770396201E-2,2.440901902E-2,1.527818978E-2,3.380315907E-2
5.384499792E0,-1.901598584E-2,-5.680359872E-3,2.291933119E-2,3.031781569E-2
5.394457792E0,-1.723879773E-2,-1.996370072E-2,2.980793595E-2,3.980249414E-2
5.404415792E0,-1.290041953E-3,-2.031654364E-2,7.951043844E-3,2.185509671E-2
5.414373792E0,4.457009068E-2,-4.353023646E-3,2.022551894E-2,4.913769850E-2
5.424331792E0,1.612347789E-2,-1.782255085E-2,7.952213287E-3,2.531496700E-2
5.434289792E0,-1.584979165E-2,-2.736541693E-2,2.564588785E-3,3.172789080E-2
5.444246792E0,-2.439476643E-2,-2.926460171E-2,6.903222799E-3,3.871919456E-2
5.454204792E0,1.939954491E-2,-1.032366123E-2,-4.474874139E-3,2.242643134E-2
5.464162792E0,3.652010098E-2,-1.197206441E-2,-1.270658433E-2,4.047845584E-2
5.474120792E0,-4.236490466E-4,-1.332038666E-2,1.578748226E-5,1.332713130E-2
5.484078792E0,-1.496216604E-2,-3.746461817E-2,-1.435432971E-2,4.281951434E-2
5.494036792E0,2.974113151E-3,-1.521990948E-2,-2.034480214E-2,2.558128159E-2
5.503994792E0,2.182467761E-2,-1.311274655E-3,-2.259305656E-2,3.144013674E-2
5.513952792E0,-9.937982541E-3,3.349184627E-3,-1.945251703E-2,2.209934283E-2
5.523910792E0,-2.275162574E-2,4.852156593E-3,-2.088625431E-3,2.335684597E-2
5.533867792E0,-2.515216358E-2,4.674108876E-3,-2.240068316E-3,2.568066457E-2
5.543825792E0,9.464668706E-3,1.609925763E-2,-1.915781736E-2,2.675421492E-2
5.553783792E0,-1.141321678E-3,2.547234432E-2,-4.336295128E-3,2.586399806E-2
5.563741792E0,-6.978231613E-3,1.088383363E-2,-1.571205318E-2,2.034753464E-2
5.573699792E0,-2.506056329E-2,2.389208861E-3,-8.680776358E-3,2.662885709E-2
5.583657792E0,-2.448136004E-2,-5.585196437E-3,4.037502408E-3,2.543290849E-2
5.593615792E0,1.274190517E-2,8.986549191E-3,-1.602663338E-2,2.235994614E-2
5.603573792E0,2.260314301E-2,5.724204853E-3,-5.699281096E-3,2.400313313E-2
5.613531792E0,6.869747490E-4,-5.644399496E-3,3.142410636E-2,3.193439588E-2
5.623488792E0,4.304774981E-3,-3.840871509E-3,1.510511220E-2,1.616934742E-2
5.633446792E0,1.436441615E-3,-5.574497860E-3,4.609126210E-2,4.644935773E-2
5.643404792E0,1.658973852E-2,3.428350445E-3,7.438184559E-2,7.628651234E-2
5.653362792E0,1.732495280E-2,-5.328640714E-3,5.522227407E-2,5.812097689E-2
5.663320792E0,-6.535359845E-3,-2.083054131E-2,4.878799796E-2,5.344989359E-2
5.673278792E0,-3.527720220E-2,-2.189128105E-2,5.762021720E-2,7.101970580E-2
5.683236792E0,-1.045639303E-2,-1.327340794E-2,4.699056387E-2,4.993628547E-2
5.693194792E0,1.065395582E-2,-9.228852326E-3,4.010956049E-2,4.251417802E-2
5.703152792E0,5.790278390E-3,-8.421187392E-3,4.235606074E-2,4.357154579E-2
5.713109792E0,-3.840230143E-2,-1.108889731E-2,3.727015257E-2,5.465130072E-2
5.723067792E0,-2.951274293E-2,-1.078066682E-2,3.218015134E-2,4.497540342E-2
5.733025792E0,1.037840579E-2,4.224266130E-3,1.391754270E-2,1.786767264E-2
5.742983792E0,-2.999000363E-3,-7.032976169E-3,1.901105225E-2,2.049089712E-2
5.752941792E0,-1.637249619E-2,-2.472465903E-2,-2.690303922E-3,2.977591528E-2
5.762899792E0,-9.072046448E-3,4.772981638E-3,-5.082984567E-3,1.144203271E-2
5.772857792E0,1.586053591E-2,-1.854581488E-3,8.688962460E-3,1.817949781E-2
5.782815792E0,3.636299361E-2,1.325003735E-2,-8.225862980E-3,3.956634448E-2
5.792773792E0,6.149132978E-3,2.212049190E-2,-1.570737541E-2,2.781815307E-2
5.802731792E0,2.159309132E-2,1.157949697E-3,-2.384494543E-3,2.175518914E-2
5.812688792E0,3.180666044E-2,8.471619627E-3,-1.496010125E-2,3.615572731E-2
5.822646792E0,2.760691607E-2,2.762552666E-2,3.600715399E-3,3.922087059E-2
5.832604792E0,1.235151216E-3,1.337202488E-2,-5.827919841E-3,1.463903336E-2
5.842562792E0,-2.747350819E-2,-1.919426196E-2,-1.271418571E-2,3.584499774E-2
5.852520792E0,-2.461995732E-2,-3.385044504E-3,-2.379290521E-2,3.440498747E-2
5.862478792E0,1.571786385E-3,1.439002513E-2,-3.322621822E-2,3.624258425E-2
5.872436792E0,2.645214580E-2,2.985038308E-2,-7.925316095E-3,4.066413682E-2
5.882394792E0,7.166493684E-4,1.414987816E-2,1.632308722E-2,2.161425026E-2
5.892352792E0,4.685008451E-3,-8.543741377E-3,1.601961672E-2,1.875027842E-2
5.902309792E0,2.411196219E-2,8.013124829E-3,2.395311892E-2,3.491917519E-2
5.912267792E0,2.590194108E-2,4.473905694E-3,2.934776008E-2,3.939819039E-2
5.922225792E0,1.015982956E-2,-1.187458036E-2,1.872278452E-2,2.438791618E-2
5.932183792E0,-1.611923866E-2,-3.541331442E-2,2.995119274E-2,4.910200240E-2
5.942141792E0,-4.138494786E-3,1.308493573E-2,7.048818469E-3,1.542817306E-2
5.952099792E0,3.894422868E-2,1.830114545E-3,3.923364758E-2,5.531077083E-2
5.962057792E0,3.352910399E-2,3.111084178E-4,2.801167130E-2,4.369154761E-2
5.972015792E0,2.969819102E-3,6.015496692E-3,1.873330951E-2,1.989831428E-2
5.981973792E0,-1.695484232E-2,-8.608243475E-3,1.199790180E-2,2.248373148E-2
5.991931792E0,-2.830554871E-2,1.826341264E-5,1.079863787E-2,3.029546172E-2
6.001888792E0,-6.536876466E-3,-1.530997488E-2,8.255683780E-3,1.858177600E-2
6.011846792E0,-2.882487282E-2,-2.984407905E-2,7.658683062E-3,4.219239000E-2
6.021804792E0,-1.559843447E-2,-1.768951756E-2,2.757020652E-2,3.628148946E-2
6.031762792E0,-9.312915187E-3,-1.506207121E-2,3.999203146E-2,4.373738628E-2
6.041720792E0,9.806785639E-3,5.673845708E-3,3.504879534E-2,3.683454390E-2
6.051678792E0,-4.799997602E-3,-2.155826384E-2,2.382506490E-2,3.248741963E-2
6.061636792E0,-2.579252506E-2,-2.260576512E-2,3.925001979E-2,5.212330591E-2
6.071594792E0,-1.806440631E-2,-2.846622837E-2,3.072185576E-2,4.561229389E-2
6.081552792E0,6.791138984E-3,-1.136221809E-2,5.725008845E-3,1.442204198E-2
6.091509792E0,9.517567735E-3,-5.853839451E-3,1.066882968E-2,1.544912485E-2
6.101467792E0,5.378415138E-3,2.402365096E-3,8.426422477E-3,1.028121117E-2
6.111425792E0,3.250302728E-3,-8.365446981E-4,1.246684849E-2,1.291071594E-2
6.121383792E0,3.063831367E-3,5.110311164E-3,1.426252842E-2,1.545710386E-2
6.131341792E0,1.550738236E-2,4.242529543E-3,-5.795760155E-3,1.709002049E-2
6.141299792E0,2.171800246E-2,6.439100057E-3,-1.896778286E-2,2.954505757E-2
6.151257792E0,1.846733429E-2,5.685512731E-3,-7.894910574E-3,2.087335870E-2
6.161215792E0,2.971755993E-3,7.802314432E-3,-1.059106171E-2,1.348621638E-2
6.171173792E0,-4.369715620E-3,1.049329444E-2,-1.523141205E-2,1.900525075E-2
6.181131792E0,1.701696899E-2,1.048405766E-3,-7.897249460E-3,1.878943685E-2
6.191088792E0,2.241658028E-2,6.766078183E-3,-5.500475764E-3,2.405281936E-2
6.201046792E0,2.274959749E-2,8.706321381E-3,3.328819871E-3,2.458506171E-2
6.211004792E0,1.982366905E-2,1.716961786E-3,2.579791546E-3,2.006442465E-2
6.220962792E0,1.002464924E-2,-1.988336546E-3,-8.197796345E-3,1.310156248E-2
6.230920792E0,-8.784893341E-4,-1.837396156E-3,-1.807959080E-2,1.819393777E-2
6.240878792E0,8.522261996E-3,-9.520016257E-3,-7.751653790E-3,1.494482504E-2
6.250836792E0,-2.619212743E-2,-1.273759285E-2,6.320255399E-3,2.980301057E-2
6.260794792E0,-3.141239366E-2,-3.095762646E-3,1.545302153E-2,3.514424698E-2
6.270752792E0,-9.812048133E-3,-1.940358315E-2,2.637795925E-2,3.418438330E-2
6.280709792E0,-3.769754749E-3,1.107152011E-3,2.128503442E-2,2.164461888E-2
6.290667792E0,-1.296985522E-3,5.408701887E-3,1.933791161E-2,2.012190480E-2
6.300625792E0,-1.827309709E-3,-1.277662301E-2,3.056690454E-2,3.318006645E-2
6.310583917E0,5.445365757E-3,-1.467927044E-2,2.143589258E-2,2.654487671E-2
6.320541917E0,3.027578630E-4,-4.756070394E-4,3.206320703E-2,3.206816349E-2
6.330499917E0,-1.234780284E-2,-7.986730132E-3,9.611653090E-3,1.756815210E-2
6.340457917E0,-3.646161055E-2,-2.101096446E-2,2.997165799E-2,5.166439736E-2
6.350415917E0,-2.043400872E-3,-1.379987662E-2,1.500278592E-2,2.048647523E-2
6.360373917E0,2.035337197E-2,2.040376766E-3,1.290772855E-2,2.418744187E-2
6.370331917E0,2.745647818E-2,2.256933879E-3,2.518161893E-2,3.732379772E-2
6.380288917E0,-8.372427095E-3,2.927901875E-3,9.162586927E-3,1.275237798E-2
6.390246917E0,-2.660611030E-3,9.538672529E-3,-1.149387181E-2,1.517149346E-2
6.400204917E0,2.662986461E-2,1.165890033E-2,1.440578520E-2,3.244389455E-2
6.410162917E0,2.407638554E-2,-2.712523341E-3,5.274773240E-3,2.479623673E-2
6.420120917E0,1.254580418E-2,-4.150563804E-3,8.719952703E-3,1.583230740E-2
6.430078917E0,-7.286818419E-3,-9.332466815E-3,6.472283006E-3,1.349381736E-2
6.440036917E0,2.418335304E-3,1.625112992E-2,9.163171649E-3,1.881252997E-2
6.449994917E0,4.440156296E-3,1.415051769E-2,3.386005640E-2,3.696559966E-2
6.459952917E0,-1.956441812E-4,-1.536977179E-3,-1.192831993E-4,1.553963956E-3
6.469910917E0,1.812472399E-3,-1.974958300E-2,-7.004379630E-3,2.103312670E-2
6.479867917E0,1.089084115E-2,6.421339139E-4,9.907522202E-3,1.473708767E-2
6.489825917E0,1.045427341E-3,5.021433486E-3,7.062267065E-3,8.728306174E-3
6.499783917E0,-3.298651893E-3,6.888887985E-3,3.020086884E-3,8.213331040E-3
6.509741917E0,-9.538434986E-3,-2.020213008E-4,7.510748506E-3,1.214223611E-2
6.519699917E0,1.701375302E-3,3.999239691E-3,3.169775605E-3,5.379226098E-3
6.529657917E0,-1.955307087E-2,-2.485623965E-3,7.960399389E-3,2.125720737E-2
6.539615917E0,-9.006776903E-3,-1.466495390E-2,-9.404661655E-3,1.961200051E-2
6.549573917E0,-6.595147625E-3,-2.696635360E-3,1.454144061E-2,1.619324888E-2
6.559531917E0,-3.806921113E-3,-1.962517435E-3,1.289077163E-2,1.358367094E-2
6.569489917E0,-2.520966729E-2,-1.704522748E-2,1.348601818E-2,3.328572954E-2
6.579446917E0,-1.116873007E-2,-1.464765893E-2,2.980150402E-2,3.503461267E-2
6.589404917E0,1.345961435E-2,-2.335277433E-3,1.064427137E-2,1.731806144E-2
6.599362917E0,1.213015851E-2,-3.153458219E-3,2.217147231E-2,2.546878930E-2
6.609320917E0,-1.177704150E-2,-1.595059217E-2,8.102486730E-3,2.141892594E-2
6.619278917E0,-1.899577640E-2,-1.253122268E-2,1.049692154E-2,2.506105394E-2
6.629236917E0,1.186248394E-2,-1.829128741E-2,2.172182143E-2,3.077543252E-2
6.639194917E0,2.085409462E-2,-5.986141842E-3,1.199673235E-2,2.479211052E-2
6.649152917E0,-1.698988907E-2,-4.783789851E-3,1.050042987E-2,2.053777017E-2
6.659110917E0,-3.693488784E-2,-7.680098489E-3,4.512881041E-3,3.799389356E-2
6.669068917E0,-1.080174420E-2,3.901106967E-3,1.219144464E-3,1.154913965E-2
6.679025917E0,2.732005533E-2,2.150389387E-2,1.693470597E-2,3.867282174E-2
6.688983917E0,2.056283019E-2,2.291084359E-2,3.340221941E-2,4.542515825E-2
6.698941917E0,1.128127070E-2,1.013997643E-2,9.901674986E-3,1.811434123E-2
6.708899917E0,9.390610065E-3,4.213101603E-4,2.456883073E-2,2.630567435E-2
6.718857917E0,-9.479981102E-4,-4.347898196E-3,1.483555555E-2,1.548859670E-2
6.728815917E0,-1.181007827E-2,4.327743575E-3,1.543606460E-2,1.991179056E-2
6.738773917E0,5.822036080E-3,2.482645540E-3,9.174281359E-4,6.395412995E-3
6.748731917E0,2.201765399E-2,-1.653108364E-3,6.455910802E-3,2.300410048E-2
6.758689917E0,1.762418406E-2,-1.366101438E-3,1.782991469E-2,2.510744819E-2
6.768647917E0,1.692228064E-2,-1.413087470E-2,2.187267959E-2,3.105574527E-2
6.778604917E0,6.551366597E-3,-1.811909605E-2,-8.776670694E-4,1.928710308E-2
6.788562917E0,-2.896509636E-3,-1.383992091E-2,1.333808362E-2,1.943804655E-2
6.798520917E0,4.680275861E-3,-1.966652513E-2,1.153889537E-2,2.327709816E-2
6.808478917E0,-2.024930980E-2,-1.941444618E-2,2.336313486E-2,3.650741484E-2
6.818436917E0,-1.488573197E-2,-9.920495711E-3,8.393093348E-3,1.975968794E-2
6.828394917E0,-2.067776453E-3,-1.672179423E-2,1.183534920E-2,2.059052191E-2
6.838352917E0,-8.843566496E-3,-1.245614992E-2,8.241065741E-3,1.735740486E-2
6.848310917E0,7.521602400E-3,-1.748943315E-2,1.946538091E-2,2.722785023E-2
6.858268917E0,1.156029252E-2,-1.219372870E-3,1.736856937E-2,2.089962764E-2
6.868226917E0,-5.410008375E-3,-2.090601607E-2,1.437245607E-2,2.594026199E-2
6.878184917E0,-2.088756993E-2,-2.040196781E-2,1.901105225E-2,3.484179926E-2
6.888141917E0,-8.696819656E-3,-1.290270360E-2,9.279531240E-3,1.811695704E-2
6.898099917E0,4.411841154E-2,1.620398674E-2,9.877116680E-3,4.802666819E-2
6.908057917E0,2.891248969E-2,1.590798972E-2,2.888583004E-2,4.385644051E-2
6.918015917E0,-9.797740728E-4,3.484054310E-3,2.484189570E-2,2.510415053E-2
6.927973917E0,1.267055087E-3,4.656548956E-3,3.532186031E-2,3.565000270E-2
6.937931917E0,-7.115878724E-4,-4.926736001E-4,1.361816525E-2,1.364564068E-2
6.947889917E0,3.633478079E-3,-8.140228679E-3,1.287030637E-2,1.565599796E-2
6.957847917E0,-1.161934940E-2,-3.330345629E-3,3.286719918E-3,1.252609318E-2
6.967805917E0,-2.024404731E-2,-2.658939091E-3,-1.652423143E-3,2.048467502E-2
6.977763917E0,1.794274768E-2,-4.575939607E-3,2.831806540E-3,1.873233957E-2
6.987720917E0,3.398608217E-2,1.569304059E-2,2.917702138E-2,4.746181498E-2
6.997678917E0,8.273536060E-3,3.661288898E-3,-5.097602606E-3,1.038469969E-2
7.007636917E0,-3.241824266E-2,-2.204466082E-2,1.870465815E-2,4.343700915E-2
7.017594917E0,-1.618675573E-2,-3.063205532E-2,-7.342348695E-3,3.541530684E-2
7.027552917E0,1.348590855E-2,-6.846340355E-3,-1.602604866E-2,2.203579681E-2
7.037510917E0,6.907462031E-3,4.093507770E-4,-7.943442464E-3,1.053465130E-2
7.047468917E0,1.262828646E-2,-1.112779956E-2,5.976439118E-3,1.786111325E-2
7.057426917E0,3.402074520E-3,-2.002162470E-2,1.151199818E-2,2.334449976E-2
7.067384917E0,9.683774840E-3,-2.796484790E-2,1.509868026E-2,3.322315997E-2
7.077342917E0,8.043941483E-4,-2.440759376E-2,-2.046525478E-5,2.442085383E-2
7.087299917E0,2.464290764E-3,-1.622581330E-2,5.217470527E-3,1.722125852E-2
7.097257917E0,-5.967924111E-3,-1.587169130E-2,1.120326519E-2,2.032338195E-2
7.107215917E0,-5.202962123E-3,-1.645352581E-2,2.520149946E-3,1.743962391E-2
7.117173917E0,-2.759264521E-3,3.756744694E-4,1.284574807E-2,1.314412094E-2
7.127131917E0,2.010492012E-2,9.193732487E-3,2.616570532E-2,3.425458604E-2
7.137089917E0,1.685770545E-3,7.272383105E-3,1.673297703E-2,1.832271538E-2
7.147047917E0,-2.446864234E-2,-8.976654606E-3,5.506322980E-3,2.663858815E-2
7.157005917E0,-9.060059655E-3,6.229194151E-3,1.478936255E-2,1.842858609E-2
7.166963917E0,1.953446941E-2,3.799063917E-3,3.110543311E-2,3.692663471E-2
7.176921917E0,3.049357681E-2,1.366466889E-2,1.044955909E-2,3.501106522E-2
7.186879917E0,5.277258307E-3,1.180306161E-3,2.152243137E-2,2.219138639E-2
7.196836917E0,-2.006963583E-2,5.988471592E-3,2.106927216E-2,2.970801750E-2
7.206794917E0,-1.544013938E-2,1.426454754E-2,1.418125212E-2,2.535711206E-2
7.216752917E0,8.748823330E-3,1.486078081E-2,1.837429047E-2,2.519919177E-2
7.226710917E0,-2.847594023E-3,3.092628904E-5,-2.128386497E-3,3.555246438E-3
7.236668917E0,-1.777703393E-2,-7.606058121E-3,-7.963907719E-3,2.091169246E-2
7.246626917E0,-1.817625258E-2,-1.046905590E-2,1.418826878E-2,2.532359098E-2
7.256584917E0,2.175454756E-2,4.531208407E-3,2.496644139E-2,3.342327610E-2
7.266542917E0,3.210779205E-3,-1.023445465E-3,1.344391823E-2,1.385985141E-2
7.276500917E0,-2.524336187E-2,-2.717006511E-2,3.110835671E-2,4.840629726E-2
7.286458917E0,-1.786050294E-2,-3.576523458E-2,-4.516389370E-3,4.023117376E-2
7.296416917E0,1.974250238E-2,-1.043292194E-2,3.380626202E-2,4.051512819E-2
7.306373917E0,3.587104177E-2,-2.232708134E-2,-1.424381733E-2,4.458830038E-2
7.316332083E0,-1.648238730E-3,-2.314837759E-2,1.090388775E-2,2.564096028E-2
7.326290083E0,-2.335195206E-2,-3.437644777E-2,5.753660202E-4,4.156181989E-2
7.336248083E0,-2.121702399E-2,-9.660111889E-3,1.120384991E-2,2.586515265E-2
7.346206083E0,-3.534166776E-3,-8.937204173E-3,1.869062483E-2,2.101674118E-2
7.356164083E0,4.116458092E-3,-1.458538609E-2,1.045774519E-2,1.841312437E-2
7.366122083E0,1.685883835E-2,-7.932305345E-3,8.062140942E-3,2.030123186E-2
7.376080083E0,-2.789205920E-2,-2.686537949E-2,7.013735175E-3,3.935616931E-2
7.386038083E0,-1.031783229E-2,1.283728788E-3,5.665951967E-3,1.184097270E-2
7.395996083E0,1.854597934E-2,9.583531637E-3,1.300245345E-2,2.459392656E-2
7.405953083E0,-2.029146457E-2,2.523292825E-3,2.437645733E-2,3.181701138E-2
7.415911083E0,-1.965790048E-2,-7.203915864E-3,3.719998598E-3,2.126423863E-2
7.425869083E0,-5.074085835E-3,7.462682566E-3,1.344625711E-2,1.619382007E-2
7.435827083E0,2.489863196E-2,2.653811814E-2,1.568866432E-2,3.962761381E-2
7.445785083E0,2.614273673E-2,1.989959149E-2,1.778079808E-2,3.735763918E-2
7.455743083E0,-3.364378251E-3,9.335463513E-3,-1.215811551E-2,1.569361949E-2
7.465701083E0,-1.427541057E-2,8.852547454E-3,5.954804420E-3,1.782174624E-2
7.475659083E0,1.679780804E-2,-5.929104080E-3,4.157370329E-3,1.829219391E-2
7.485617083E0,2.003798777E-2,1.138578054E-2,-4.968379140E-3,2.357629623E-2
7.495575083E0,1.008498520E-2,7.240862958E-3,8.654463887E-3,1.513396075E-2
7.505533083E0,4.144323729E-3,-1.765359373E-2,1.524544537E-2,2.369068161E-2
7.515490083E0,2.696388680E-3,-1.371949567E-2,-1.754164696E-5,1.398196628E-2
7.525448083E0,2.897854496E-2,-1.092388705E-2,3.276487291E-2,4.508463455E-2
7.535406083E0,2.908262540E-2,-1.739689182E-2,8.068572879E-3,3.483608493E-2
7.545364083E0,-2.217832452E-2,-1.784454186E-2,1.271360099E-2,3.117597477E-2
7.555322083E0,-2.013834061E-2,-2.656045633E-2,1.435959220E-2,3.629336704E-2
7.565280083E0,-4.944314193E-3,-1.337115694E-2,3.292099357E-2,3.587514318E-2
7.575238083E0,1.528217319E-2,-7.793808561E-3,3.651352286E-2,4.034260306E-2
7.585196083E0,-1.029292680E-2,-1.973880219E-2,3.022659659E-2,3.753946984E-2
7.595154083E0,-1.792493194E-2,-2.478337786E-2,1.929873526E-2,3.616573221E-2
7.605112083E0,-3.466083258E-3,-3.333168738E-3,1.839709461E-2,1.901517386E-2
7.615069083E0,-4.453677982E-3,7.762736091E-3,2.228841662E-2,2.401809390E-2
7.625027083E0,2.640237138E-2,-9.968406335E-4,2.857826650E-2,3.892038311E-2
7.634985083E0,9.179763123E-4,-2.056758106E-3,-1.596289873E-4,2.257967190E-3
7.644943083E0,-3.481008276E-2,-1.232463324E-2,2.865135670E-4,3.692858698E-2
7.654901083E0,3.338266779E-3,1.074489830E-2,-9.743215442E-3,1.488378687E-2
7.664859083E0,2.981279645E-2,2.212805673E-2,-2.171889782E-2,4.301353566E-2
7.674817083E0,1.779455731E-2,4.315309105E-3,-2.411450207E-2,3.027833173E-2
7.684775083E0,-1.530252881E-2,-6.462306194E-3,-5.165781140E-2,5.426286270E-2
7.694733083E0,-7.642018497E-3,1.046889145E-3,-3.833668470E-2,3.910495899E-2
7.704691083E0,2.018983265E-2,3.698455263E-3,-2.067750871E-2,2.913532702E-2
7.714649083E0,1.567627553E-2,8.013545098E-3,-8.406541944E-3,1.950980438E-2
7.724607083E0,-5.113919992E-3,-1.713195814E-2,-3.744907737E-2,4.149806698E-2
7.734564083E0,-3.880541213E-4,-1.177104810E-2,-1.978990138E-2,2.302929343E-2
7.744522083E0,3.088766087E-2,-3.765150066E-3,9.397060275E-3,3.250428727E-2
7.754480083E0,2.979647906E-2,1.814015516E-2,9.696437716E-3,3.620657811E-2
7.764438083E0,-6.040539220E-4,-2.103919555E-3,2.002495944E-2,2.014423886E-2
7.774396083E0,-1.458178639E-2,-1.241602340E-2,6.704417467E-3,2.029126278E-2
7.784354083E0,-4.299622122E-3,-2.243382957E-2,2.496819556E-2,3.384042330E-2
7.794312083E0,-1.135955030E-2,-1.788561855E-2,3.140539527E-2,3.788447685E-2
7.804270083E0,9.009627420E-3,-4.961956339E-3,4.847751081E-2,4.955666909E-2
7.814228083E0,1.148873722E-2,-5.499406820E-3,6.958946764E-2,7.074551975E-2
7.824186083E0,7.748401277E-3,8.786994684E-3,5.971118152E-2,6.084960309E-2
7.834144083E0,4.443445355E-3,-3.684677761E-3,6.105838001E-2,6.133063530E-2
7.844101083E0,8.963617142E-3,8.780270386E-3,7.109103262E-2,7.218985039E-2
7.854059083E0,1.329322452E-2,5.009592874E-3,5.103859127E-2,5.297870928E-2
7.864017083E0,6.014208477E-3,-1.021285649E-2,6.166707516E-2,6.279571084E-2
7.873975083E0,-9.148535337E-3,-3.819054086E-3,6.376388669E-2,6.452994746E-2
7.883933083E0,-1.931178186E-2,8.386232005E-3,5.433759034E-2,5.827390093E-2
7.893891083E0,1.403885415E-2,1.859920727E-2,5.838152468E-2,6.286034013E-2
7.903849083E0,1.853353573E-2,2.097485790E-2,1.991444707E-2,3.435144557E-2
7.913807083E0,-1.442025706E-2,-2.921396848E-3,4.196546674E-3,1.529997965E-2
7.923765083E0,-2.914056765E-2,-1.702036768E-2,2.605343878E-2,4.263387469E-2
7.933723083E0,2.910732988E-2,-3.025733102E-3,4.560828209E-4,2.926772498E-2
7.943681083E0,2.582106678E-2,1.733132992E-2,5.695188046E-3,3.161546541E-2
7.953638083E0,1.629101889E-2,-9.088519150E-3,-3.262337029E-2,3.758035080E-2
7.963596083E0,-1.572548350E-2,-2.365227054E-2,-3.980725944E-2,4.890131529E-2
7.973554083E0,-1.313849257E-2,-1.984585192E-2,-3.471608877E-2,4.209138445E-2
7.983512083E0,2.909115868E-2,-1.025361341E-2,-4.923530996E-2,5.809946513E-2
7.993470083E0,4.227513162E-2,4.692125609E-3,-4.593689561E-2,6.260512099E-2
8.003428083E0,1.547885891E-2,1.392141648E-2,-5.147186995E-2,5.552255673E-2
8.013386083E0,-7.822204102E-3,-1.428766231E-2,-6.090518296E-2,6.304574119E-2
8.023344083E0,-4.229565170E-3,-4.630373530E-3,-4.099892199E-2,4.147579035E-2
8.033302083E0,-5.811949633E-3,-1.315514800E-2,-4.953293324E-2,5.157856291E-2
8.043260083E0,1.323712779E-2,3.670982486E-3,-4.234612048E-2,4.451844094E-2
8.053218083E0,-2.174433321E-5,9.123812579E-3,1.365324855E-3,9.225429028E-3
8.063175083E0,1.668996345E-3,1.859012581E-3,-2.004016221E-2,2.019528603E-2
8.073133083E0,-4.756344482E-5,1.941337723E-2,8.997695446E-3,2.139719611E-2
8.083091083E0,2.350153115E-2,8.466795674E-3,6.603845358E-3,2.583833138E-2
8.093049083E0,6.948703174E-3,6.722982377E-3,2.097454727E-2,2.309577019E-2
8.103007083E0,5.259058848E-3,-1.553411510E-2,2.606396377E-2,3.079442546E-2
8.112965083E0,-2.811302913E-2,-2.485931857E-2,1.424381733E-2,4.013993596E-2
8.122923083E0,-4.479782145E-2,-2.460898465E-2,3.011140645E-2,5.932237125E-2
8.132881083E0,-8.463113755E-4,-3.227044514E-2,4.433066547E-2,5.483890748E-2
8.142839083E0,2.487087596E-2,-1.036112909E-2,3.744556904E-2,4.613116200E-2
8.152797083E0,-4.049982559E-3,5.031812293E-3,6.798148334E-2,6.828765314E-2
8.162755083E0,-3.626479693E-3,-9.854431311E-3,7.232304096E-2,7.308134800E-2
8.172713083E0,-1.777674157E-2,-1.203846686E-2,4.463296652E-2,4.952816295E-2
8.182670083E0,-1.836058605E-2,-4.938256843E-3,6.828027606E-2,7.087801916E-2
8.192628083E0,-5.726982281E-4,-2.789173943E-2,3.205560565E-2,4.249516402E-2
8.202586083E0,-2.922122268E-2,-1.810474296E-2,5.061993062E-2,6.118855243E-2
8.212544083E0,-1.483988615E-2,-7.631612280E-3,5.600404680E-2,5.843729104E-2
8.222502083E0,2.416674329E-2,-8.741587400E-4,2.262229264E-2,3.311440410E-2
8.232460083E0,1.502213655E-2,7.006563200E-3,3.879042864E-2,4.218357344E-2
8.242418083E0,-2.007075045E-3,-3.503669892E-2,2.292576313E-2,4.191884106E-2
8.252376083E0,7.199384272E-5,-1.624676278E-2,1.783810079E-2,2.412799875E-2
8.262334083E0,-2.282853490E-2,-1.055673673E-2,2.652004659E-2,3.654995988E-2
8.272292083E0,-3.423654400E-2,-7.246326450E-3,-8.205397725E-3,3.594410583E-2
8.282250083E0,-1.258413998E-2,-7.605062267E-3,-2.032901466E-2,2.508916874E-2
8.292207083E0,1.441631019E-3,1.996829627E-2,1.973435283E-3,2.011729611E-2
8.302165083E0,1.903500756E-2,1.938100741E-2,-1.793691874E-2,3.255284957E-2
8.312123333E0,5.983802956E-3,4.793867161E-3,-8.654463887E-3,1.156230104E-2
8.322081333E0,-8.631623201E-3,4.723746255E-3,-1.733640969E-2,1.993413652E-2
8.332039333E0,2.341864686E-3,4.063723516E-3,-3.080839455E-2,3.116336557E-2
8.341997333E0,1.431595735E-2,6.851283079E-3,-9.553765655E-3,1.852460939E-2
8.351955333E0,6.617769040E-3,8.384450432E-3,-3.170477271E-2,3.345573925E-2
8.361913333E0,1.933312420E-2,1.422912620E-2,-2.665160894E-3,2.415244928E-2
8.371871333E0,4.650783967E-2,3.544599487E-2,-2.695566416E-4,5.847623760E-2
8.381829333E0,2.145350732E-2,1.536055329E-2,-1.168273687E-3,2.641144519E-2
8.391787333E0,-3.178224832E-2,-2.002074762E-2,-1.170027852E-3,3.758072124E-2
8.401745333E0,-2.767532850E-2,-2.075940628E-2,-4.614622593E-3,3.490231365E-2
8.411702333E0,4.810449500E-3,-1.187556708E-2,1.454553366E-2,1.938406736E-2
8.421660333E0,1.196972553E-2,-1.594226902E-2,1.724110007E-2,2.635689288E-2
8.431618333E0,4.492927417E-3,-1.639887261E-2,1.305157006E-2,2.143485248E-2
8.441576333E0,3.667026479E-3,-1.719030239E-2,1.814332545E-2,2.526131108E-2
8.451534333E0,-1.170830017E-2,-1.063287844E-2,1.530216336E-2,2.200678533E-2
8.461492333E0,-2.700609639E-3,3.254569368E-3,3.131651759E-2,3.160078778E-2
8.471450333E0,3.311534040E-4,-6.246955069E-3,3.041838527E-2,3.105498788E-2
8.481408333E0,1.325669769E-2,3.143463135E-3,1.739546657E-2,2.209578356E-2
8.491366333E0,1.864812288E-2,1.385792851E-2,2.532662988E-2,3.436906822E-2
8.501324333E0,2.196382307E-2,4.121592678E-3,1.409529805E-2,2.642109909E-2
8.511282333E0,9.198474213E-3,9.516608426E-3,5.710390806E-3,1.441479542E-2
8.521240333E0,-1.389645617E-3,-1.289075335E-2,4.373074114E-2,4.561228297E-2
8.531197333E0,-1.414085152E-2,-1.434406053E-2,2.397066057E-2,3.130987579E-2
8.541155333E0,-2.318099409E-2,-1.044311802E-2,1.588571548E-2,2.997954565E-2
8.551113333E0,-2.522910928E-2,-2.706183680E-2,7.683241367E-4,3.700596288E-2
8.561071333E0,2.828572299E-3,-1.855321527E-2,6.006259918E-3,1.970527280E-2
8.571029333E0,-1.826496581E-2,-4.775777338E-3,1.304046035E-2,2.294494784E-2
8.580987333E0,-3.574267711E-2,-2.590341202E-2,2.561489761E-2,5.103575904E-2
8.590945333E0,-4.559733683E-2,-2.283431816E-2,1.319248796E-2,5.267413929E-2
8.600903333E0,-2.278590504E-2,-2.842605617E-2,9.746723771E-3,3.771255444E-2
8.610861333E0,-6.543271858E-3,-1.542255205E-2,-4.475458860E-3,1.734068195E-2
8.620819333E0,-4.572723638E-3,-1.901564780E-2,1.199088514E-2,2.294092389E-2
8.630777333E0,-2.920337040E-3,-2.353738189E-2,-2.243869007E-2,3.265013823E-2
8.640735333E0,-1.481483448E-3,-1.380605274E-2,-3.429391980E-3,1.430253875E-2
8.650692333E0,3.406408768E-2,1.964269772E-2,1.483497083E-2,4.202706274E-2
8.660650333E0,4.802822538E-2,2.822674834E-2,1.154240370E-2,5.689188728E-2
8.670608333E0,3.000566320E-2,1.334293499E-2,9.295903444E-3,3.412898415E-2
8.680566333E0,3.788131451E-2,1.682327997E-2,1.094423354E-2,4.286948782E-2
8.690524333E0,1.586451933E-2,1.077495664E-2,3.234855115E-2,3.760600253E-2
8.700482333E0,2.404607138E-2,-1.467095643E-2,2.231823742E-2,3.593820019E-2
8.710440333E0,1.040232455E-2,-2.624518177E-2,3.578846812E-2,4.558324663E-2
8.720398333E0,-1.141102407E-3,1.763629876E-3,3.384017587E-2,3.390530943E-2
8.730356333E0,4.324125610E-3,-9.325413611E-3,1.632542610E-2,1.929199157E-2
8.740314333E0,-1.652764840E-2,6.274482664E-3,2.919748664E-2,3.413247018E-2
8.750272333E0,-2.615951093E-2,5.735689150E-3,2.200950444E-2,3.466462790E-2
8.760230333E0,-1.521862127E-2,1.947236102E-2,5.991641879E-3,2.542988497E-2
8.770187333E0,-4.502392597E-2,-3.242253670E-3,6.739500761E-3,4.564084782E-2
8.780145333E0,-2.588940611E-2,-1.701750803E-2,1.467241824E-2,3.428026816E-2
8.790103333E0,-6.884694435E-3,-1.151841184E-2,-5.236181617E-3,1.440452799E-2
8.800061333E0,-1.779161543E-3,8.249873109E-3,2.544883668E-2,2.681173457E-2
8.810019333E0,-1.066639943E-2,-1.663843486E-3,1.841463625E-2,2.134570871E-2
8.819977333E0,9.542601127E-3,-8.780727200E-3,3.446933627E-3,1.341803853E-2
8.829935333E0,1.433576480E-2,-4.851617552E-3,1.033203006E-2,1.832493357E-2
8.839893333E0,1.314587468E-2,-1.339207901E-2,-1.421516597E-2,2.354214827E-2
8.849851333E0,1.587592140E-2,-1.494269664E-2,-1.226570427E-2,2.501552647E-2
8.859809333E0,3.084570710E-3,-1.619060210E-2,2.216328621E-2,2.761994621E-2
8.869767333E0,2.803454854E-2,1.661438819E-2,-1.226628900E-2,3.482004670E-2
8.879725333E0,-4.048264939E-3,-3.440529099E-3,1.093429327E-2,1.215666314E-2
8.889683333E0,-2.612258211E-2,-2.947620696E-2,-8.975476027E-3,4.039548543E-2
8.899640333E0,-3.394071143E-3,-2.326650049E-2,1.063374639E-2,2.580554836E-2
8.909598333E0,3.563713487E-2,-1.371399564E-2,7.016658783E-6,3.818480205E-2
8.919556333E0,9.908874370E-3,-2.443940626E-2,1.347900152E-2,2.961678328E-2
8.929514333E0,-3.704786701E-2,-4.485714328E-2,-5.080645680E-3,5.839966365E-2
8.939472333E0,-2.373121709E-2,-1.933156190E-2,2.545468390E-2,3.980980887E-2
8.949430333E0,2.901958510E-2,3.102665101E-2,2.979507208E-2,5.188964938E-2
8.959388333E0,5.307101034E-2,2.757173228E-2,2.754974127E-2,6.584619050E-2
8.969346333E0,-7.632461954E-3,3.642897578E-3,2.471033335E-2,2.611753726E-2
8.979304333E0,-5.026326874E-2,-1.131555000E-3,1.348367929E-2,5.205272528E-2
8.989262333E0,7.719768193E-3,-8.111915365E-4,2.455889046E-2,2.575639636E-2
8.999220333E0,2.941642832E-2,2.670861930E-2,2.695507944E-2,4.801304934E-2
9.009177333E0,2.642515725E-2,3.621039955E-2,3.069788218E-2,5.433085625E-2
9.019135333E0,7.226829641E-3,1.015239263E-2,3.309524059E-2,3.536372566E-2
9.029093333E0,-3.572685309E-3,1.079321092E-2,2.531259656E-2,2.774860405E-2
9.039051333E0,3.669073004E-2,-6.127571370E-3,2.067224622E-2,4.255700372E-2
9.049009333E0,4.444320610E-2,-7.626176197E-3,1.902800918E-2,4.894305124E-2
9.058967333E0,-2.034226226E-2,-1.523951593E-2,1.902976334E-2,3.175188770E-2
9.068925333E0,-4.141900789E-2,-2.808513609E-2,2.995470107E-2,5.832317892E-2
9.078883333E0,-9.297346976E-3,-1.611658914E-2,1.543840349E-2,2.417704301E-2
9.088841333E0,5.510196760E-3,-3.583977744E-4,3.130657732E-2,3.178981757E-2
9.098799333E0,-1.657904908E-3,-3.209978867E-2,6.157118082E-3,3.272697946E-2
9.108757333E0,-4.821387447E-2,-4.279941673E-2,1.349128067E-2,6.586639825E-2
9.118715333E0,-2.937569881E-2,-2.897197598E-2,-1.176459789E-3,4.127579351E-2
9.128673333E0,4.233884800E-2,-1.756127167E-2,1.154708147E-2,4.726850329E-2
9.138630333E0,1.257863995E-3,-2.596024878E-2,-4.319922924E-3,2.634726689E-2
9.148588333E0,-3.805539709E-2,-2.858669928E-2,-1.622017622E-3,4.762398098E-2
9.158546333E0,-7.072097696E-3,-1.771690811E-2,4.813427925E-3,1.967415785E-2
9.168504333E0,2.517895114E-2,1.416329021E-2,-7.462216616E-3,2.983727613E-2
9.178462333E0,2.062612630E-2,-3.015189841E-3,1.515598297E-3,2.090037067E-2
9.188420333E0,-1.867999021E-2,-4.234306896E-3,-1.001101792E-2,2.161230827E-2
9.198378333E0,-4.447885584E-3,3.959606532E-3,1.701539755E-4,5.957442608E-3
9.208336333E0,1.476211818E-2,3.137597647E-3,-9.861913919E-3,1.802836649E-2
9.218294333E0,2.234560970E-2,2.323310740E-2,-3.426468372E-3,3.241672775E-2
9.228252333E0,3.021216128E-2,7.824844485E-3,1.079512954E-2,3.302329030E-2
9.238210333E0,-3.629439846E-3,-1.501973371E-2,-5.070705414E-3,1.626275769E-2
9.248168333E0,-6.050881483E-3,-1.431177294E-2,1.229435563E-2,1.981391409E-2
9.258126333E0,9.786430020E-3,1.600121627E-2,6.305637360E-3,1.978823380E-2
9.268083333E0,2.617608413E-2,2.344151496E-2,7.803109288E-3,3.599417340E-2
9.278041333E0,1.285309363E-2,1.717250492E-2,2.262346208E-2,3.117559908E-2
9.287999333E0,-5.437965374E-3,6.836674176E-5,1.667041183E-3,5.688160311E-3
9.297957333E0,-3.127818178E-2,-3.117369935E-3,1.873038590E-2,3.659057265E-2
9.307915333E0,-2.662173333E-2,-5.019843774E-3,1.393508434E-2,3.046476805E-2
9.317873083E0,4.227975458E-3,-1.058461150E-2,2.411274791E-2,2.667085279E-2
9.327831083E0,2.509349043E-2,-3.062040657E-3,2.172182143E-2,3.333011972E-2
9.337789083E0,1.998930970E-2,1.043810220E-3,3.130423844E-2,3.715666005E-2
9.347747083E0,-4.633589499E-3,-2.890845146E-2,2.396832168E-2,3.783713998E-2
9.357705083E0,5.586210564E-3,-2.474559937E-2,1.079512954E-2,2.756964378E-2
9.367663083E0,7.389729414E-3,-1.642279138E-2,1.214174330E-2,2.171953287E-2
9.377621083E0,3.118831739E-2,-2.097962704E-4,2.457000017E-2,3.970440863E-2
9.387579083E0,-6.830315329E-3,-1.431085931E-2,2.202412248E-2,2.713882593E-2
9.397536083E0,-1.706740122E-2,-2.342819427E-2,1.498699844E-2,3.263106792E-2
9.407494083E0,9.553400204E-3,-7.442135084E-3,1.947941422E-2,2.293687879E-2
9.417452083E0,1.634357074E-2,-3.746018708E-3,1.229786396E-2,2.079380722E-2
9.427410083E0,-3.112831034E-2,-3.888429472E-2,4.063814878E-3,4.997474034E-2
9.437368083E0,-3.646690959E-2,-9.100113083E-3,6.157702804E-3,3.808628174E-2
9.447326083E0,-6.262075603E-3,-6.084841015E-3,-7.256394625E-4,8.761588535E-3
9.457284083E0,5.159071460E-4,7.790419003E-3,9.454362988E-3,1.226139339E-2
9.467242083E0,-1.699144224E-2,1.680867107E-2,1.454319477E-2,2.797758114E-2
9.477200083E0,-1.777604721E-2,9.824226787E-3,5.261324644E-3,2.098058206E-2
9.487158083E0,8.637616597E-3,6.877622958E-3,2.442265034E-2,2.680253659E-2
9.497116083E0,1.102348158E-2,7.355568884E-3,1.424147844E-2,1.945356646E-2
9.507074083E0,-4.326829948E-3,6.540384796E-4,-1.262998581E-4,4.377804859E-3
9.517031083E0,1.049023379E-2,1.063555537E-2,2.367596090E-2,2.799484180E-2
9.526989083E0,1.197224714E-2,1.467903290E-2,1.963261127E-2,2.728091153E-2
9.536947083E0,2.535663340E-3,-6.270042434E-3,-3.120658994E-3,7.448592703E-3
9.546905083E0,7.995336503E-4,2.406531237E-3,1.005662620E-2,1.037142118E-2
9.556863083E0,-3.459724411E-4,-2.614480153E-2,3.101538599E-2,4.056629773E-2
9.566821083E0,3.308500797E-3,-2.051998107E-2,1.200433373E-2,2.400249631E-2
9.576779083E0,9.979698770E-3,-1.075670237E-2,2.038514793E-2,2.511683279E-2
9.586737083E0,4.219588358E-3,4.277265659E-3,9.756664038E-3,1.145829047E-2
9.596695083E0,3.991766218E-3,-9.098715233E-3,-8.057463169E-3,1.279232306E-2
9.606653083E0,-2.549038846E-3,-3.458878392E-2,2.420747280E-3,3.476696118E-2
9.616611083E0,-8.387501948E-3,-2.717720054E-2,2.869228721E-3,2.858641096E-2
9.626569083E0,3.041515103E-2,1.607070677E-4,-1.624941230E-3,3.045895062E-2
9.636527083E0,-2.062404323E-3,-2.284806825E-2,2.715446949E-3,2.310111224E-2
9.646484083E0,-1.638002448E-2,-1.973098154E-2,1.005136371E-2,2.754354274E-2
9.656442083E0,4.139773864E-3,-8.670598548E-4,5.710975528E-3,7.106670241E-3
9.666400083E0,1.486767869E-2,-8.788757985E-3,8.259192109E-3,1.914430440E-2
9.676358083E0,2.611200230E-2,-2.892480539E-3,-1.089979470E-2,2.844307705E-2
9.686316083E0,-1.268114895E-4,8.870609868E-3,-7.309019566E-3,1.149458862E-2
9.696274083E0,-8.095159438E-3,-3.592456207E-3,2.098507226E-2,2.277741437E-2
9.706232083E0,-2.858108047E-2,-6.531175431E-3,1.978580832E-2,3.536965684E-2
9.716190083E0,-2.261030585E-2,8.180702375E-3,1.222068071E-3,2.407578186E-2
9.726148083E0,-1.320529701E-2,2.239986090E-2,1.094949603E-2,2.821391679E-2
9.736106083E0,-1.468981370E-2,7.543237098E-3,3.175505877E-2,3.579210541E-2
9.746064083E0,-1.528624797E-2,-1.285601724E-3,1.918120623E-2,2.456096132E-2
9.756022083E0,-1.133831760E-2,6.150622191E-3,1.648856342E-2,2.093466797E-2
9.765980083E0,2.629103674E-2,-3.344004359E-3,3.146094382E-2,4.113626094E-2
9.775937083E0,2.319636131E-2,4.738282068E-3,1.769075096E-2,2.955478243E-2
9.785895083E0,2.530620117E-3,-1.287397915E-2,-9.553180933E-3,1.622980725E-2
9.795853083E0,-1.296214420E-2,-1.693916447E-2,6.914332509E-3,2.242232079E-2
9.805811083E0,2.273170866E-2,-4.217797648E-3,1.050978541E-2,2.539637740E-2
9.815769083E0,3.361889530E-2,3.287624409E-3,2.443434477E-2,4.169023626E-2
9.825727083E0,1.395595159E-2,-1.181274606E-3,2.847594023E-2,3.173394344E-2
9.835685083E0,2.568601437E-2,-7.314236378E-3,2.263632596E-2,3.500960783E-2
9.845643083E0,1.325892694E-3,-8.325905185E-3,1.904087305E-2,2.082386936E-2
9.855601083E0,-1.130268613E-2,-1.513449445E-2,-2.066990733E-3,1.900200218E-2
9.865559083E0,-1.871785093E-3,-6.539270170E-3,3.115981221E-2,3.189356567E-2
9.875517083E0,-1.237270832E-3,-9.449255811E-3,3.469153047E-3,1.014171077E-2
9.885475083E0,6.669151448E-3,-1.738157029E-2,3.320633769E-3,1.891092741E-2
9.895433083E0,-7.412076741E-4,-8.927309588E-3,9.156154990E-3,1.280942698E-2
9.905390083E0,-2.971025091E-3,-1.287148495E-2,-7.754577398E-3,1.531781922E-2
9.915348083E0,-7.897834182E-3,-1.759061739E-3,9.159663320E-3,1.222168217E-2
9.925306083E0,-2.214241896E-2,-1.704524576E-2,7.962153554E-3,2.905551599E-2
9.935264083E0,7.370415330E-3,-4.648673488E-3,-1.628858864E-2,1.847298859E-2
9.945222083E0,1.584423680E-2,1.670162134E-2,2.232583880E-2,3.206909842E-2
9.955180083E0,1.589730028E-3,-1.879015541E-2,8.552137613E-3,2.070594696E-2
9.965138083E0,-6.042147204E-3,-8.386743637E-3,4.210579991E-3,1.116127213E-2
9.975096083E0,1.264157061E-2,-3.401617706E-3,1.453793228E-2,1.956353202E-2
9.985054083E0,1.041465852E-2,-8.101947689E-3,-6.417319179E-3,1.467271802E-2
9.995012083E0,9.563614558E-3,-1.136519652E-2,8.107749224E-3,1.692235246E-2
1.000497008E1,1.420791177E-2,-1.746216137E-2,-5.658935308E-3,2.321239724E-2
1.001492808E1,-6.634031609E-3,5.306128934E-3,6.314992905E-4,8.518460601E-3
1.002488608E1,1.518901974E-2,-3.328006743E-3,2.982313871E-2,3.363333989E-2
1.003484408E1,9.197852947E-4,-5.837960606E-3,2.922496855E-2,2.981654869E-2
1.004480108E1,-6.770253461E-3,-8.274139054E-3,7.821820378E-3,1.324683294E-2
1.005475908E1,-1.354470961E-3,2.636564355E-3,2.443785310E-2,2.461696015E-2
1.006471708E1,1.617957462E-2,2.428997336E-3,1.560446441E-2,2.260924529E-2
1.007467508E1,1.257335918E-2,-1.585997860E-2,3.401266873E-2,3.957890747E-2
1.008463308E1,2.020823311E-2,-1.760085915E-2,1.470223904E-2,3.056662822E-2
1.009459108E1,-1.215327328E-2,-7.825611932E-3,2.248488307E-2,2.673036139E-2
1.010454908E1,-1.190178819E-2,-1.694738712E-2,2.024364531E-2,2.895982852E-2
1.011450708E1,-2.404338531E-3,-5.143421022E-3,1.366026521E-2,1.479318996E-2
1.012446508E1,-9.488934651E-5,-5.767099662E-3,1.904964387E-2,1.990370253E-2
1.013442308E1,1.419970740E-2,-1.538052519E-2,3.183224201E-3,2.117369031E-2
1.014438108E1,1.260349061E-3,1.672586901E-3,2.084532380E-2,2.095026375E-2
1.015433908E1,1.411353406E-3,5.172291650E-3,1.905139804E-2,1.979141952E-2
1.016429708E1,-2.536229789E-3,-1.203174256E-2,1.201485872E-2,1.719162938E-2
1.017425408E1,-2.222672850E-3,-1.037702621E-2,7.524197102E-3,1.300909257E-2
1.018421208E1,-6.801828425E-3,-9.350538366E-3,-5.798099041E-3,1.293504504E-2
1.019417008E1,1.679853894E-2,-1.976431981E-3,1.388128996E-3,1.697127267E-2
1.020412808E1,-1.264460385E-4,-7.827411778E-4,1.935252964E-2,1.936876547E-2
1.021408608E1,-2.572681697E-2,-1.471139358E-2,6.778677106E-3,3.040139266E-2
1.022404408E1,3.507233039E-3,8.196791355E-4,9.028100967E-3,9.720039329E-3
1.023400208E1,1.564055270E-2,1.015995746E-2,7.979695201E-3,2.028613220E-2
1.024396008E1,1.266037306E-2,-7.411921425E-3,1.636167884E-2,2.197558098E-2
1.025391808E1,3.814157043E-3,-5.123293810E-3,1.920517981E-2,2.023943836E-2
1.026387608E1,8.643281087E-3,1.294639327E-2,-1.452448368E-3,1.563409776E-2
1.027383408E1,1.768048178E-2,1.503521970E-2,1.381404698E-2,2.700898297E-2
1.028379208E1,2.266746238E-2,2.379359957E-3,4.979488850E-3,2.332960595E-2
1.029375008E1,6.464608535E-3,-1.630840522E-2,8.573772311E-3,1.952600359E-2
1.030370708E1,-1.078175403E-2,-1.433141593E-2,5.879960060E-3,1.887351671E-2
1.031366504E1,1.092278156E-3,-5.755624501E-3,9.025762081E-3,1.076032835E-2
1.032362304E1,-1.657393277E-3,-1.736708016E-2,1.755918860E-2,2.475252573E-2
1.033358104E1,1.513674198E-2,-2.347437814E-3,2.175573528E-2,2.660720653E-2
1.034353904E1,1.180328088E-2,-1.126980468E-2,6.039589047E-3,1.740122331E-2
1.035349704E1,1.871913001E-3,-7.568188263E-3,3.313617110E-2,3.404096601E-2
1.036345504E1,1.040822659E-3,-4.079867313E-3,1.847193897E-2,1.894574249E-2
1.037341304E1,2.841819897E-3,4.948626515E-3,1.413388968E-2,1.524243032E-2
1.038337104E1,4.430417027E-3,-1.404080931E-3,3.014999807E-2,3.050610467E-2
1.039332904E1,2.412140910E-3,-1.540531190E-2,5.275357962E-2,5.500983749E-2
1.040328704E1,4.498957358E-3,1.975792442E-3,1.608276665E-2,1.681665116E-2
1.041324504E1,7.666467167E-3,-1.194257252E-3,2.880689263E-2,2.983350520E-2
1.042320304E1,7.289394848E-3,2.574638687E-3,4.856404960E-2,4.917551174E-2
1.043316104E1,-2.306850828E-2,-8.321665954E-3,1.518346488E-2,2.884343607E-2
1.044311904E1,-2.691572037E-2,-2.275736332E-2,3.164922416E-2,4.737116188E-2
1.045307604E1,-7.337890193E-4,-1.669206480E-2,2.191828787E-2,2.756038492E-2
1.046303404E1,-1.215614207E-2,3.550164392E-3,6.442871511E-2,6.566151680E-2
1.047299204E1,-4.935433734E-3,1.229057321E-3,7.086708426E-2,7.104936819E-2
1.048295004E1,-1.913318597E-3,-1.557182964E-2,4.152751029E-2,4.439230538E-2
1.049290804E1,1.369673721E-3,-9.951778315E-4,1.636723369E-1,1.636810932E-1
1.050286604E1,-4.186825678E-3,-8.945828816E-3,1.225096929E-1,1.229072098E-1
1.051282404E1,5.750316326E-3,1.778357551E-3,1.635244024E-1,1.636351395E-1
1.052278204E1,2.555247858E-2,-7.709791381E-3,2.186116058E-1,2.202348842E-1
1.053274004E1,1.969713164E-2,7.243978428E-3,1.738576019E-1,1.751197246E-1
1.054269804E1,-1.595997512E-2,1.138655713E-2,1.418253851E-1,1.431740701E-1
1.055265604E1,1.829995774E-3,-1.768879579E-2,1.725127423E-1,1.734268971E-1
1.056261404E1,-8.547861837E-3,-5.513896951E-3,2.332851934E-1,2.335068532E-1
1.057257204E1,2.670880202E-3,1.505891006E-2,2.747477996E-1,2.751731415E-1
1.058252904E1,2.397785995E-2,-1.416745635E-2,2.103798956E-1,2.122153506E-1
1.059248704E1,1.657281814E-2,1.765684624E-2,1.799895769E-1,1.816113166E-1
1.060244504E1,4.984641708E-3,9.114621487E-3,1.835809368E-1,1.838746403E-1
1.061240304E1,1.562016053E-2,-7.961075474E-4,1.973528838E-1,1.979716746E-1
1.062236104E1,-1.015882457E-2,-6.942965593E-3,1.943632025E-1,1.947523067E-1
1.063231904E1,-7.272748556E-3,-1.901797755E-2,1.539472479E-1,1.552878986E-1
1.064227704E1,-5.761426035E-3,-9.692600481E-3,1.599347967E-1,1.603317802E-1
1.065223504E1,-9.744677246E-3,-6.353082033E-3,1.078407830E-1,1.084663767E-1
1.066219304E1,1.650482599E-2,-2.179076375E-2,9.631299734E-2,1.001171320E-1
1.067215104E1,8.871596586E-3,9.946762500E-3,9.226789355E-2,9.322557316E-2
1.068210904E1,-2.592984326E-3,-1.778488199E-2,9.570956469E-2,9.738247464E-2
1.069206704E1,2.037699837E-3,-9.495284362E-3,5.544446826E-2,5.628855751E-2
1.070202504E1,-9.755348414E-3,-1.204807822E-2,9.196910083E-2,9.326649194E-2
1.071198304E1,-1.531992428E-2,-1.138050891E-2,9.346774220E-2,9.539619959E-2
1.072194004E1,-1.085460668E-2,-7.091366099E-3,9.241816700E-2,9.332324228E-2
1.073189804E1,-7.326835301E-3,6.111043850E-3,9.646151662E-2,9.693220085E-2
1.074185604E1,9.176108614E-4,5.015842086E-3,8.627859056E-2,8.642913786E-2
1.075181404E1,2.885728832E-3,-6.216650046E-3,1.543840349E-1,1.545360941E-1
1.076177204E1,3.104853239E-3,-5.669396343E-3,1.624678105E-1,1.625963457E-1
1.077173004E1,7.657038532E-3,-9.910518900E-3,2.096197575E-1,2.099935508E-1
1.078168804E1,-1.854336636E-2,-1.175774569E-2,2.085736907E-1,2.097262155E-1
1.079164604E1,-6.621588003E-3,-2.167343572E-3,2.813259172E-1,2.814121791E-1
1.080160404E1,2.352554128E-3,9.197578859E-3,3.200964653E-1,3.202372200E-1
1.081156204E1,2.400128536E-2,9.817566443E-4,3.443477923E-1,3.451846283E-1
1.082152004E1,1.392841486E-2,1.338721851E-2,3.051316863E-1,3.057426440E-1
1.083147804E1,6.162563302E-3,-2.713784147E-3,3.939000213E-1,3.939575721E-1
1.084143604E1,1.462390462E-2,1.525392383E-3,4.181507635E-1,4.184091854E-1
1.085139404E1,1.148117239E-2,2.511351714E-3,4.359643060E-1,4.361226895E-1
1.086135204E1,8.192022219E-3,-8.377552545E-3,4.453964496E-1,4.455505470E-1
1.087130904E1,1.188245583E-2,8.472213484E-3,4.811726385E-1,4.813938920E-1
1.088126704E1,-2.460490074E-3,1.735807179E-2,4.843161017E-1,4.846333078E-1
1.089122504E1,-1.750786101E-2,-5.790214436E-3,4.430049384E-1,4.433885736E-1
1.090118304E1,-7.634727750E-3,-1.004360701E-2,4.614154816E-1,4.615879220E-1
1.091114104E1,-2.753855847E-3,1.547609976E-2,4.870122528E-1,4.872658697E-1
1.092109904E1,-5.111380108E-3,-1.510954329E-2,4.946475470E-1,4.949046578E-1
1.093105704E1,-2.667097785E-2,-1.164220836E-2,4.698003888E-1,4.707008470E-1
1.094101504E1,-2.571797306E-2,-1.116778904E-2,4.771409833E-1,4.779640694E-1
1.095097304E1,-4.972252920E-3,-4.396256497E-3,4.368776411E-1,4.369280532E-1
1.096093104E1,3.516277950E-3,-1.488895708E-2,4.449631709E-1,4.452260872E-1
1.097088904E1,-1.904118368E-2,-3.821520880E-3,4.518535298E-1,4.522706967E-1
1.098084704E1,1.922783777E-3,1.379655101E-2,4.777514327E-1,4.779544678E-1
1.099080504E1,2.374709593E-2,1.296036263E-2,4.680251741E-1,4.688064197E-1
1.100076204E1,2.560479289E-2,-1.747298785E-2,4.425769222E-1,4.436611801E-1
1.101072004E1,-1.383579131E-3,8.917917497E-3,4.332944673E-1,4.333884389E-1
1.102067804E1,-5.040208530E-3,6.771176225E-3,4.868859529E-1,4.869591191E-1
1.103063604E1,-1.045273852E-2,5.482376805E-3,4.755131185E-1,4.756595863E-1
1.104059404E1,6.046422981E-3,-1.075757031E-2,4.675796163E-1,4.677424314E-1
1.105055204E1,-7.294109166E-3,-1.214000741E-3,4.994650680E-1,4.995198014E-1
1.106051004E1,-1.030833056E-2,-8.847221006E-3,5.096433163E-1,5.098243274E-1
1.107046804E1,1.256182920E-3,-1.549355004E-2,5.433244479E-1,5.435467632E-1
1.108042604E1,3.691292424E-3,-7.767843269E-3,5.371889645E-1,5.372578046E-1
1.109038404E1,-1.064217003E-2,5.242394283E-4,5.591932064E-1,5.592947101E-1
1.110034204E1,-5.105752163E-3,-3.874164093E-3,5.728183883E-1,5.728542431E-1
1.111030004E1,-8.912965637E-3,-5.127304634E-3,5.991682810E-1,5.992565053E-1
1.112025804E1,-9.459662028E-3,-9.081730898E-3,6.109936899E-1,6.111343978E-1
1.113021604E1,-8.435010575E-3,1.095399108E-2,6.271629953E-1,6.273153609E-1
1.114017404E1,6.599916760E-3,-2.287650034E-3,6.551565403E-1,6.551937763E-1
1.115013104E1,7.182080168E-3,3.069130406E-3,7.066558921E-1,7.066990532E-1
1.116008904E1,-3.969546799E-3,9.480666323E-3,7.009712291E-1,7.010465779E-1
1.117004704E1,-4.914420303E-3,2.109172912E-2,6.735793626E-1,6.739274222E-1
1.118000504E1,1.927647930E-2,1.280087982E-2,7.099531370E-1,7.103301359E-1
1.118996304E1,1.348287530E-2,5.738886846E-3,7.270188206E-1,7.271664791E-1
1.119992104E1,6.524871401E-3,5.826156540E-3,7.544141954E-1,7.544649073E-1
1.120987904E1,-5.296206940E-3,-4.296652833E-3,7.677347374E-1,7.677650279E-1
1.121983704E1,3.278314546E-3,-5.737306271E-4,7.752203429E-1,7.752274869E-1
1.122979504E1,1.147479527E-2,-1.818118617E-4,7.686369628E-1,7.687226317E-1
1.123975304E1,2.648953144E-3,-1.749429365E-2,7.487277782E-1,7.489368152E-1
1.124971104E1,-7.641287595E-3,-7.030883962E-3,7.744754076E-1,7.745450146E-1
1.125966904E1,-1.532447414E-2,3.578066574E-3,8.714742833E-1,8.716163540E-1
1.126962704E1,-1.601771638E-2,-6.637448575E-3,8.309103942E-1,8.310912743E-1
1.127958504E1,-1.091410210E-2,-2.567544370E-2,8.118975878E-1,8.123767839E-1
1.128954304E1,-1.258196555E-2,-1.330543972E-2,7.559122521E-1,7.561340314E-1
1.129950004E1,-2.751246527E-2,2.273452263E-2,8.023151708E-1,8.031086026E-1
1.130945804E1,-1.296938013E-2,-6.616700096E-3,8.181798363E-1,8.183093731E-1
1.131941567E1,-1.852902241E-2,-4.204148054E-4,8.091973436E-1,8.094095640E-1
1.132937367E1,-1.436765039E-2,9.152399981E-3,7.852494872E-1,7.854342448E-1
1.133933167E1,-1.568442509E-3,1.529380367E-2,7.976754051E-1,7.978235472E-1
1.134928967E1,-2.309705000E-2,1.282002032E-2,8.168349767E-1,8.172620178E-1
1.135924767E1,-1.534287460E-2,1.459919100E-2,7.767183995E-1,7.770070864E-1
1.136920567E1,1.693719104E-3,7.297717994E-3,7.692345482E-1,7.692710287E-1
1.137916367E1,3.525648113E-2,1.864832388E-3,7.904897618E-1,7.912778024E-1
1.138912167E1,3.339156652E-2,-1.903311635E-2,8.436257493E-1,8.445008355E-1
1.139907967E1,7.893412225E-3,4.290284850E-3,7.877924412E-1,7.878436666E-1
1.140903767E1,2.686506886E-2,-3.099811843E-2,7.867434508E-1,7.878120795E-1
1.141899567E1,4.403854223E-2,6.236101175E-3,8.276061326E-1,8.288004542E-1
1.142895367E1,1.630962035E-2,1.474081239E-2,8.461669493E-1,8.464524802E-1
1.143891167E1,-5.097675696E-4,-6.289968649E-3,8.289509922E-1,8.289750123E-1
1.144886867E1,-6.902528442E-3,-4.051152002E-3,8.353852683E-1,8.354236071E-1
1.145882667E1,-4.541970938E-3,5.762906112E-3,8.672672117E-1,8.672982515E-1
1.146878467E1,-7.370415330E-3,-9.861959601E-3,8.672637033E-1,8.673510895E-1
1.147874267E1,-4.156381784E-2,-1.243293464E-2,9.326782590E-1,9.336867053E-1
1.148870067E1,-3.012803447E-2,-8.612400480E-4,9.383687693E-1,9.388526974E-1
1.149865867E1,-2.598087849E-2,1.328405170E-2,9.127719980E-1,9.132383000E-1
1.150861667E1,-1.039479626E-2,-2.399697304E-3,8.986995041E-1,8.987628214E-1
1.151857467E1,-1.880639970E-2,-8.565915115E-3,9.509373593E-1,9.511618774E-1
1.152853267E1,-1.329921791E-2,-9.036963154E-3,9.561764646E-1,9.563116476E-1
1.153849067E1,1.093560889E-2,-1.638654778E-2,9.807248300E-1,9.809226772E-1
1.154844867E1,3.572604910E-2,-1.289821769E-2,9.298306650E-1,9.306061359E-1
1.155840667E1,3.573341293E-2,-6.363725793E-3,9.551257199E-1,9.558151048E-1
1.156836467E1,-1.528029112E-2,2.039243868E-3,1.005866103E0,1.005984226E0
1.157832267E1,3.304590471E-4,-1.797792234E-2,9.578131002E-1,9.579818630E-1
1.158828067E1,-2.378099151E-3,1.272460107E-2,9.479313058E-1,9.480196893E-1
1.159823767E1,-7.449974008E-3,1.690938936E-2,9.335588497E-1,9.337416963E-1
1.160819567E1,-1.283893241E-2,1.849012015E-2,9.952282637E-1,9.954828073E-1
1.161815367E1,-3.109476194E-2,7.464911817E-3,9.480774862E-1,9.486166396E-1
1.162811167E1,-1.438095281E-2,6.528461957E-3,9.235297054E-1,9.236647386E-1
1.163806967E1,6.481894366E-3,3.344762670E-2,9.548128939E-1,9.554205467E-1
1.164802767E1,2.387335924E-2,3.514006672E-2,9.175368941E-1,9.185198493E-1
1.165798567E1,-4.381720684E-3,7.924566921E-3,9.316070491E-1,9.316510571E-1
1.166794367E1,-3.013753619E-2,-1.528747223E-2,9.121492696E-1,9.127750368E-1
1.167790167E1,-1.326594360E-2,1.544552978E-2,9.215796590E-1,9.218045441E-1
1.168785967E1,-4.805680364E-5,6.568012889E-3,9.413403243E-1,9.413632387E-1
1.169781767E1,-2.332198508E-3,-1.905549109E-2,9.170884126E-1,9.172893259E-1
1.170777567E1,-3.565624796E-2,-5.023498284E-3,9.244214058E-1,9.251224454E-1
1.171773367E1,-1.523610810E-2,1.452612821E-3,9.085555708E-1,9.086844746E-1
1.172769167E1,2.877893563E-2,-2.042969640E-2,9.211294234E-1,9.218053017E-1
1.173764967E1,1.963432889E-2,-5.289775003E-3,9.148436666E-1,9.150696273E-1
1.174760767E1,-1.034282913E-2,-1.874652970E-2,9.244243294E-1,9.246722378E-1
1.175756467E1,-6.927616652E-3,-8.300634250E-3,9.503216475E-1,9.503831470E-1
1.176752267E1,-2.074701749E-3,-1.138419083E-2,9.557081026E-1,9.557781550E-1
1.177748067E1,4.585349970E-3,8.463798976E-3,9.642391902E-1,9.642872380E-1
1.178743867E1,-1.764640348E-2,-7.762434594E-3,9.842998177E-1,9.844885891E-1
1.179739667E1,-4.127814481E-2,-3.381527038E-3,9.898429781E-1,9.907090599E-1
1.180735467E1,-1.024021050E-2,1.911687772E-2,1.009599550E0,1.009832446E0
1.181731267E1,1.877637791E-2,1.269744806E-2,9.902891207E-1,9.905484946E-1
1.182727067E1,8.432086967E-3,2.159304564E-2,9.814563167E-1,9.817300348E-1
1.183722867E1,-2.430389704E-2,7.188521242E-3,1.004356937E0,1.004676670E0
1.184718667E1,-9.031810295E-3,2.120923989E-2,9.902885360E-1,9.905568080E-1
1.185714467E1,-2.443368696E-3,7.200672487E-3,1.011847805E0,1.011876376E0
1.186710267E1,-1.855650432E-2,1.124245067E-2,9.850535238E-1,9.852924344E-1
1.187706067E1,-7.224965841E-5,8.554513045E-3,9.956796688E-1,9.957164193E-1
1.188701867E1,3.055224996E-3,2.196926828E-2,9.840010250E-1,9.842509844E-1
1.189697667E1,8.614611458E-3,-1.490126364E-5,9.890904415E-1,9.891279559E-1
1.190693467E1,-1.938852657E-2,-1.055517443E-2,9.883408284E-1,9.885873354E-1
1.191689167E1,-2.707756033E-2,-8.919616845E-3,9.587012923E-1,9.591250813E-1
1.192684967E1,-8.239878025E-3,-8.531608405E-3,9.631925386E-1,9.632655659E-1
1.193680767E1,-1.072964072E-3,3.035819549E-3,1.007500985E0,1.007506130E0
1.194676567E1,8.484255094E-3,1.588222543E-2,9.769674093E-1,9.771333309E-1
1.195672367E1,-9.374055136E-3,4.673341429E-3,9.875958931E-1,9.876514371E-1
1.196668167E1,-8.008383103E-3,-5.801251056E-3,9.895471090E-1,9.895965186E-1
1.197663967E1,-1.500285901E-3,6.333694858E-3,9.482341915E-1,9.482565310E-1
1.198659767E1,-3.937418176E-2,-1.202644352E-3,1.031761082E0,1.032512810E0
1.199655567E1,-1.140258215E-2,-1.256760333E-2,1.020688210E0,1.020829264E0
1.200651367E1,1.164838448E-2,1.012639993E-2,1.019943860E0,1.020060638E0
1.201647167E1,2.578011800E-2,2.486206859E-2,1.023987794E0,1.024613946E0
1.202642967E1,2.716397122E-4,-1.491342402E-2,1.026834803E0,1.026943132E0
1.203638767E1,8.479924500E-4,2.113265050E-2,1.051529934E0,1.051742606E0
1.204634567E1,-1.346882371E-2,1.238188114E-2,1.095241379E0,1.095394175E0
1.205630367E1,-2.205977222E-2,5.852688281E-3,1.043751383E0,1.044000880E0
1.206626067E1,-6.281133872E-3,1.336413114E-2,1.079975469E0,1.080076416E0
1.207621867E1,1.246756112E-2,-6.212447360E-3,1.081774072E0,1.081863752E0
1.208617667E1,3.334957620E-2,2.945689288E-2,1.100336643E0,1.101235956E0
1.209613467E1,3.384848988E-2,-4.823541781E-3,1.063963453E0,1.064512666E0
1.210609267E1,2.397979684E-3,1.639432275E-2,1.061271980E0,1.061401309E0
1.211605067E1,-2.263371298E-2,2.382416954E-2,1.100340736E0,1.100831327E0
1.212600867E1,-3.241647022E-2,2.463092999E-2,1.080878279E0,1.081644749E0
1.213596667E1,-1.734455924E-2,1.870666813E-2,1.065011274E0,1.065316754E0
1.214592467E1,2.136143195E-2,1.336578481E-2,1.052287733E0,1.052589392E0
1.215588267E1,8.833790682E-3,1.556342427E-2,1.071446135E0,1.071595575E0
1.216584067E1,-2.333059145E-2,-1.294811089E-2,1.052433913E0,1.052772108E0
1.217579867E1,-3.702769412E-2,-2.622670823E-2,1.041207844E0,1.042196078E0
1.218575667E1,-2.209324753E-2,-2.928486597E-3,1.069347569E0,1.069579783E0
1.219571467E1,1.323265102E-2,1.456862102E-2,1.050337687E0,1.050522062E0
1.220567267E1,-6.532253511E-4,-9.108545864E-3,1.043302901E0,1.043342866E0
1.221563067E1,-3.749921724E-2,-8.461149456E-3,1.009474420E0,1.010206111E0
1.222558767E1,-1.305230096E-2,1.235154871E-2,1.023846876E0,1.024004565E0
1.223554567E1,1.775671486E-2,-1.181619957E-2,1.021003375E0,1.021226133E0
1.224550367E1,3.021601679E-2,-2.260723606E-2,9.991494066E-1,9.998618062E-1
1.225546167E1,4.513319582E-3,-4.253666662E-4,1.031779209E0,1.031789168E0
1.226541967E1,-1.763582367E-2,-2.291553050E-2,1.044050760E0,1.044451116E0
1.227537767E1,-7.905855831E-3,-2.716205260E-2,1.043751968E0,1.044135264E0
1.228533567E1,1.511156240E-2,-1.548407572E-2,1.026686869E0,1.026914817E0
1.229529367E1,1.460205065E-2,-4.514415935E-3,1.036716013E0,1.036828670E0
1.230525167E1,-2.429099662E-2,-3.014806118E-3,1.050035970E0,1.050321227E0
1.231520992E1,-3.771030173E-2,-1.584374344E-2,1.032220089E0,1.033030204E0
1.232516792E1,-1.770991886E-2,1.478471219E-2,1.101828268E0,1.102069762E0
1.233512592E1,-1.669056645E-2,3.527350201E-2,1.060365661E0,1.061083470E0
1.234508392E1,6.471369378E-3,-6.363342069E-3,1.066502314E0,1.066540931E0
1.235504192E1,-3.517980952E-2,-1.514114566E-2,1.076829666E0,1.077510559E0
1.236499992E1,-5.253056316E-2,-4.321996858E-3,1.089400011E0,1.090674343E0
1.237495792E1,-3.823947474E-2,1.091457719E-2,1.117686501E0,1.118393714E0
1.238491592E1,1.834744809E-2,5.470316922E-3,1.092087391E0,1.092255200E0
1.239487292E1,-1.006461130E-2,3.124826962E-2,1.087898446E0,1.088393669E0
1.240483092E1,-2.126014721E-2,-4.061631309E-3,1.090598105E0,1.090812870E0
1.241478892E1,-1.191556569E-2,-2.666361401E-2,1.099579428E0,1.099967203E0
1.242474692E1,-1.356036918E-2,-5.448124912E-3,1.077574017E0,1.077673108E0
1.243470492E1,2.660026308E-3,1.658327004E-2,1.090447832E0,1.090577166E0
1.244466292E1,-1.080103157E-2,7.899496984E-3,1.040602072E0,1.040688108E0
1.245462092E1,-6.949653346E-3,1.732735564E-2,1.054374020E0,1.054539287E0
1.246457892E1,3.273527138E-3,1.572628750E-2,1.038654365E0,1.038778572E0
1.247453692E1,1.298480216E-2,8.776067700E-3,9.964403915E-1,9.965636349E-1
1.248449492E1,8.991464507E-3,2.212749942E-2,1.001527469E0,1.001812230E0
1.249445292E1,2.401475223E-2,2.787641790E-3,9.641035348E-1,9.644066078E-1
1.250441092E1,2.400042655E-2,5.243390137E-3,9.576675045E-1,9.579825483E-1
1.251436892E1,1.751767337E-2,4.548521647E-3,9.582685983E-1,9.584394944E-1
1.252432692E1,-1.866010968E-2,2.239190320E-2,8.974973166E-1,8.979705064E-1
1.253428492E1,-2.909117695E-3,6.388430279E-3,9.016856772E-1,9.017130006E-1
1.254424292E1,2.551980726E-3,-4.210726172E-4,8.392678195E-1,8.392718051E-1
1.255420092E1,3.816892443E-2,-2.316538934E-3,8.482485580E-1,8.491100337E-1
1.256415792E1,-8.982218597E-3,3.238763614E-3,8.650154489E-1,8.650681457E-1
1.257411592E1,6.456952337E-3,-3.611075934E-2,8.109795749E-1,8.118088138E-1
1.258407392E1,1.823370147E-2,-1.776383202E-2,8.198141330E-1,8.202092625E-1
1.259403192E1,5.532061692E-2,-1.418882609E-2,7.584446812E-1,7.605918931E-1
1.260398992E1,-1.652984111E-2,-9.093425330E-3,7.894320005E-1,7.896574001E-1
1.261394792E1,-4.308354573E-2,-3.012659093E-2,7.651847667E-1,7.669886117E-1
1.262390592E1,9.264748748E-3,-3.552526119E-2,7.547059715E-1,7.555984272E-1
1.263386392E1,4.707545813E-2,-3.134281179E-3,7.514157432E-1,7.528954387E-1
1.264382192E1,-1.087185597E-2,-1.474204578E-2,7.301605296E-1,7.303902547E-1
1.265377992E1,-5.448830232E-2,-4.803828442E-2,7.078534019E-1,7.115708612E-1
1.266373792E1,-3.018952159E-2,2.062111963E-3,7.232695860E-1,7.239023094E-1
1.267369592E1,4.621070975E-2,4.609698141E-3,6.822548765E-1,6.838336022E-1
1.268365392E1,-9.866354149E-3,-1.403231258E-3,7.144397056E-1,7.145092070E-1
1.269361192E1,-5.676584763E-2,-8.307066187E-4,6.834535557E-1,6.858074178E-1
1.270356992E1,-2.694952458E-2,-1.787850140E-2,6.556114537E-1,6.564086348E-1
1.271352792E1,1.803451242E-2,1.638482102E-2,7.042591184E-1,7.046805034E-1
1.272348492E1,-5.675234422E-3,-4.055619640E-3,6.699804014E-1,6.700167122E-1
1.273344292E1,-3.514118135E-2,9.619345833E-3,6.473768198E-1,6.484012502E-1
1.274340092E1,-1.413639301E-2,-4.297045693E-3,6.515692735E-1,6.517367723E-1
1.275335892E1,2.742788164E-2,3.419653625E-2,6.078619212E-1,6.094405689E-1
1.276331692E1,7.761447877E-4,4.726153663E-2,6.473826671E-1,6.491059797E-1
1.277327492E1,-2.246984476E-2,-5.447320919E-3,5.937917662E-1,5.942417259E-1
1.278323292E1,-6.171736121E-3,2.979762110E-2,5.604123509E-1,5.612379100E-1
1.279319092E1,2.743747473E-2,8.311862731E-3,5.744825059E-1,5.751974024E-1
1.280314892E1,2.617396452E-2,1.823910101E-2,5.244858885E-1,5.254552202E-1
1.281310692E1,-4.483919051E-3,-1.273981296E-2,6.107060069E-1,6.108553308E-1
1.282306492E1,1.357920818E-2,-5.679254383E-3,4.755359226E-1,4.757636625E-1
1.283302292E1,2.275158919E-2,-1.016183954E-2,4.728391868E-1,4.734952950E-1
1.284298092E1,2.337574292E-2,-1.608556235E-2,4.675983274E-1,4.684585003E-1
1.285293892E1,-8.163389135E-3,-5.502028931E-3,4.349615085E-1,4.350728986E-1
1.286289692E1,2.445433494E-3,-1.085783179E-2,4.732794821E-1,4.734103303E-1
1.287285492E1,2.017866813E-2,-3.137406698E-2,3.946917343E-1,3.964505970E-1
1.288281292E1,2.839298286E-3,-2.553094438E-2,3.779236740E-1,3.787957155E-1
1.289276992E1,1.069072019E-2,-2.024582888E-2,3.276282638E-1,3.284272588E-1
1.290272792E1,-5.365752261E-3,-5.090957793E-2,3.271780282E-1,3.311586305E-1
1.291268592E1,-1.208741901E-2,-1.942801354E-2,3.433438253E-1,3.441054138E-1
1.292264392E1,1.692443680E-2,-3.596186548E-2,2.337722665E-1,2.371268962E-1
1.293260192E1,-7.060056087E-3,-3.082881412E-2,2.545778292E-1,2.565348540E-1
1.294255992E1,-2.061198335E-3,-5.873497060E-2,2.149120724E-1,2.228031512E-1
1.295251792E1,-2.371097110E-2,-3.027331950E-2,2.152120346E-1,2.186204562E-1
1.296247592E1,1.327705331E-2,-5.383398975E-2,1.792832333E-1,1.876615473E-1
1.297243392E1,-6.524341498E-3,-3.191884476E-2,1.366201937E-1,1.404509061E-1
1.298239192E1,-1.412133643E-2,-3.237919422E-2,1.393122518E-1,1.437210070E-1
1.299234992E1,2.540998925E-3,-4.082951719E-2,6.656060994E-2,7.812695402E-2
1.300230792E1,6.972950846E-3,-1.403054014E-2,1.020374215E-1,1.032332964E-1
1.301226592E1,-1.625816485E-2,-7.760552522E-3,3.692224324E-2,4.108291793E-2
1.302222392E1,-1.916580247E-2,-7.739173640E-3,9.799699545E-2,1.001530524E-1
1.303218192E1,1.549707664E-2,6.482588723E-3,6.626474082E-2,6.836080176E-2
1.304213992E1,1.920627616E-2,2.962774121E-2,4.949784994E-2,6.080066811E-2
1.305209792E1,2.098108884E-3,1.205068205E-2,4.381084800E-2,4.548638699E-2
1.306205592E1,1.292802935E-2,1.181336733E-2,-4.388920069E-3,1.805414661E-2
1.307201292E1,4.622059520E-3,5.215232139E-2,2.344908893E-2,5.736800356E-2
1.308197092E1,2.572544653E-2,6.608092812E-2,2.614348590E-2,7.557757283E-2
1.309192892E1,3.568669003E-2,1.540672802E-2,4.590298176E-2,6.014973689E-2
1.310188692E1,1.926182471E-3,5.053362938E-2,-2.294447422E-3,5.062235046E-2
1.311184492E1,7.314976417E-3,3.132442047E-2,-7.386202812E-3,3.300430562E-2
1.312180292E1,3.376781657E-2,1.508942521E-2,4.260924518E-2,5.642254837E-2
1.313176092E1,3.282546468E-2,1.785555108E-2,9.957808256E-4,3.738078939E-2
1.314171892E1,-3.793289792E-2,2.088891297E-2,2.539913535E-2,5.020326191E-2
1.315167692E1,8.758781869E-3,-2.647025390E-2,-3.058210731E-2,4.138424686E-2
1.316163492E1,4.267259611E-2,-8.146212939E-3,2.196038783E-2,4.867822796E-2
1.317159292E1,2.539719846E-3,-1.114990935E-3,6.851299524E-2,6.856911768E-2
1.318155092E1,-8.996854909E-3,-5.042342763E-2,-4.233384132E-3,5.139442571E-2
1.319150892E1,1.245438661E-2,-6.325773709E-2,4.172222257E-2,7.679451089E-2
1.320146692E1,2.111495353E-2,-5.897360095E-2,-2.833209872E-2,6.874907046E-2
1.321142492E1,-9.350958634E-3,-8.598649473E-2,5.893876433E-2,1.046656374E-1
1.322138292E1,-1.489026356E-2,-6.776489882E-2,4.188009739E-2,8.104161905E-2
1.323134092E1,3.588434419E-2,-7.737462415E-2,-1.619854152E-2,8.681538670E-2
1.324129892E1,3.497009547E-2,-3.901876241E-2,6.717924535E-2,8.519637553E-2
1.325125592E1,-2.045993747E-2,-5.442782932E-2,-2.488048732E-2,6.324584014E-2
1.326121392E1,-1.149452962E-3,-7.221340567E-2,1.022034824E-1,1.251465102E-1
1.327117192E1,1.199993005E-2,-2.824502089E-2,3.678892672E-2,4.790829423E-2
1.328112992E1,7.221640237E-3,-4.231934206E-2,3.633810639E-2,5.624532670E-2
1.329108792E1,-1.777517013E-2,2.312917314E-2,6.597238004E-2,7.213369706E-2
1.330104592E1,1.618359458E-2,-2.673549822E-2,5.623559654E-2,6.433613228E-2
1.331100392E1,-2.237035073E-3,2.079746800E-2,9.530142903E-2,9.756998194E-2
1.332096242E1,-9.749117475E-3,-9.199113753E-3,4.590590537E-2,4.782280975E-2
1.333092042E1,-1.973672826E-3,2.405398339E-2,8.961910486E-2,9.281203294E-2
1.334087842E1,-9.557255711E-3,3.938519097E-2,2.495182335E-2,4.759335976E-2
1.335083642E1,7.380757593E-3,5.721060148E-2,7.779252648E-2,9.684629926E-2
1.336079442E1,1.647794707E-2,3.069108479E-2,3.857291222E-2,5.197436851E-2
1.337075242E1,-2.141009174E-2,2.076151676E-2,3.527976036E-2,4.619625632E-2
1.338071042E1,-1.248342169E-2,4.374418060E-2,4.036566854E-2,6.081756613E-2
1.339066842E1,-1.310916513E-2,3.711442477E-2,4.545333087E-2,6.012766438E-2
1.340062642E1,1.008366957E-2,-4.116960587E-3,9.589726031E-2,9.651380363E-2
1.341058442E1,-3.610856663E-2,3.060703106E-2,-1.232651532E-2,4.891382131E-2
1.342054142E1,-8.402978797E-3,-7.969727525E-3,8.332282305E-3,1.426721900E-2
1.343049942E1,2.683826303E-2,2.144146571E-3,7.138280869E-3,2.785399039E-2
1.344045742E1,1.116849253E-2,3.935760856E-3,4.710341513E-2,4.856909672E-2
1.345041542E1,-1.188879641E-2,-1.103062615E-2,2.734567344E-2,3.179314469E-2
1.346037342E1,-1.337572508E-2,-6.088599678E-2,-1.093429327E-3,6.234749564E-2
1.347033142E1,4.111307060E-2,-5.467243480E-2,1.148159266E-2,6.936271816E-2
1.348028942E1,1.097047292E-2,-5.434744838E-2,-1.456424475E-2,5.732463385E-2
1.349024742E1,-1.883996638E-2,-1.082253836E-1,3.498856902E-2,1.152904070E-1
1.350020542E1,-4.227610007E-3,-6.532373196E-2,-1.965015292E-2,6.834611294E-2
1.351016342E1,4.270137537E-2,-7.813547482E-2,-1.635758579E-2,9.053248310E-2
1.352012142E1,3.235350301E-2,-4.528400830E-2,-1.710369051E-2,5.822307785E-2
1.353007942E1,-1.667951155E-2,-7.432803294E-2,3.552768230E-3,7.625932565E-2
1.354003742E1,1.649247374E-2,-4.668561330E-2,6.098061204E-3,4.988721810E-2
1.354999542E1,3.082553420E-2,-7.033495110E-2,-4.779221714E-2,9.045062146E-2
1.355995342E1,-2.822743356E-3,-3.427336318E-2,-2.384319127E-2,4.184649416E-2
1.356991142E1,3.661087900E-3,-5.300544843E-2,-2.100319862E-2,5.713243807E-2
1.357986942E1,7.870260905E-3,1.211776058E-2,3.138785362E-2,3.455399374E-2
1.358982642E1,1.129886717E-2,1.873270651E-2,-2.938810587E-2,3.663658635E-2
1.359978442E1,1.433676979E-2,1.539765570E-2,9.230999351E-3,2.297481486E-2
1.360974242E1,7.161779366E-3,2.754795969E-2,-3.447869182E-2,4.470974565E-2
1.361970042E1,2.548370071E-2,5.203769770E-2,3.302916706E-2,6.669532862E-2
1.362965842E1,-4.540454317E-3,4.022795747E-2,2.284799516E-2,4.648585990E-2
1.363961642E1,-7.491251696E-3,4.322371446E-3,-5.184901536E-2,5.256540821E-2
1.364957442E1,7.572326995E-4,7.799644813E-2,4.799160719E-2,9.158173225E-2
1.365953242E1,-1.443549637E-3,7.247487671E-2,1.071443796E-2,7.327680922E-2
1.366949042E1,-9.752461351E-3,4.046861608E-2,8.196802318E-2,9.193245463E-2
1.367944842E1,6.144802384E-3,4.569010656E-2,-1.159152031E-2,4.753638372E-2
1.368940642E1,-3.555107117E-2,4.255163183E-2,2.327776551E-3,5.549719431E-2
1.369936442E1,-2.106128706E-2,-5.387021508E-4,1.130851507E-3,2.109850321E-2
1.370932242E1,-4.484631680E-4,1.253430161E-2,4.364595652E-2,4.541232604E-2
1.371928042E1,-9.305295534E-4,-1.857923537E-2,5.458200395E-2,5.766497228E-2
1.372923842E1,-1.407585606E-2,-2.714237306E-2,-1.621491373E-2,3.460869206E-2
1.373919642E1,4.164003264E-3,-7.410536366E-2,4.051828086E-2,8.456166348E-2
1.374915442E1,2.002123185E-4,-6.519028754E-2,-1.426545203E-2,6.673317613E-2
1.375911242E1,-8.243660443E-4,-8.394397094E-2,7.270778775E-2,1.110571575E-1
1.376907042E1,-6.283454485E-3,-1.022759605E-1,-4.073755145E-3,1.025497409E-1
1.377902742E1,1.553113667E-2,-1.191974006E-1,4.192453623E-4,1.202057082E-1
1.378898542E1,3.229163216E-2,-7.080898670E-2,5.251325905E-2,9.388452738E-2
1.379894342E1,1.046689974E-2,-7.157116212E-2,3.320575297E-2,7.959025862E-2
1.380890142E1,2.008847483E-3,-9.072959161E-2,4.622984111E-2,1.018483798E-1
1.381885942E1,2.946978416E-2,-4.537596490E-2,-3.999261618E-2,6.728191227E-2
1.382881742E1,2.979900068E-2,-8.184439112E-3,4.518318951E-2,5.474016897E-2
1.383877542E1,1.767825253E-2,1.374269268E-2,2.482435405E-2,3.343098516E-2
1.384873342E1,4.217304289E-5,-3.172836257E-3,5.386688948E-2,5.396026733E-2
1.385869142E1,1.812333528E-2,3.158184414E-2,9.556104541E-3,3.764554814E-2
1.386864942E1,4.817974135E-2,2.658252957E-2,-2.517518699E-2,6.051205165E-2
1.387860742E1,3.384887360E-2,4.251999292E-2,3.035640478E-2,6.225116347E-2
1.388856542E1,3.190858472E-2,3.917031493E-2,-1.170612574E-2,5.186043512E-2
1.389852342E1,1.064087268E-2,5.845468797E-2,7.242068946E-2,9.367462292E-2
1.390848142E1,-8.334986642E-3,2.721662357E-2,-7.666927636E-2,8.178260535E-2
1.391843942E1,-2.396347946E-2,2.318721590E-2,-1.748317480E-4,3.334555285E-2
1.392839742E1,-1.243600443E-2,2.923159235E-2,1.344918072E-2,3.449667607E-2
1.393835542E1,-4.824972522E-2,1.690388018E-2,1.269898295E-2,5.267866092E-2
1.394831342E1,-1.335030796E-2,-4.764101179E-3,6.412056684E-3,1.555769435E-2
1.395827042E1,-3.017397165E-2,3.166812711E-2,-4.134039938E-2,6.018610688E-2
1.396822842E1,-1.000578832E-1,1.216377817E-1,3.665268660E-2,1.617119332E-1
1.397818642E1,-5.883420881E-2,9.933731432E-2,-3.234913588E-2,1.198992608E-1
1.398814442E1,5.054307628E-2,2.069811101E-2,5.253197014E-2,7.578009136E-2
1.399810242E1,9.351439202E-2,-5.718796179E-3,-2.679545045E-2,9.744558640E-2
1.400806042E1,3.132861402E-2,-1.108088023E-1,-1.556411862E-2,1.161994600E-1
1.401801842E1,5.205147520E-2,-9.111992980E-2,-2.917760611E-4,1.049394245E-1
1.402797642E1,1.432517585E-1,-5.580418166E-2,-1.436193109E-2,1.544067294E-1
1.403793442E1,1.376205244E-1,-2.990857202E-2,-5.677061677E-3,1.409473677E-1
1.404789242E1,1.018238519E-1,-7.021768701E-2,-7.466309667E-3,1.239127361E-1
1.405785042E1,9.377839381E-2,-8.275009741E-2,9.449100494E-3,1.254242850E-1
1.406780842E1,6.811288124E-2,1.187547572E-2,2.651186049E-2,7.404910709E-2
1.407776642E1,5.841344682E-2,-4.126977598E-2,1.947239757E-2,7.412489087E-2
1.408772442E1,2.173461221E-2,-1.054725328E-2,-1.256800532E-2,2.723219928E-2
1.409768242E1,-1.618891189E-2,-3.040780546E-2,-4.042180181E-3,3.468507924E-2
1.410764042E1,-2.085319927E-2,3.730724584E-3,4.624621332E-2,5.086734190E-2
1.411759842E1,-3.326824509E-2,-2.673310451E-3,4.339569569E-2,5.474585942E-2
1.412755642E1,-4.450845737E-2,8.366890512E-3,1.420171738E-2,4.746257906E-2
1.413751342E1,-5.319380186E-2,-3.048436744E-3,-2.457409322E-2,5.867503371E-2
1.414747142E1,-5.354529262E-2,-3.200137272E-2,2.497111917E-2,6.719183738E-2
1.415742942E1,-3.700295309E-2,-3.167174508E-2,1.059924781E-2,4.984638430E-2
1.416738742E1,1.063363675E-2,-1.972064842E-4,3.919213235E-2,4.060955995E-2
1.417734542E1,-1.443790834E-2,-3.240198009E-3,-8.253929615E-3,1.694341862E-2
1.418730342E1,-7.930635234E-2,-1.359476726E-2,-2.606454849E-2,8.457940593E-2
1.419726142E1,-7.360387355E-2,-1.267475355E-4,1.719724596E-2,7.558631844E-2
1.420721942E1,-3.986856384E-2,1.029081632E-2,2.887472034E-2,5.029068261E-2
1.421717742E1,-1.330851864E-2,3.931345294E-2,6.480176747E-2,7.695409877E-2
1.422713542E1,2.524389178E-2,8.757336510E-2,-6.408139050E-2,1.114126248E-1
1.423709342E1,2.292283952E-2,9.917835228E-2,3.755842030E-2,1.085008621E-1
1.424705142E1,5.427142544E-2,7.800918410E-2,2.348768055E-2,9.789020155E-2
1.425700942E1,5.725410841E-3,5.363391448E-2,2.019628286E-2,5.759571992E-2
1.426696742E1,6.733763181E-3,1.419608943E-2,3.995870233E-2,4.293681885E-2
1.427692542E1,8.120430373E-3,-8.031744557E-3,-8.086699247E-3,1.399446372E-2
1.428688342E1,4.761643521E-3,-4.911832910E-2,4.565096676E-2,6.722569649E-2
1.429684142E1,5.828106221E-2,-6.549416916E-2,2.260299683E-2,9.053763788E-2
1.430679942E1,8.562289841E-2,-6.463642831E-2,1.991444707E-2,1.091133988E-1
1.431675658E1,3.061720887E-2,-1.040454375E-1,1.243761241E-2,1.091675811E-1
1.432671358E1,3.323467841E-2,-1.436834840E-1,-2.034421742E-2,1.488736868E-1
1.433667158E1,5.210854037E-2,-1.045792701E-1,6.468073010E-2,1.335504420E-1
1.434662958E1,-2.904768828E-3,-1.201143353E-1,-1.600032091E-2,1.212101543E-1
1.435658758E1,-2.091360832E-2,-9.031615692E-2,2.576458633E-2,9.621954647E-2
1.436654558E1,1.217158237E-2,-8.070623972E-2,-4.144740343E-2,9.153978260E-2
1.437650358E1,2.366463192E-2,-3.621025337E-3,1.453208506E-2,2.800550168E-2
1.438646158E1,1.848494902E-2,-1.271699055E-2,3.802912116E-2,4.415460616E-2
1.439641958E1,-3.314068442E-2,5.038381275E-3,-2.664049923E-2,4.281829573E-2
1.440637758E1,-3.225897912E-2,4.071181457E-2,-2.543538809E-3,5.200541480E-2
1.441633558E1,2.346147772E-2,3.407741751E-2,-2.215802372E-2,4.693281726E-2
1.442629358E1,-1.365851104E-2,4.494870703E-2,8.307314694E-2,9.543630824E-2
1.443625158E1,-1.448358972E-2,5.647012470E-2,-1.526883423E-2,6.026430663E-2
1.444620958E1,5.642508287E-3,7.275129469E-2,2.484774292E-2,7.708436357E-2
1.445616758E1,2.118599720E-2,5.632696842E-2,-2.065879762E-2,6.362672212E-2
1.446612558E1,-3.114384200E-2,5.612410658E-2,2.155517578E-2,6.770878700E-2
1.447608358E1,-3.819896450E-2,4.960849936E-2,4.924817383E-2,7.965894001E-2
1.448604158E1,-2.583453365E-2,-5.486469856E-3,-1.226804316E-2,2.912094372E-2
1.449599958E1,8.254952878E-3,4.040316381E-3,2.141484261E-2,2.330373119E-2
1.450595658E1,2.113435898E-2,6.076380825E-3,-2.348943472E-2,3.217665422E-2
1.451591458E1,-6.393765863E-3,-2.220211538E-2,5.015917003E-2,5.522460056E-2
1.452587258E1,-9.099528361E-3,-3.937376149E-2,1.692768931E-2,4.381370991E-2
1.453583058E1,1.602098716E-2,-3.516504530E-2,9.104114771E-4,3.865334772E-2
1.454578858E1,4.207199570E-2,-1.232634173E-2,3.156327009E-3,4.395399780E-2
1.455574658E1,1.572378416E-2,-5.386897255E-2,1.737909436E-2,5.874637446E-2
1.456570458E1,5.246304609E-3,-2.525986198E-2,1.647745371E-2,3.061193918E-2
1.457566258E1,3.103435289E-2,-1.120770542E-2,-1.645815790E-2,3.687295325E-2
1.458562058E1,-1.083986074E-2,-3.713265164E-3,1.951215863E-3,1.162317350E-2
1.459557858E1,-2.874874938E-3,-1.394320649E-2,-9.725089073E-3,1.724109250E-2
1.460553658E1,3.548163548E-4,-5.124353617E-3,4.461250126E-2,4.490723955E-2
1.461549458E1,-1.160727125E-2,6.563727977E-3,-4.485399127E-3,1.406876242E-2
1.462545258E1,-6.918955464E-3,-4.804419558E-3,1.122957766E-2,1.403772797E-2
1.463541058E1,4.597044401E-3,-2.922478583E-2,-5.987548828E-3,3.018396370E-2
1.464536858E1,4.472372627E-2,-9.515603436E-3,2.245564699E-2,5.094128465E-2
1.465532658E1,1.372741682E-2,2.090938736E-2,5.539125860E-2,6.077693626E-2
1.466528458E1,7.084705755E-3,-4.519652847E-2,-2.827830434E-2,5.378272713E-2
1.467524258E1,1.190518688E-2,-2.740050936E-2,3.654100478E-2,4.719922052E-2
1.468520058E1,4.794490255E-2,-2.681851041E-2,1.817314625E-3,5.496588773E-2
1.469515858E1,2.608764499E-2,-9.239139771E-3,7.187280536E-2,7.701705704E-2
1.470511558E1,3.900021577E-2,-4.426677550E-2,-7.311943173E-3,5.944769766E-2
1.471507358E1,6.457895201E-2,-7.384046651E-3,-1.299777567E-2,6.628655489E-2
1.472503158E1,7.263714608E-2,-2.116694807E-2,4.209059715E-2,8.657836363E-2
1.473498958E1,2.744586183E-2,-4.027959569E-2,-2.217848897E-3,4.879180274E-2
1.474494758E1,-2.998397369E-2,-3.722966974E-2,6.589110374E-2,8.140469605E-2
1.475490558E1,-1.391273702E-2,-7.793333475E-4,-2.856540263E-2,3.178291741E-2
1.476486358E1,-6.983512379E-3,2.422795633E-2,5.750151873E-2,6.278684551E-2
1.477482158E1,-6.479080394E-3,2.076482409E-2,-5.518017411E-3,2.244114343E-2
1.478477958E1,-2.642915893E-2,3.965085556E-2,6.842879534E-2,8.338579507E-2
1.479473758E1,-3.179609891E-2,4.389904959E-2,1.379241228E-2,5.593164665E-2
1.480469558E1,-4.539801987E-2,1.630243924E-2,8.850345612E-3,4.904159816E-2
1.481465358E1,-1.545737039E-2,4.669907103E-2,4.627194107E-2,6.753388827E-2
1.482461158E1,-9.864764437E-3,1.572281571E-2,2.127684832E-2,2.823516930E-2
1.483456958E1,-6.258073915E-3,8.110389607E-3,4.732619405E-2,4.842221135E-2
1.484452758E1,4.781714089E-2,-1.335593591E-2,-2.093069315E-2,5.387906739E-2
1.485448558E1,8.741770126E-4,-2.226866400E-3,-5.689340830E-4,2.459025295E-3
1.486444358E1,-9.261276964E-3,-5.657537458E-2,-7.295570970E-3,5.779073988E-2
1.487440158E1,9.950298239E-3,-9.207861735E-2,2.893553138E-2,9.702960984E-2
1.488435958E1,3.503017562E-2,-2.191960350E-2,-6.987422705E-4,4.132880910E-2
1.489431758E1,5.921027614E-2,-4.386893643E-2,-1.087348223E-2,7.448874411E-2
1.490427458E1,2.876773456E-2,-7.020843197E-2,5.296992660E-3,7.605829739E-2
1.491423258E1,1.821760336E-2,-7.289336376E-2,-2.314561844E-2,7.861961082E-2
1.492419058E1,1.872475795E-2,-4.489665767E-3,3.493185103E-2,3.988744007E-2
1.493414858E1,4.931821251E-2,-3.325898090E-2,-2.673873246E-2,6.521813942E-2
1.494410658E1,1.664314918E-2,-5.861159435E-2,-1.087055862E-2,6.189089150E-2
1.495406458E1,-2.987141479E-3,-2.813141132E-2,-6.083443165E-3,2.893626786E-2
1.496402258E1,4.032524966E-2,1.440594052E-2,-3.544582129E-3,4.296767325E-2
1.497398058E1,2.790490480E-2,1.566322893E-4,1.770478427E-2,3.304795957E-2
1.498393858E1,2.719868906E-3,-1.004120417E-2,-5.654432952E-2,5.749334457E-2
1.499389658E1,1.656903572E-2,3.600586577E-2,1.904555082E-2,4.397372307E-2
1.500385458E1,4.527937621E-3,2.080948220E-2,1.919816315E-2,2.867239503E-2
1.501381258E1,-2.968720922E-2,2.680046626E-2,3.431613922E-2,5.269907774E-2
1.502377058E1,-3.479935678E-2,4.962266972E-3,-1.910870075E-3,3.520327755E-2
1.503372858E1,-2.207535870E-2,3.730995932E-2,8.868471980E-3,4.424934261E-2
1.504368658E1,3.287291849E-2,2.967685782E-2,4.000372589E-2,5.967950021E-2
1.505364458E1,2.632474959E-2,3.952452829E-2,-4.156200886E-3,4.767027148E-2
1.506360258E1,-3.466819642E-2,1.441786336E-2,5.631570339E-2,6.768468863E-2
1.507356058E1,-4.933853159E-2,-3.701115746E-2,-1.792873263E-2,6.423049065E-2
1.508351858E1,3.904295526E-3,-4.137297934E-3,1.904730499E-2,1.987864646E-2
1.509347658E1,2.717296131E-2,-1.250573248E-2,1.485426664E-2,3.339779048E-2
1.510343458E1,1.546460632E-2,-2.506330417E-2,3.386648834E-2,4.488053361E-2
1.511339158E1,3.824566914E-2,-3.471324739E-2,1.111672640E-2,5.283296658E-2
1.512334958E1,1.986282712E-2,-2.677131241E-2,-2.854844570E-2,4.388905127E-2
1.513330758E1,4.643208168E-2,-2.636599987E-2,3.028331459E-2,6.138553006E-2
1.514326558E1,2.912925694E-2,-6.072306960E-2,3.702164590E-2,7.685315255E-2
1.515322358E1,-1.015449397E-2,-3.430622636E-2,2.741759419E-3,3.588242132E-2
1.516318158E1,5.976599917E-2,-1.191656155E-2,-5.190573335E-3,6.116307013E-2
1.517313958E1,7.029387441E-2,-1.665332699E-3,3.657141030E-2,7.925572637E-2
1.518309758E1,1.257768977E-2,-4.406434307E-2,3.492191076E-2,5.761427307E-2
1.519305558E1,-2.738576341E-2,-1.305293136E-2,4.085449576E-3,3.061127167E-2
1.520301358E1,2.206479717E-2,-3.896621056E-4,-3.099609017E-3,2.228485330E-2
1.521297158E1,1.513648616E-2,1.944464156E-3,1.890170932E-2,2.429338942E-2
1.522292958E1,9.469510932E-3,-6.616581324E-4,-2.206739187E-3,9.745723504E-3
1.523288758E1,-9.576825611E-4,-5.372905964E-3,5.003462434E-2,5.033139087E-2
1.524284558E1,3.428083666E-2,2.004434662E-3,-2.092016816E-2,4.021003551E-2
1.525280358E1,1.458111031E-2,2.059843426E-2,8.266793489E-3,2.655643324E-2
1.526276158E1,-1.508910544E-3,-1.689244157E-2,-2.481675267E-2,3.005832008E-2
1.527271958E1,3.154203739E-2,-1.902150415E-2,5.227118433E-2,6.394524575E-2
1.528267758E1,-2.184600167E-2,-2.825785736E-2,1.514721215E-2,3.879680821E-2
1.529263558E1,-1.013075793E-2,-3.409511447E-2,-3.006287456E-2,4.657129495E-2
1.530259358E1,-1.211895743E-2,-4.961170619E-3,2.868643999E-3,1.340565036E-2
1.531255058E1,2.005368389E-2,6.690311059E-3,1.993140399E-2,2.905462725E-2
1.532250917E1,-1.192930665E-2,1.162695078E-2,3.040552139E-2,3.466972848E-2
1.533246717E1,-3.327301422E-2,-3.778554808E-2,-1.150848985E-2,5.164577870E-2
1.534242517E1,-2.651001496E-2,-1.009713644E-3,7.948704958E-3,2.769444575E-2
1.535238317E1,-1.319577701E-2,-4.746385943E-4,-2.468460560E-2,2.799434883E-2
1.536234117E1,2.303547151E-3,6.042348202E-3,7.126469493E-2,7.155748070E-2
1.537229917E1,-5.191706233E-3,-1.185579618E-2,4.952006936E-3,1.385770867E-2
1.538225717E1,7.069722265E-3,-1.433678806E-2,2.007232189E-2,2.565974612E-2
1.539221517E1,-3.254724685E-3,-5.098178191E-3,-1.390935659E-2,1.516755928E-2
1.540217317E1,1.571775422E-2,2.865656437E-3,1.947298229E-2,2.518842638E-2
1.541213117E1,9.551773947E-3,-1.475487311E-2,7.231193125E-2,7.441745808E-2
1.542208917E1,-8.165746294E-3,-1.521492108E-2,3.755666614E-3,1.767139688E-2
1.543204717E1,1.321408611E-2,-2.939295723E-2,-7.168101668E-3,3.301423463E-2
1.544200517E1,6.319201073E-2,6.081542820E-3,3.175038099E-4,6.348477133E-2
1.545196317E1,3.795376517E-2,-1.620096263E-2,4.178244889E-2,5.872591009E-2
1.546192117E1,-8.444658481E-3,-4.590043274E-2,-2.063657820E-2,5.102970059E-2
1.547187917E1,4.965894073E-3,-2.878815413E-2,-8.059802055E-3,3.030475757E-2
1.548183717E1,5.441897627E-2,4.169950979E-3,-2.003723860E-2,5.814038528E-2
1.549179517E1,4.037438454E-2,-1.189533798E-3,-2.373969555E-3,4.046160710E-2
1.550175317E1,-1.196185006E-2,-4.343538366E-2,5.630225480E-2,7.210868398E-2
1.551171117E1,2.115908174E-2,3.156098602E-3,-1.225634873E-2,2.465533984E-2
1.552166917E1,4.973235983E-2,1.691128970E-2,-1.784570217E-3,5.255933813E-2
1.553162617E1,2.600183710E-2,-1.205954424E-2,-1.825325310E-2,3.398101513E-2
1.554158417E1,-1.221033845E-2,-1.182511657E-2,1.811759770E-2,2.484296869E-2
1.555154217E1,-1.027224228E-2,7.847310584E-3,1.332521975E-2,1.856504043E-2
1.556150017E1,-1.426035399E-2,6.441649077E-3,-1.257560670E-2,2.007482061E-2
1.557145817E1,2.634006198E-3,3.670470854E-3,4.071533203E-2,4.096521216E-2
1.558141617E1,-6.117704194E-3,-1.114887695E-2,2.380050659E-2,2.698495647E-2
1.559137417E1,-1.150182037E-2,8.430679981E-3,5.658292115E-2,5.835233673E-2
1.560133217E1,3.249363519E-2,-7.248957697E-3,7.334747314E-3,3.409079398E-2
1.561129017E1,-1.543498652E-2,2.094205867E-2,1.167455077E-2,2.851497442E-2
1.562124817E1,-3.067639366E-2,-3.393501953E-2,3.413253665E-2,5.707588577E-2
1.563120617E1,1.595496845E-2,-2.121658545E-2,2.725036383E-2,3.804322338E-2
1.564116417E1,7.016384695E-3,-6.935309395E-3,8.622771978E-2,8.679025193E-2
1.565112217E1,1.642749656E-2,-3.499892042E-2,-1.496302485E-2,4.145695583E-2
1.566108017E1,1.226088032E-3,-5.561983905E-2,2.949394047E-2,6.296794670E-2
1.567103817E1,2.346262889E-2,-5.619640192E-2,-9.873023629E-3,6.169284512E-2
1.568099617E1,4.630607419E-2,-3.636243629E-2,6.436907351E-2,8.723449378E-2
1.569095417E1,3.484752322E-2,-6.185410383E-2,7.638802528E-3,7.140470110E-2
1.570091217E1,1.357513340E-2,-4.796213357E-2,-7.927070260E-3,5.047265543E-2
1.571087017E1,4.445027757E-2,-2.031500875E-2,1.707211554E-2,5.176856079E-2
1.572082817E1,4.534069888E-2,-3.782472443E-3,9.051489830E-4,4.550720127E-2
1.573078617E1,-1.411086626E-2,-2.574982211E-2,5.359440923E-2,6.111080580E-2
1.574074417E1,-4.167769236E-2,-3.302868283E-2,-4.939435422E-2,7.257910278E-2
1.575070217E1,5.334743746E-3,2.534761590E-2,2.410163820E-2,3.538149356E-2
1.576065917E1,1.093091285E-2,3.284290583E-2,-1.766209960E-2,3.885989039E-2
1.577061717E1,-7.822660916E-3,9.626161493E-3,1.152486205E-2,1.693161109E-2
1.578057517E1,-2.088499350E-2,4.650741027E-2,-3.008860230E-2,5.919836275E-2
1.579053317E1,1.347585864E-2,3.437806489E-2,-1.707036138E-2,4.067981501E-2
1.580049117E1,-1.846073790E-2,3.042194841E-2,-1.721888065E-2,3.953205838E-2
1.581044917E1,-9.763735514E-3,-1.127237197E-2,2.090379596E-3,1.505877113E-2
1.582040717E1,-2.108262939E-2,1.838053968E-3,1.451454341E-2,2.566179407E-2
1.583036517E1,-2.464354718E-2,-3.408515593E-3,-1.856549442E-2,3.104190682E-2
