"Time (s)","Linear Acceleration x (m/s^2)","Linear Acceleration y (m/s^2)","Linear Acceleration z (m/s^2)","Absolute acceleration (m/s^2)"
9.424416665E-3,1.988129336E-1,-5.964920104E-1,-1.019780138E0,1.198032065E0
1.947941667E-2,1.794776532E-1,-5.326658508E-1,-1.060127680E0,1.199923262E0
2.953441667E-2,1.278949785E-1,-4.755929330E-1,-1.266795178E0,1.359159956E0
3.958941666E-2,7.311943173E-2,-3.068972531E-1,-1.496635192E0,1.529525833E0
4.964441666E-2,-2.625429064E-2,-5.885222554E-3,-1.556209549E0,1.556442123E0
5.969941667E-2,-1.456939030E-1,1.433105779E-1,-1.349209344E0,1.364599021E0
6.975441667E-2,-2.310857633E-1,6.558997214E-2,-1.047746201E0,1.074930126E0
7.980941666E-2,-1.617199516E-1,-9.035146862E-2,-8.202748936E-1,8.409325965E-1
8.986441667E-2,-1.571556151E-1,-8.227295548E-2,-5.717056632E-1,5.985934279E-1
9.991941667E-2,-2.468516108E-1,-1.653124809E-2,-3.385210419E-1,4.192916595E-1
1.099744167E-1,-2.244269541E-1,-6.848989874E-2,-3.111636740E-1,3.897193297E-1
1.200294167E-1,-1.435049978E-1,-1.500380918E-1,-3.757444167E-1,4.292889238E-1
1.300844167E-1,-1.424755955E-1,-1.772153655E-1,-3.266149414E-1,3.979722364E-1
1.401394167E-1,-9.622324258E-2,-2.492510158E-1,-2.749740869E-1,3.834002214E-1
1.501944167E-1,2.887852103E-2,-3.227519783E-1,-2.536691719E-1,4.115226085E-1
1.602494167E-1,6.956666350E-2,-2.160259670E-1,-2.700127244E-1,3.527231357E-1
1.703044167E-1,-4.978436351E-2,1.184017316E-1,-3.430239826E-1,3.662825488E-1
1.803594167E-1,-2.496867795E-1,2.644873980E-1,-4.044741261E-1,5.439635928E-1
1.904144167E-1,-4.109816386E-1,4.626173767E-1,-4.414267749E-1,7.601173213E-1
2.004694167E-1,-5.327104358E-1,6.119026396E-1,-4.061546159E-1,9.072854131E-1
2.105244167E-1,-6.245083594E-1,6.475425884E-1,-2.965649307E-1,9.472448748E-1
2.205794167E-1,-6.758936906E-1,6.722432739E-1,-7.608455479E-2,9.563117482E-1
2.306344167E-1,-6.138699353E-1,5.499274161E-1,6.324056089E-2,8.265929040E-1
2.406894167E-1,-6.415382288E-1,1.083141151E0,4.988785923E-2,1.259863029E0
2.507444167E-1,-8.842894797E-1,1.657856230E0,-4.100038379E-1,1.923163620E0
2.607994167E-1,-9.262764350E-1,1.502918610E0,-7.224287564E-1,1.907526065E0
2.708544167E-1,-8.214572006E-1,1.120144671E0,-9.169404781E-1,1.664420577E0
2.809094167E-1,-6.146487844E-1,7.455857769E-1,-8.854041052E-1,1.310584491E0
2.909644167E-1,-5.260317461E-1,3.719505970E-1,-6.803334814E-1,9.369686710E-1
3.010194167E-1,-4.343379761E-1,1.441141315E-1,-6.296702814E-1,7.783977284E-1
3.110744167E-1,-2.775113399E-1,7.699993640E-2,-7.462701935E-1,7.999129550E-1
3.211294167E-1,-9.085586406E-2,9.680752560E-2,-8.702563083E-1,8.803252395E-1
3.311844167E-1,1.546487676E-1,-1.299403346E-1,-8.224465495E-1,8.468878667E-1
3.412394167E-1,2.865156866E-1,-7.246069904E-1,-5.699631929E-1,9.654038380E-1
3.512944167E-1,3.159453077E-1,-1.195456516E0,-4.602723509E-1,1.319389387E0
3.613494167E-1,4.266165816E-1,-1.154408623E0,-5.679833257E-1,1.355457869E0
3.714044167E-1,6.310505898E-1,-1.059848329E0,-8.406629652E-1,1.492721524E0
3.814594167E-1,7.861506162E-1,-8.221433714E-1,-1.088828738E0,1.574642986E0
3.915144167E-1,8.140723135E-1,-7.810812995E-1,-1.122301708E0,1.591339955E0
4.015694167E-1,8.223276318E-1,-8.937852117E-1,-9.706798983E-1,1.554764999E0
4.116244167E-1,8.594733848E-1,-9.361357907E-1,-5.604760855E-1,1.388948581E0
4.216794167E-1,8.409951601E-1,-9.317665319E-1,-1.749369979E-2,1.255295885E0
4.317344167E-1,6.756834101E-1,-8.968571927E-1,3.894783568E-1,1.188526098E0
4.417894167E-1,4.770187400E-1,-8.136540914E-1,4.500537568E-1,1.045049397E0
4.518444167E-1,2.278362463E-1,-7.519362916E-1,2.599677926E-1,8.275873337E-1
4.618994167E-1,4.916091328E-2,-4.510754116E-1,1.872746229E-1,4.908743288E-1
4.719544167E-1,-1.428889388E-1,-1.635596319E-1,3.122804922E-1,3.803789003E-1
4.820094167E-1,2.635966843E-2,-2.943549755E-1,3.736440969E-1,4.763922699E-1
4.920682917E-1,3.755124284E-1,-3.252219153E-1,1.657983845E-1,5.237060076E-1
5.021232917E-1,4.687430660E-1,-1.695742241E-1,-1.467469865E-1,5.196250162E-1
5.121782917E-1,1.393671608E-1,4.609696314E-2,-3.870546860E-1,4.139558738E-1
5.222332917E-1,-3.240200201E-1,2.754753394E-1,-4.554571688E-2,4.277266048E-1
5.322882917E-1,-2.745448830E-1,3.278098930E-1,-4.197780436E-1,5.992059951E-1
5.423432917E-1,-3.643326983E-1,3.989205138E-1,-9.216966033E-1,1.068363477E0
5.523982917E-1,-4.147515578E-1,4.157884153E-1,-7.579880136E-1,9.588767855E-1
5.624532917E-1,-5.575714812E-1,1.552974138E0,3.036768991E-1,1.677746789E0
5.725082917E-1,2.846721052E-2,1.173154797E0,6.934277362E-1,1.363064410E0
5.825632917E-1,1.475802239E-1,6.233950496E-2,7.748642474E-1,7.912526387E-1
5.926182917E-1,2.852504222E-1,-3.017331384E-1,6.384557229E-1,7.616012082E-1
6.026722917E-1,3.234796278E-1,-1.896556091E-1,4.561652666E-1,5.905040814E-1
6.127272917E-1,2.116378692E-1,1.467699368E-1,2.015716499E-1,3.270521856E-1
6.227822917E-1,2.399637004E-1,3.122495019E-1,6.375336170E-2,3.989320996E-1
6.328372917E-1,3.166225980E-1,2.954171222E-1,4.688648343E-2,4.355680062E-1
6.428922917E-1,1.961689323E-1,2.424501193E-1,-1.007843632E-1,3.277526479E-1
6.529472917E-1,-4.033777092E-2,1.579129757E-1,-4.418056744E-1,4.709096491E-1
6.630022917E-1,-2.657975580E-1,5.654696077E-3,-7.792081439E-1,8.233138217E-1
6.730572917E-1,-4.169926859E-1,-2.086722162E-1,-1.111317714E0,1.205178018E0
6.831122917E-1,-5.006521989E-1,-4.276654990E-1,-1.432830960E0,1.576881404E0
6.931672917E-1,-5.401081138E-1,-6.155877011E-1,-1.769884935E0,1.950168627E0
7.032222917E-1,-5.386474793E-1,-7.069703262E-1,-1.986886218E0,2.176617787E0
7.132772917E-1,-4.471558402E-1,-7.405101013E-1,-2.117604232E0,2.287477047E0
7.233322917E-1,-3.974143441E-1,-8.486558166E-1,-2.191765637E0,2.383692821E0
7.333872917E-1,-5.320088430E-1,-8.401552807E-1,-1.887754862E0,2.133661811E0
7.434422917E-1,-9.337587514E-1,-6.579525326E-1,-1.272040130E0,1.709647050E0
7.534972917E-1,-7.429825965E-1,-5.609482482E-1,-1.596895645E0,1.848448478E0
7.635522917E-1,-9.746964238E-1,-5.466953677E-1,-9.544369179E-1,1.469645799E0
7.736072917E-1,-4.651100448E-1,-6.110290655E-1,-1.413948546E0,1.609016583E0
7.836622917E-1,-9.900902057E-2,-6.487500384E-1,-1.463103164E0,1.603543036E0
7.937172917E-1,-1.195061792E-1,-6.068686254E-1,-7.214633811E-1,9.503055643E-1
8.037722917E-1,-7.900652722E-3,-4.517450640E-1,-5.381619412E-1,7.026765245E-1
8.138272917E-1,6.391809787E-2,-2.315436003E-1,-8.495963413E-1,8.828997141E-1
8.238822917E-1,1.725200330E-1,6.805822805E-2,-8.674899906E-1,8.870929872E-1
8.339372917E-1,3.046464405E-1,2.117889284E-1,-7.018296003E-1,7.938695055E-1
8.439922917E-1,3.345707726E-1,1.576216382E-1,-5.460504198E-1,6.595098511E-1
8.540472917E-1,3.878956252E-1,9.446001470E-2,-3.737709814E-1,5.468916318E-1
8.641022917E-1,4.447115213E-1,8.744905695E-2,-2.103465664E-1,4.996612380E-1
8.741572917E-1,3.876241682E-1,1.483839145E-1,-2.090321124E-2,4.155805892E-1
8.842122917E-1,2.689076737E-1,2.653783675E-1,9.715675056E-2,3.900979993E-1
8.942672917E-1,1.373965578E-1,3.322819166E-1,2.645280361E-2,3.605396469E-1
9.043222917E-1,-9.368518554E-3,2.834455329E-1,-2.401568413E-2,2.846153410E-1
9.143772917E-1,-1.728061811E-1,1.814693610E-1,4.179063499E-2,2.540463785E-1
9.244322917E-1,-2.876934255E-1,9.842223421E-2,1.220080018E-1,3.276284416E-1
9.344872917E-1,-2.431633151E-1,8.320748672E-2,1.690342337E-1,3.076108838E-1
9.445422917E-1,-1.423593272E-1,6.765813231E-3,1.522012693E-1,2.085118238E-1
9.545972917E-1,-6.896706808E-2,-8.670616820E-2,5.901185453E-2,1.255261529E-1
9.646522917E-1,-1.321836188E-2,-1.723617379E-1,-1.681483805E-2,1.736837142E-1
9.747072917E-1,7.097047035E-2,-2.134609397E-1,-2.077047944E-2,2.259066029E-1
9.847622917E-1,1.230601352E-1,-1.692426869E-1,-9.968157828E-2,2.317828747E-1
9.948172917E-1,1.243493731E-1,-8.271617442E-2,-2.973086965E-1,3.327118770E-1
1.004872292E0,9.784723364E-2,-1.896807522E-2,-5.075511825E-1,5.172446925E-1
1.014927292E0,1.651634866E-1,2.081272557E-2,-6.737606263E-1,6.940212737E-1
1.024982292E0,1.564894345E-1,5.402534902E-3,-8.512902796E-1,8.655710662E-1
1.035037292E0,1.410154361E-1,-6.135176405E-2,-9.424606508E-1,9.549248507E-1
1.045092292E0,1.555721160E-1,-1.074409796E-1,-9.871819103E-1,1.005124058E0
1.055147292E0,8.938170791E-2,-1.972014409E-1,-9.588544893E-1,9.829951321E-1
1.065202292E0,-1.144232860E-1,-3.225613591E-1,-8.026683426E-1,8.725909620E-1
1.075257292E0,-2.958057063E-1,-4.447661197E-1,-6.213099325E-1,8.193558136E-1
1.085312292E0,-2.331914553E-1,-4.132461190E-1,-4.643694949E-1,6.639199029E-1
1.095367292E0,-1.070312725E-1,-2.876056807E-1,-4.524967235E-1,5.467412603E-1
1.105422292E0,5.102229215E-2,-1.350401299E-1,-5.374877572E-1,5.565358929E-1
1.115477292E0,2.009327320E-1,-3.759993553E-2,-6.566844177E-1,6.877660521E-1
1.125532292E0,2.926658611E-1,-1.951245099E-2,-7.408018774E-1,7.967568409E-1
1.135587292E0,3.024511034E-1,9.187437594E-4,-7.566115791E-1,8.148242728E-1
1.145642292E0,2.991318949E-1,6.391679138E-2,-7.450820392E-1,8.054269004E-1
1.155697292E0,2.855303211E-1,1.083952452E-1,-7.130995238E-1,7.757499754E-1
1.165752292E0,1.917971519E-1,9.473892689E-2,-6.533573520E-1,6.874863207E-1
1.175807292E0,3.064642668E-2,4.790316805E-2,-5.333450049E-1,5.363681676E-1
1.185862292E0,-1.167294279E-1,-1.671952844E-2,-2.877274489E-1,3.109539947E-1
1.195917292E0,-2.614037226E-1,-6.342021659E-2,-9.362503231E-2,2.848151624E-1
1.205972292E0,-2.073667523E-1,9.251903147E-3,-5.354295373E-2,2.143674778E-1
1.216027292E0,-7.729799822E-2,9.114113510E-2,-8.923377335E-2,1.491454101E-1
1.226082292E0,8.078549691E-3,4.547540411E-2,-1.381001240E-1,1.456190908E-1
1.236137292E0,9.731963206E-2,-9.500789881E-2,-2.346592891E-1,2.712242496E-1
1.246192292E0,5.619550657E-2,-9.312290266E-2,-1.699890840E-1,2.018070827E-1
1.256247292E0,-9.444203451E-2,-3.961473987E-2,-1.917149985E-1,2.173551613E-1
1.266302292E0,-1.390510640E-1,3.249984786E-2,-2.927390975E-1,3.257109419E-1
1.276357292E0,-3.135320887E-2,9.180172428E-2,-3.092609900E-1,3.241187132E-1
1.286412292E0,-1.935760941E-2,7.611963809E-2,-2.981150275E-1,3.082879920E-1
1.296466292E0,-2.776093539E-2,-4.586614430E-2,-2.449223220E-1,2.507215917E-1
1.306522292E0,-1.425714898E-1,-1.534970123E-1,-1.551032424E-1,2.606625755E-1
1.316576292E0,-1.494497523E-1,-1.564466402E-1,-1.934896284E-1,2.902568104E-1
1.326631292E0,-8.694838911E-2,-9.017371327E-2,-2.882460970E-1,3.142882966E-1
1.336686292E0,-7.687930103E-2,-3.263491854E-2,-4.666633576E-1,4.740782153E-1
1.346741292E0,-6.999807838E-2,7.494814843E-3,-5.347191006E-1,5.393333105E-1
1.356796292E0,-6.497528359E-2,-2.735897586E-2,-4.647741222E-1,4.700907208E-1
1.366851292E0,-7.853497669E-2,-4.387209758E-2,-4.133846980E-1,4.230595845E-1
1.376906292E0,-6.885838296E-2,1.947078958E-2,-4.145401078E-1,4.206709992E-1
1.386961292E0,-3.543591756E-2,7.695959061E-2,-3.736481899E-1,3.831337269E-1
1.397016292E0,4.345687218E-3,6.082668409E-2,-3.370814574E-1,3.425531775E-1
1.407071292E0,-2.896348838E-2,-2.769767582E-2,-1.919342691E-1,1.960734774E-1
1.417126292E0,-1.445114863E-1,-9.641166911E-2,8.333510220E-2,1.926746451E-1
1.427181292E0,-1.670639778E-1,-1.060484652E-1,2.589129549E-1,3.258720115E-1
1.437236292E0,-1.227058304E-1,-1.456718297E-1,3.052527237E-1,3.598002614E-1
1.447291292E0,-1.683548603E-1,-1.734104361E-1,3.540535855E-1,4.286822597E-1
1.457346292E0,-1.886656390E-1,-1.334771691E-1,4.211345977E-1,4.803802945E-1
1.467401292E0,-1.824401450E-1,-2.639389291E-2,4.582252407E-1,4.939143806E-1
1.477456292E0,-1.985687209E-1,3.976062790E-2,3.984684509E-1,4.469760070E-1
1.487511292E0,-1.736547766E-1,7.842665702E-2,4.050266880E-1,4.476084672E-1
1.497566875E0,-1.253991128E-1,1.221527204E-1,4.209486562E-1,4.558991070E-1
1.507621875E0,-4.721681457E-2,9.366230831E-2,3.851408923E-1,3.991685890E-1
1.517676875E0,-9.105788536E-2,4.151303843E-2,3.397893029E-1,3.542197640E-1
1.527731875E0,-2.883680480E-2,8.550164178E-2,3.829610503E-1,3.934479103E-1
1.537786875E0,2.343456225E-2,1.664195050E-1,3.717355657E-1,4.079607348E-1
1.547841875E0,5.134438237E-2,2.037532461E-1,3.416054481E-1,4.010559974E-1
1.557896875E0,1.059732371E-1,2.532167436E-1,4.127309793E-1,4.956772211E-1
1.567951875E0,1.349612107E-1,3.447215755E-1,5.777101690E-1,6.861461450E-1
1.578006875E0,-4.725811053E-2,2.980122627E-1,6.043383890E-1,6.754772581E-1
1.588061875E0,-1.715160296E-1,1.424435820E-1,5.210927492E-1,5.667852995E-1
1.598116875E0,-1.796467291E-1,4.303930789E-2,3.984181648E-1,4.391609766E-1
1.608171875E0,-1.519776315E-1,-1.056854993E-2,2.683076763E-1,3.085415757E-1
1.618226875E0,-8.790744212E-2,-8.457339630E-2,2.617354059E-1,2.887659960E-1
1.628281875E0,-6.887830918E-2,-1.288495365E-1,2.271725142E-1,2.700995663E-1
1.638336875E0,-1.808509083E-2,-1.187971495E-1,1.237399471E-1,1.724859639E-1
1.648391875E0,2.091768309E-3,-1.172245409E-1,2.576049328E-2,1.200398746E-1
1.658446875E0,-9.956850775E-2,-1.117540321E-1,-1.089692956E-1,1.851409161E-1
1.668501875E0,-1.606382167E-1,-4.668343887E-2,-2.091309303E-1,2.678053886E-1
1.678556875E0,-8.100443859E-2,-4.329146907E-2,-1.926505530E-1,2.134247079E-1
1.688611875E0,2.941059938E-2,-6.486813337E-2,-1.730407459E-1,1.871255135E-1
1.698666875E0,1.002894877E-1,-9.812431857E-2,-8.143709600E-2,1.622293557E-1
1.708721875E0,1.165515446E-1,-1.427311188E-1,-9.612179339E-2,2.078360748E-1
1.718776875E0,9.393005596E-2,-2.639425837E-1,-2.022622061E-1,3.455409424E-1
1.728831875E0,4.826677350E-2,-3.587149858E-1,-2.127602971E-1,4.198488615E-1
1.738886875E0,1.713511701E-2,-3.695080689E-1,-1.319979697E-1,3.927509251E-1
1.748941875E0,-1.972644995E-2,-3.453010346E-1,-1.149702930E-1,3.644723660E-1
1.758996875E0,-4.054569882E-2,-2.552983524E-1,-2.665763158E-1,3.713275300E-1
1.769051875E0,-1.479770397E-1,-1.384680600E-1,-4.050003755E-1,4.528751617E-1
1.779106875E0,-1.856450953E-1,-2.567570865E-2,-4.007968122E-1,4.424493508E-1
1.789161875E0,-1.334381572E-1,4.553723842E-2,-3.913184756E-1,4.159441444E-1
1.799216875E0,-9.269863235E-2,1.428071326E-1,-3.972358578E-1,4.321842666E-1
1.809271875E0,-3.215445557E-2,1.972268763E-1,-3.696200430E-1,4.201801113E-1
1.819326875E0,3.214782264E-2,1.514270979E-1,-4.115352237E-1,4.396872625E-1
1.829381875E0,3.822900000E-2,1.172695644E-1,-3.581279254E-1,3.787733070E-1
1.839436875E0,1.807011191E-3,1.546366346E-1,-2.414309496E-1,2.867135460E-1
1.849491875E0,-1.314363401E-2,1.842634530E-1,-1.868308192E-1,2.627385207E-1
1.859546875E0,4.840053770E-2,1.593797497E-1,-9.744852662E-2,1.929785792E-1
1.869601875E0,5.803196169E-2,1.122883214E-1,-1.139259803E-1,1.701631708E-1
1.879656875E0,-7.894846620E-3,4.760919929E-2,-1.160748321E-1,1.257073232E-1
1.889711875E0,-3.287601569E-2,8.529918194E-3,-1.582081139E-2,3.746851992E-2
1.899766875E0,3.879897106E-3,3.942967549E-2,7.319836915E-2,8.323313136E-2
1.909821875E0,6.350301865E-2,4.128353521E-2,1.143598437E-2,7.660121014E-2
1.919876875E0,1.397218219E-1,-8.639670432E-2,-1.431088489E-1,2.178685858E-1
1.929930875E0,1.762602593E-1,-1.482979605E-1,-1.401115662E-1,2.696130840E-1
1.939985875E0,1.570299730E-1,-9.143276498E-2,-1.759590912E-1,2.529426115E-1
1.950040875E0,9.577253189E-2,-3.011886165E-2,-1.719595957E-1,1.991221390E-1
1.960095875E0,6.197979156E-2,8.887329251E-3,-1.457354182E-1,1.586168065E-1
1.970150875E0,-3.396351557E-2,-6.926319301E-3,-2.147904503E-1,2.175693725E-1
1.980205875E0,-2.106409372E-1,1.035506809E-1,-1.756842721E-1,2.931847734E-1
1.990260875E0,-1.537472914E-1,2.270510383E-1,-5.333479285E-2,2.793474606E-1
2.000315875E0,-1.240638097E-1,2.629887566E-1,-1.351396787E-1,3.206519106E-1
2.010370875E0,1.446073076E-2,1.600599271E-1,-2.471202904E-1,2.947825146E-1
2.020425875E0,1.279174720E-1,4.115635827E-2,-3.409511447E-1,3.664756589E-1
2.030480875E0,8.282239275E-2,1.753097579E-2,-2.866322654E-1,2.988727814E-1
2.040535875E0,1.160899069E-1,-1.630437613E-2,-1.487239301E-2,1.181688929E-1
2.050590875E0,1.689104006E-1,-2.647370741E-2,8.408413053E-2,1.905301069E-1
2.060645875E0,1.813020028E-1,-4.199718788E-2,5.556316674E-2,1.942200955E-1
2.070700875E0,1.885689955E-1,-6.809988946E-2,1.606288612E-2,2.011314926E-1
2.080755875E0,1.661699934E-1,-1.577618252E-1,-4.512120903E-2,2.335319757E-1
2.090810875E0,8.943056870E-2,-2.151154093E-1,-5.573565960E-3,2.330311794E-1
2.100865875E0,-1.131150812E-1,-8.083775640E-3,1.116245162E-1,1.591238563E-1
2.110920875E0,-2.097160904E-1,2.318665127E-1,1.857619482E-1,3.636625080E-1
2.120975875E0,-3.512653407E-1,2.365589033E-1,4.368220925E-2,4.257412239E-1
2.131030875E0,-5.375570833E-1,1.666855533E-1,-2.546111584E-2,5.633826052E-1
2.141085875E0,-5.255177759E-1,1.625182427E-1,1.629969835E-2,5.503151753E-1
2.151140875E0,-3.898977484E-1,1.280968536E-1,1.385801804E-1,4.331668553E-1
2.161195875E0,-1.566581267E-1,2.676168278E-2,2.198763585E-1,2.712997776E-1
2.171250875E0,5.839775071E-2,-2.675137706E-2,2.406789976E-1,2.491030176E-1
2.181305875E0,2.198489862E-1,-9.751364999E-2,1.937334573E-1,3.088286599E-1
2.191360875E0,1.629595613E-1,-8.360122360E-2,1.133605546E-1,2.153963754E-1
2.201415875E0,-4.512541171E-2,8.528639115E-2,1.214250344E-1,1.550938757E-1
2.211470875E0,-1.402168892E-1,6.565568022E-2,1.578192741E-1,2.210845260E-1
2.221525875E0,-1.499732608E-1,6.350200452E-2,2.582767779E-1,3.053381364E-1
2.231580875E0,-1.671611878E-1,6.004352264E-2,3.203970122E-1,3.663363656E-1
2.241635875E0,-2.057436383E-1,7.041107453E-2,3.072518867E-1,3.764198268E-1
2.251690875E0,-1.829322978E-1,6.553171925E-2,2.980588943E-1,3.558057564E-1
2.261745875E0,-1.706763146E-1,6.198669858E-2,1.965255028E-1,2.675724732E-1
2.271800875E0,-9.396848314E-2,1.384306379E-2,1.011556613E-1,1.387594107E-1
2.281855875E0,2.519729678E-2,2.510896727E-2,1.127933747E-1,1.182696469E-1
2.291910875E0,2.131094489E-2,9.051197469E-2,7.046654999E-2,1.166709416E-1
2.301965875E0,-2.684493251E-2,8.464210108E-2,-4.680813074E-2,1.003789658E-1
2.312020875E0,-5.324452646E-2,8.422482915E-2,-1.191913980E-1,1.553556913E-1
2.322075875E0,-4.093785513E-2,9.418789990E-2,-1.503944796E-1,1.821147110E-1
2.332130875E0,-1.065059368E-2,6.748015769E-2,-1.297292501E-1,1.466174790E-1
2.342185875E0,1.349818770E-2,-2.094911188E-3,-1.017456454E-1,1.026584925E-1
2.352240875E0,-5.170426022E-2,-6.138977095E-2,-5.749157846E-2,9.872849688E-2
2.362295875E0,-1.563482242E-1,-5.421786860E-2,2.281466603E-2,1.670474588E-1
2.372350875E0,-1.110338744E-1,1.966528259E-2,2.068803370E-2,1.146439677E-1
2.382405875E0,-3.460557640E-2,5.136749715E-2,-1.675268215E-1,1.786096347E-1
2.392460875E0,2.982127491E-2,1.544848993E-2,-2.583334959E-1,2.605075035E-1
2.402515875E0,3.951471593E-2,-5.725228116E-3,-1.678127503E-1,1.724972759E-1
2.412570875E0,-3.015080206E-3,-5.963794515E-3,-3.008801758E-2,3.082119978E-2
2.422625875E0,-7.279677507E-2,-1.162411854E-2,-2.898289382E-2,7.921173351E-2
2.432680875E0,-1.210001611E-1,2.881434783E-3,-5.505679786E-2,1.329683896E-1
2.442735875E0,-2.922811143E-2,5.988097005E-2,-7.706162453E-2,1.018749579E-1
2.452790875E0,4.595443726E-2,4.036128312E-2,-1.055872661E-1,1.220225972E-1
2.462845875E0,5.831647441E-3,4.323168129E-2,-5.674371958E-2,7.157399032E-2
2.472900875E0,-3.178670682E-2,8.124538042E-2,-2.150605917E-3,8.726873252E-2
2.482955875E0,-2.713597767E-2,6.433296695E-2,9.858814895E-2,1.208085884E-1
2.493010875E0,-1.022027515E-2,-2.809704065E-2,4.654032826E-2,5.531636171E-2
2.503061625E0,-1.836223058E-2,-8.407170519E-2,-2.937348783E-2,9.092868037E-2
2.513116625E0,-3.200108036E-2,-3.342334248E-2,-2.593357086E-2,5.304468932E-2
2.523171625E0,-3.530263759E-2,3.942214720E-2,-1.949052393E-2,5.639381557E-2
2.533226625E0,-1.558480315E-2,7.806975760E-2,-3.900794506E-2,8.865321719E-2
2.543280625E0,1.238557220E-2,8.243550807E-2,2.602303326E-2,8.732819505E-2
2.553335625E0,3.140532218E-2,1.066292399E-1,3.628255785E-2,1.169295218E-1
2.563390625E0,3.264982894E-2,8.504848257E-2,5.100467741E-2,1.044065747E-1
2.573445625E0,4.264769062E-2,1.007729611E-1,1.289732051E-1,1.691393001E-1
2.583500625E0,1.853084967E-2,8.482489966E-2,1.501874882E-1,1.734789255E-1
2.593555625E0,-8.729892969E-3,2.306346506E-2,1.436666733E-1,1.457677861E-1
2.603610625E0,-3.053657211E-2,-1.081442535E-2,1.580052155E-1,1.612919160E-1
2.613665625E0,-5.856220365E-2,-3.030392602E-2,1.207812560E-1,1.376080354E-1
2.623720625E0,-7.047583245E-2,-2.114090055E-2,1.528386158E-1,1.696273065E-1
2.633775625E0,-5.115707047E-2,1.058324106E-2,1.671999621E-1,1.751709970E-1
2.643830625E0,-4.755343147E-2,2.386270635E-2,1.174360639E-1,1.289262840E-1
2.653885625E0,-7.050594561E-2,1.054530725E-2,9.486230314E-2,1.186640149E-1
2.663940625E0,-7.057772018E-2,-9.724504352E-3,1.074133515E-1,1.288930125E-1
2.673995625E0,-6.908426821E-2,2.136192530E-2,1.335129833E-1,1.518376919E-1
2.684050625E0,-7.817931980E-2,-1.628595740E-3,1.137026167E-1,1.379961717E-1
2.694105625E0,-9.864618257E-2,-5.304447860E-2,1.203742898E-1,1.644224914E-1
2.704160625E0,-8.988091394E-2,-3.190642856E-2,1.414324522E-1,1.705864514E-1
2.714215625E0,-9.790782541E-2,-9.141756222E-3,1.189054692E-1,1.542984918E-1
2.724270625E0,-1.136730152E-1,-7.502898619E-2,7.185994148E-2,1.539959556E-1
2.734325625E0,-1.107363242E-1,-4.481729999E-2,4.394767284E-2,1.272891269E-1
2.744380625E0,-8.895836949E-2,1.263239779E-2,5.823826790E-2,1.070741090E-1
2.754435625E0,-6.931340598E-2,2.096818842E-2,2.024072170E-2,7.519108982E-2
2.764490625E0,-8.632449120E-2,-1.924611032E-3,-1.031016147E-1,1.344825820E-1
2.774545625E0,-5.152347162E-2,-1.287995428E-2,-1.436573178E-1,1.531600023E-1
2.784600625E0,1.490506433E-2,-4.484120049E-2,-1.442046171E-1,1.517493519E-1
2.794655625E0,3.724098958E-2,4.111469686E-3,-8.920044422E-2,9.674975316E-2
2.804710625E0,-3.344826624E-2,4.842503205E-2,-1.010083115E-1,1.169035895E-1
2.814765625E0,-8.438380033E-2,9.241524339E-4,-1.010293615E-1,1.316374251E-1
2.824820625E0,-8.919459701E-2,-2.197749093E-2,-9.534352899E-2,1.323974122E-1
2.834875625E0,-6.172993273E-2,1.464771375E-2,-8.929633856E-2,1.095398384E-1
2.844930625E0,-3.912898242E-2,5.099093646E-2,-1.195001310E-1,1.356887401E-1
2.854985625E0,3.761228777E-2,8.341038510E-2,-7.942156076E-2,1.211600629E-1
2.865040625E0,4.691769294E-2,6.613624826E-2,-9.487926006E-2,1.248092434E-1
2.875095625E0,1.229018949E-2,8.364295810E-3,-1.506365544E-1,1.513683643E-1
2.885150625E0,-9.377252832E-3,6.698131710E-3,-1.516305810E-1,1.520678498E-1
2.895205625E0,-2.804858185E-2,1.261522159E-2,-1.291228938E-1,1.327350310E-1
2.905260625E0,-2.250987992E-2,2.298394293E-3,-1.350852996E-1,1.369672059E-1
2.915315625E0,8.490595669E-3,-2.995236218E-4,-1.349701095E-1,1.352372374E-1
2.925370625E0,1.526686080E-2,1.402863979E-2,-6.640215039E-2,6.956382213E-2
2.935425625E0,-1.330541231E-2,-3.170009494E-2,-5.493283689E-2,6.480390871E-2
2.945480625E0,-5.316127673E-2,-4.781195149E-2,-6.540461540E-2,9.690133004E-2
2.955535625E0,-4.881577224E-2,-1.599323116E-2,-6.691436648E-2,8.435813834E-2
2.965590625E0,1.183249868E-2,4.118997976E-3,-6.795107782E-2,6.909647709E-2
2.975645625E0,2.216591746E-2,7.974871248E-3,-3.248771489E-2,4.012951640E-2
2.985700625E0,-2.526062943E-2,7.821235657E-3,3.153812706E-2,4.115731509E-2
2.995755625E0,-1.209242204E-1,1.587789483E-2,8.188850105E-2,1.469030334E-1
3.005810625E0,-1.262396318E-1,5.192766041E-3,1.299362415E-1,1.812369618E-1
3.015865625E0,-6.989593484E-2,-8.638237864E-3,1.095680505E-1,1.302505990E-1
3.025920625E0,-4.539895177E-2,1.429461502E-2,5.330029428E-2,7.145853490E-2
3.035975625E0,-6.941485517E-2,4.751674019E-2,2.071200728E-2,8.663284574E-2
3.046030625E0,-8.479069345E-2,1.914444186E-2,2.936997950E-2,9.175274952E-2
3.056085625E0,-9.970284753E-2,3.847833350E-3,5.548656821E-2,1.141675211E-1
3.066140625E0,-1.052087320E-1,2.523745984E-2,3.780926585E-2,1.146095426E-1
3.076195625E0,-1.026299637E-1,3.301060215E-2,1.233470142E-2,1.085115393E-1
3.086250625E0,-7.567006029E-2,3.011316061E-3,1.267208576E-2,7.678286141E-2
3.096305625E0,-4.270930566E-2,2.310381085E-4,2.548859775E-2,4.973737814E-2
3.106360625E0,-2.374649294E-2,1.487436645E-2,1.227915287E-3,2.804729006E-2
3.116415625E0,-3.212708786E-2,1.002059273E-2,-3.615625799E-2,4.939470665E-2
3.126470625E0,1.390519045E-2,2.065697037E-2,-8.177331090E-2,8.548063595E-2
3.136525625E0,-2.193319827E-2,-7.454249784E-3,-1.259227127E-1,1.280357786E-1
3.146580625E0,-1.198375154E-1,1.072350115E-2,-7.931338727E-2,1.441063391E-1
3.156635625E0,-7.442423791E-2,-1.842603832E-4,-5.677178621E-2,9.360575223E-2
3.166690625E0,-3.967043459E-2,-4.404422499E-2,-8.551728308E-2,1.040521160E-1
3.176745625E0,-7.135722712E-2,-3.744805411E-2,-7.585417449E-2,1.106709827E-1
3.186800625E0,-8.172989532E-2,-3.775408275E-2,-2.039391875E-2,9.230957955E-2
3.196855625E0,-7.109402932E-2,-2.924579926E-2,1.766911626E-2,7.887886567E-2
3.206910625E0,-4.953059435E-2,-2.644586004E-2,1.683530331E-2,5.861817745E-2
3.216964625E0,-2.205708615E-2,-3.019480236E-2,4.313490987E-3,3.764103271E-2
3.227019625E0,-1.243914731E-2,-1.188132294E-2,3.420270324E-2,3.828476367E-2
3.237074625E0,-5.109772123E-2,-2.738185309E-2,9.015470982E-2,1.071849555E-1
3.247129625E0,-5.532438107E-2,-2.446182668E-2,1.524907064E-1,1.640505521E-1
3.257184625E0,-6.226531841E-2,-9.975276813E-3,1.663614714E-1,1.779118186E-1
3.267239625E0,-5.703849234E-2,3.220712163E-2,1.280382353E-1,1.438209929E-1
3.277294625E0,-5.189074986E-2,4.853649460E-2,8.045184016E-2,1.073356409E-1
3.287349625E0,-7.861508355E-2,5.254439548E-2,3.986573160E-2,1.026183288E-1
3.297404625E0,-8.191400953E-2,6.496388152E-2,3.054585457E-2,1.089185939E-1
3.307459625E0,-7.242829084E-2,7.253946103E-2,6.751779914E-3,1.027298265E-1
3.317514625E0,-4.733291835E-2,6.939921387E-2,-2.535294235E-2,8.774638300E-2
3.327569625E0,-6.022325143E-2,5.288170673E-2,-6.397087812E-2,1.025455419E-1
3.337624625E0,-6.392483130E-2,3.760073952E-2,-8.316553295E-2,1.114302721E-1
3.347679625E0,-3.482016921E-2,8.656364232E-3,-7.543259025E-2,8.353114687E-2
3.357734625E0,2.243138105E-2,5.217251256E-3,-7.987413526E-2,8.312799799E-2
3.367789625E0,5.569078222E-2,-2.005668059E-3,-8.472966313E-2,1.014130255E-1
3.377844625E0,5.028620079E-2,-1.840235710E-2,-6.888897121E-2,8.725273114E-2
3.387899625E0,3.664157689E-3,-4.251283921E-2,-4.433534324E-2,6.153365104E-2
3.397954625E0,-2.093076624E-2,-4.401060350E-2,-1.749253035E-2,5.177855554E-2
3.408009625E0,-2.097578980E-2,-2.355097666E-2,1.736389160E-2,3.600190260E-2
3.418064625E0,-5.477247700E-2,-2.614129320E-2,3.442431271E-2,6.977409801E-2
3.428119625E0,-7.701448135E-2,-1.288309716E-2,5.704485118E-2,9.670222116E-2
3.438174625E0,-8.112251580E-2,-1.124024883E-2,5.503984094E-2,9.867416001E-2
3.448229625E0,-9.024373367E-2,-2.516904742E-2,1.132781088E-2,9.437018446E-2
3.458284625E0,-8.612254299E-2,-1.510452747E-2,7.302002907E-3,8.774142926E-2
3.468339625E0,-7.327511385E-2,2.488297239E-2,-3.085575700E-2,8.330955746E-2
3.478394625E0,-3.403627686E-2,3.416520797E-2,-7.460053146E-2,8.883112558E-2
3.488449625E0,3.945774212E-3,3.012185834E-2,-9.230940878E-2,9.717984582E-2
3.498504250E0,1.336695425E-2,4.107091583E-2,-9.323502302E-2,1.027534190E-1
3.508559250E0,-1.040146574E-2,3.970317900E-2,-1.073671585E-1,1.149445068E-1
3.518614250E0,-2.149114877E-2,2.574360944E-2,-9.035000682E-2,9.637285217E-2
3.528669250E0,-2.790598288E-2,1.693426743E-3,-2.453316271E-2,3.719526378E-2
3.538724250E0,-1.453003854E-2,2.861042619E-3,5.016852558E-2,5.230858957E-2
3.548779250E0,1.176532879E-3,-2.057284355E-2,7.812464833E-2,8.079657665E-2
3.558834250E0,1.021793626E-2,-2.133787863E-2,1.160461807E-1,1.184332189E-1
3.568889250E0,-5.751028955E-3,-8.007834926E-3,1.198562264E-1,1.202610277E-1
3.578944250E0,-2.629829094E-2,-1.992986910E-2,1.155310410E-1,1.201508270E-1
3.588999250E0,-5.150804959E-2,-5.970445722E-3,1.268945199E-1,1.370800663E-1
3.599054250E0,-6.254357278E-2,1.723401032E-2,1.280516839E-1,1.435477041E-1
3.609109250E0,-7.775181524E-2,2.990499973E-2,6.671497643E-2,1.067264815E-1
3.619164250E0,-6.700741030E-2,4.288216397E-2,9.137443900E-3,8.007724960E-2
3.629219250E0,-3.493199721E-2,4.568444207E-2,-2.220421672E-2,6.164689706E-2
3.639274250E0,-2.567417376E-2,6.940776542E-2,-9.726726294E-2,1.222191537E-1
3.649329250E0,-2.276459925E-2,5.584120184E-2,-1.303934938E-1,1.436625561E-1
3.659384250E0,-2.190169640E-2,1.533563867E-2,-1.256484783E-1,1.284616916E-1
3.669439250E0,-4.890903533E-3,9.168945774E-3,-1.451208758E-1,1.454924710E-1
3.679494250E0,4.284225672E-2,-8.679753095E-3,-1.552909380E-1,1.613259821E-1
3.689549250E0,4.497583263E-2,-5.003272399E-2,-1.230575770E-1,1.402471613E-1
3.699604250E0,1.608715206E-3,-6.548735350E-2,-6.543852925E-2,9.259256204E-2
3.709659250E0,-1.049567901E-2,-7.337904811E-2,3.377468705E-2,8.145780174E-2
3.719714250E0,-9.750159010E-3,-7.967021361E-2,9.611945450E-2,1.252252294E-1
3.729769250E0,-1.261419833E-2,-6.703847364E-2,1.078817135E-1,1.276390969E-1
3.739824250E0,-4.281236283E-2,-6.111407474E-2,1.291538841E-1,1.491594929E-1
3.749879250E0,-5.349537201E-2,-3.910851717E-2,9.088853538E-2,1.124809175E-1
3.759934250E0,-3.649810083E-2,-1.657692946E-2,2.798360467E-2,4.888750439E-2
3.769989250E0,-4.254821487E-2,-1.581379473E-3,5.074798465E-3,4.287895671E-2
3.780044250E0,-9.827693090E-2,2.148647100E-2,-1.187394083E-2,1.012966636E-1
3.790099250E0,-1.281575916E-1,4.339452624E-2,-1.619737208E-2,1.362710830E-1
3.800154250E0,-1.358329392E-1,9.986240342E-3,-6.700909138E-4,1.362011799E-1
3.810209250E0,-1.299776836E-1,-8.069303781E-3,-2.346780002E-2,1.323255438E-1
3.820264250E0,-8.663117766E-2,-5.546084046E-3,-3.243450522E-2,9.266993645E-2
3.830319250E0,-4.402288266E-2,-1.247898147E-2,-2.532662988E-2,5.229892309E-2
3.840374250E0,-2.599613607E-2,-2.295821518E-2,-2.219486117E-2,4.117633540E-2
3.850429250E0,-2.830001213E-2,-2.602412961E-2,-3.032366037E-3,3.856606348E-2
3.860484250E0,-3.571888626E-2,-2.357641205E-2,1.815385044E-2,4.648922807E-2
3.870539250E0,-7.544055708E-2,-2.250403270E-2,2.820053637E-2,8.362403597E-2
3.880594250E0,-1.056930276E-1,-3.647134982E-2,7.775744319E-2,1.361888226E-1
3.890649250E0,-1.049108163E-1,-3.563607506E-2,1.442671824E-1,1.819044506E-1
3.900704250E0,-1.203055850E-1,-5.115253888E-2,1.639354616E-1,2.096779712E-1
3.910759250E0,-1.187155809E-1,-4.406651750E-2,1.564171118E-1,2.012499937E-1
3.920814250E0,-6.208741687E-2,-5.467256270E-2,1.258730114E-1,1.506252019E-1
3.930869250E0,-1.827839613E-2,-2.646661766E-2,4.037619352E-2,5.162188120E-2
3.940924250E0,2.698709294E-3,2.517584480E-2,-3.997273564E-2,4.731728847E-2
3.950979250E0,3.791597754E-2,1.967522286E-2,-7.852518260E-2,8.939205809E-2
3.961033250E0,3.820139475E-2,2.129592486E-2,-1.005130523E-1,1.096163157E-1
3.971088250E0,3.058459237E-3,1.733209737E-2,-1.032296687E-1,1.047192450E-1
3.981143250E0,-2.603604332E-2,-2.142558686E-2,-5.978544116E-2,6.863840251E-2
3.991199250E0,-1.684948280E-2,-4.507881671E-2,-3.113700807E-2,5.731943875E-2
4.001253250E0,1.005962290E-2,-8.960024759E-2,-7.043555975E-3,9.043789063E-2
4.011308250E0,2.091263987E-2,-1.153254383E-1,3.348583460E-2,1.218958422E-1
4.021363250E0,4.797421172E-3,-1.121891380E-1,3.325077653E-2,1.171111954E-1
4.031418250E0,-1.967295706E-3,-1.200165132E-1,8.622888923E-3,1.203419624E-1
4.041473250E0,-2.901337244E-2,-9.949768335E-2,-3.791685462E-2,1.103596513E-1
4.051528250E0,-5.424264617E-2,-3.984775141E-2,-6.202550948E-2,9.152743732E-2
4.061583250E0,-6.382849842E-2,-6.045363173E-3,-4.584450960E-2,7.881841592E-2
4.071638250E0,-7.432001129E-2,-8.218773231E-3,-3.568087935E-2,8.285009030E-2
4.081693250E0,-1.069001853E-1,-1.638134010E-2,2.799939215E-2,1.117137587E-1
4.091748250E0,-1.271591064E-1,-2.102834165E-2,5.396161437E-2,1.397264661E-1
4.101803250E0,-1.325493622E-1,-2.974807508E-2,7.090567589E-2,1.532380379E-1
4.111858250E0,-1.387653910E-1,-4.388262257E-3,9.113177955E-2,1.660725499E-1
4.121913250E0,-1.127522249E-1,-1.192028001E-3,8.610785186E-2,1.418768737E-1
4.131968250E0,-8.249017954E-2,1.363863051E-4,5.311025977E-2,9.810885798E-2
4.142023250E0,-7.483346991E-2,1.220533177E-3,3.414656997E-2,8.226497530E-2
4.152078250E0,-8.363623381E-2,-1.147004440E-3,3.922487676E-2,9.238466421E-2
4.162133250E0,-1.028023104E-1,2.346853092E-3,3.781569779E-2,1.095620816E-1
4.172188250E0,-8.587915264E-2,2.268171497E-2,1.392163575E-2,8.990829213E-2
4.182243250E0,-5.833175026E-2,4.624694422E-2,-3.627846479E-2,8.281002322E-2
4.192298250E0,-1.341490142E-2,2.918250315E-2,-8.672941089E-2,9.248550580E-2
4.202353250E0,3.290644862E-2,-1.605798908E-2,-1.060988975E-1,1.122393399E-1
4.212408250E0,3.479963087E-2,-1.819244206E-2,-8.359939635E-2,9.236253746E-2
4.222463250E0,-1.082056493E-2,-3.221158013E-2,-7.757501006E-3,3.485468895E-2
4.232518250E0,-4.898534149E-2,-4.341806129E-2,5.489307582E-2,8.542799014E-2
4.242573250E0,-6.559041068E-2,-5.230568290E-2,8.350233257E-2,1.183664901E-1
4.252628250E0,-6.858133458E-2,-5.642533869E-2,9.445650637E-2,1.296504913E-1
4.262683250E0,-7.907664813E-2,-4.525525644E-2,1.304133743E-1,1.590874059E-1
4.272738250E0,-9.779504724E-2,-2.853039242E-2,1.539437395E-1,1.845982922E-1
4.282793250E0,-1.063902350E-1,-5.221198127E-3,1.507599306E-1,1.845933360E-1
4.292848250E0,-6.303737015E-2,1.617822245E-2,7.332349956E-2,9.803968841E-2
4.302903250E0,9.042938277E-3,7.039316744E-4,-5.365638971E-2,5.441762958E-2
4.312958250E0,4.173896022E-2,3.824517578E-3,-1.121607059E-1,1.197363424E-1
4.323013250E0,4.679380506E-2,7.554112919E-2,-1.315693688E-1,1.587659321E-1
4.333068250E0,3.492403038E-2,4.113435812E-2,-1.211367667E-1,1.326116117E-1
4.343123250E0,1.043969192E-2,3.932983428E-3,-1.128541857E-1,1.134042449E-1
4.353178250E0,1.681045264E-2,-2.302998975E-3,-8.058106363E-2,8.234805971E-2
4.363233250E0,1.797214821E-3,-6.295404732E-3,-5.124733686E-2,5.166383297E-2
4.373288250E0,-1.398566276E-2,-1.915160470E-2,-1.867249846E-2,3.018352074E-2
4.383343250E0,-1.482232623E-2,-1.150001138E-3,-2.486528456E-2,2.897078242E-2
4.393398250E0,-3.250489108E-2,-3.971399635E-2,-6.922986388E-2,8.617739555E-2
4.403453250E0,1.665287018E-2,1.080207311E-2,4.262561738E-2,4.702069891E-2
4.413508250E0,-9.947721809E-3,7.522077486E-3,6.172847092E-2,6.297573295E-2
4.423563250E0,4.189603105E-3,1.782596782E-2,5.855284810E-2,6.134944110E-2
4.433618250E0,-1.541238338E-2,-1.897194900E-2,8.169261932E-2,8.527109981E-2
4.443673250E0,-5.996305034E-2,3.838463187E-2,6.800662637E-2,9.845734406E-2
4.453728250E0,-1.874471158E-3,-5.034818128E-3,1.164812136E-1,1.166050434E-1
4.463783250E0,-1.104313919E-1,-2.522013746E-2,3.283270061E-2,1.179369911E-1
4.473838250E0,-6.227525868E-2,2.238511495E-2,5.856688142E-2,8.837070110E-2
4.483893250E0,-3.316650353E-2,-4.254112512E-2,1.141376495E-2,5.513654245E-2
4.493948250E0,-2.276394144E-2,2.608340576E-2,-4.306883633E-2,5.525817359E-2
4.504003167E0,2.669867903E-2,-4.223209977E-2,-6.164660990E-2,7.935158616E-2
4.514058167E0,-4.583924711E-2,2.974113151E-3,-1.244024366E-1,1.326123982E-1
4.524113167E0,-1.195989490E-2,2.773911797E-2,-1.438976383E-1,1.470341051E-1
4.534168167E0,-2.721286856E-2,-5.289172009E-3,-1.430544698E-1,1.457158087E-1
4.544223167E0,2.250958756E-3,1.774425298E-2,-1.302595925E-1,1.314818876E-1
4.554278167E0,9.386462197E-3,2.313991740E-2,-1.311571401E-1,1.335131337E-1
4.564333167E0,2.952368818E-2,2.318852238E-2,-1.410933137E-1,1.460023250E-1
4.574388167E0,1.779388122E-2,-1.663350128E-2,-1.356425393E-1,1.378121694E-1
4.584443167E0,4.197569937E-3,1.095987484E-2,-9.995171964E-2,1.006383859E-1
4.594498167E0,-2.526252978E-2,5.211915672E-3,-8.262817383E-2,8.656081438E-2
4.604553167E0,-1.274554141E-2,-9.555885270E-3,-2.938986003E-2,3.342944274E-2
4.614608167E0,-1.526444882E-2,-5.397550151E-2,2.255797327E-2,6.045841810E-2
4.624663167E0,-2.003489971E-2,-6.421119869E-3,7.359071732E-2,7.653902052E-2
4.634718167E0,-6.101971529E-2,-1.649009831E-2,5.926328480E-2,8.664563418E-2
4.644773167E0,2.826544046E-3,-1.667845175E-2,8.294333875E-2,8.465079768E-2
4.654828167E0,1.753682300E-2,6.011230052E-3,5.485916197E-2,5.790684502E-2
4.664883167E0,1.543050975E-2,4.678503424E-3,6.534672797E-2,6.730664069E-2
4.674938167E0,-1.546442360E-2,5.191450417E-3,1.128962857E-1,1.140687112E-1
4.684993167E0,-7.958718315E-3,2.778450698E-3,1.243480575E-1,1.246334642E-1
4.695048167E0,-4.886540048E-2,1.192956246E-2,1.243170673E-1,1.341076994E-1
4.705103167E0,-4.988230437E-2,5.448874086E-3,1.406582808E-1,1.493408400E-1
4.715158167E0,3.111398466E-2,4.113370031E-3,1.413681328E-1,1.448100440E-1
4.725213167E0,2.965488508E-3,1.578682445E-2,9.369052112E-2,9.505751783E-2
4.735268167E0,-1.274027891E-2,2.778808840E-2,8.135231137E-2,8.690622031E-2
4.745323167E0,1.888285205E-2,2.992509954E-2,4.065744460E-2,5.389899336E-2
4.755378167E0,5.965731405E-2,3.679418921E-2,-5.640516579E-2,8.996860679E-2
4.765433167E0,9.135470465E-3,1.582256556E-2,-1.261811596E-1,1.274970409E-1
4.775488167E0,-4.018469721E-2,1.146127358E-2,-9.841097832E-2,1.069153466E-1
4.785543167E0,-3.373470671E-2,-2.094399557E-2,-1.375715357E-1,1.431873208E-1
4.795598167E0,-3.525505587E-2,-4.525671825E-2,-2.172369254E-1,2.246841589E-1
4.805653167E0,-5.024234667E-2,-3.881527930E-2,-2.400779039E-1,2.483310678E-1
4.815708167E0,-3.646016702E-2,-5.790263772E-2,-2.010921782E-1,2.124149792E-1
4.825763167E0,-6.813248768E-3,-1.386675963E-1,-6.341714680E-2,1.526330800E-1
4.835818167E0,-1.819302678E-2,-1.288790649E-1,2.650075078E-2,1.328272916E-1
4.845873167E0,-5.341504589E-3,-1.636979185E-1,-3.455704451E-3,1.638214946E-1
4.855928167E0,2.645280361E-2,-2.131693098E-1,-6.121976316E-2,2.233579299E-1
4.865983167E0,1.824250884E-2,-1.794119451E-1,-1.613831520E-2,1.810576715E-1
4.876038167E0,2.475447983E-2,-1.085051729E-1,4.969665527E-2,1.218848406E-1
4.886093167E0,7.192667283E-2,-1.139155284E-1,6.543735981E-2,1.497739695E-1
4.896148167E0,6.715468705E-2,-7.517860182E-2,4.905112267E-2,1.121052488E-1
4.906203167E0,7.507181704E-2,-1.699500538E-2,-6.742892146E-2,1.023292107E-1
4.916258167E0,2.355185375E-3,-1.145345293E-2,-1.300707275E-1,1.305952626E-1
4.926313167E0,-5.887583368E-2,4.671808362E-2,-1.139663261E-1,1.365183746E-1
4.936368167E0,-1.696006827E-2,8.128938071E-2,-8.065064549E-2,1.157589476E-1
4.946423167E0,3.172589578E-2,8.194704629E-2,-6.425622225E-2,1.088609800E-1
4.956478167E0,3.160712421E-2,8.121694833E-2,-2.329179883E-2,9.020926166E-2
4.966533167E0,1.635371201E-2,9.723583415E-2,2.266029954E-2,1.011718366E-1
4.976588167E0,-2.691539146E-2,1.002698082E-1,6.258801162E-2,1.212259540E-1
4.986643167E0,-4.271427579E-2,6.792352282E-2,1.637126827E-1,1.823182843E-1
4.996698167E0,-4.245962955E-2,2.259064458E-2,2.477605605E-1,2.523855240E-1
5.006753167E0,-5.983616576E-2,9.327624589E-3,2.728831226E-1,2.795220383E-1
5.016808167E0,-5.392236494E-2,2.964172885E-3,2.504742533E-1,2.562298955E-1
5.026863167E0,-8.089988306E-3,-1.303446695E-2,1.927575570E-1,1.933670629E-1
5.036918167E0,-5.848312005E-3,-2.066033252E-2,1.622859621E-1,1.637002920E-1
5.046973167E0,-1.838064931E-2,-1.064317502E-2,1.524743342E-1,1.539465753E-1
5.057028167E0,-2.430504821E-2,-3.748284504E-3,1.149995291E-1,1.175996458E-1
5.067083167E0,-2.275699787E-2,-3.948259279E-3,5.973047733E-2,6.404060919E-2
5.077138167E0,-2.594555765E-3,-2.412188418E-2,1.492911100E-2,2.848640678E-2
5.087193167E0,2.977329120E-3,-4.735791519E-2,-2.525646329E-2,5.375430734E-2
5.097248167E0,-2.129263580E-2,-4.645737089E-2,-3.065110445E-2,5.959155858E-2
5.107302167E0,-5.879039124E-2,-3.637984090E-2,-3.522479653E-2,7.759245592E-2
5.117358167E0,-1.104781696E-1,-3.697632998E-2,-4.172982395E-2,1.237499622E-1
5.127412167E0,-8.772614188E-2,-6.107000135E-2,-4.970133305E-2,1.178797843E-1
5.137468167E0,-7.587361649E-2,-7.464372776E-2,-3.035932839E-2,1.106805339E-1
5.147522167E0,-5.880055077E-2,-6.127560407E-2,-2.564237952E-2,8.871153281E-2
5.157577167E0,-4.151091881E-2,-6.949642383E-2,-3.207490146E-2,8.707300735E-2
5.167632167E0,-4.192358606E-2,-6.721834861E-2,-5.894168794E-2,9.874216949E-2
5.177687167E0,-5.042309873E-2,-2.956849247E-2,-8.374966979E-2,1.021312480E-1
5.187742167E0,-4.535948306E-2,-2.342752732E-2,-1.117753744E-1,1.228823261E-1
5.197797167E0,5.828650743E-3,-1.097792812E-2,-7.844215214E-2,7.942077378E-2
5.207852167E0,-2.117291406E-2,-7.741932794E-3,-6.575895667E-2,6.951597079E-2
5.217907167E0,-3.641200058E-2,-1.874683119E-2,-3.161355615E-2,5.173677994E-2
5.227962167E0,-4.581023030E-2,-2.451350145E-2,7.903096676E-3,5.255423761E-2
5.238017167E0,-3.666240759E-2,-5.278069608E-2,4.015399933E-2,7.577781780E-2
5.248072167E0,-3.740310363E-2,-3.901335374E-2,5.300734878E-2,7.570213310E-2
5.258127167E0,-3.290688716E-2,-3.698722042E-2,8.723753393E-2,1.003060568E-1
5.268182167E0,-3.679024234E-2,-1.518989682E-2,1.234271210E-1,1.296861947E-1
5.278237167E0,-3.874927886E-2,1.678165510E-2,8.954309106E-2,9.900048341E-2
5.288292167E0,-2.216737926E-2,1.327186391E-2,2.984652758E-2,3.947594563E-2
5.298347167E0,-1.447127402E-2,3.785268143E-2,-2.081784189E-2,4.555903647E-2
5.308402167E0,-3.014510103E-2,5.994499706E-2,-5.115553558E-2,8.437427694E-2
5.318457167E0,-2.909925342E-2,6.999599531E-2,-4.133922994E-2,8.634314009E-2
5.328512167E0,-2.860911056E-2,5.286474980E-2,-3.527508259E-2,6.969572749E-2
5.338567167E0,-1.934580535E-2,3.325048417E-2,-2.147448421E-2,4.405687635E-2
5.348622167E0,-3.057874516E-3,4.010941431E-2,-3.669946432E-2,5.445150498E-2
5.358677167E0,1.757599935E-3,1.969744228E-2,-1.534601748E-2,2.503155293E-2
5.368732167E0,7.644576654E-3,-1.172191322E-2,1.823337257E-2,2.298474879E-2
5.378787167E0,-9.948379621E-3,-2.987810254E-2,7.928473592E-2,8.530967482E-2
5.388842167E0,-3.718164034E-2,-4.825107738E-2,1.171477962E-1,1.320388087E-1
5.398897167E0,-4.312650450E-2,-5.879587300E-2,1.198562264E-1,1.402938526E-1
5.408952167E0,-3.930688396E-2,-5.174084187E-2,9.590135336E-2,1.158413373E-1
5.419007167E0,-2.449625216E-2,-3.160317734E-2,8.307548583E-2,9.219741609E-2
5.429062167E0,-1.484271839E-2,1.741637036E-2,7.975952983E-2,8.297721883E-2
5.439117167E0,-1.054801159E-2,-3.299116015E-2,-7.013735175E-2,7.822355980E-2
5.449172167E0,-6.654467627E-2,3.522216529E-2,-1.034518629E-1,1.279495323E-1
5.459227167E0,-6.428531215E-2,5.079892851E-2,-9.206967294E-2,1.232475443E-1
5.469282167E0,-4.749795601E-2,3.731846519E-2,-7.480576873E-2,9.614898181E-2
5.479337167E0,-1.926701412E-2,4.177769803E-2,-8.378475308E-2,9.558492943E-2
5.489392167E0,3.213081546E-2,5.242876679E-2,-8.908993185E-2,1.082505466E-1
5.499447125E0,4.885202497E-2,5.653395072E-2,-5.422532380E-2,9.232006103E-2
5.509502125E0,3.495195083E-2,4.317620583E-2,-6.695003450E-2,8.699500409E-2
5.519557125E0,-9.147164896E-3,-2.634097561E-3,-7.798139155E-2,7.856020954E-2
5.529612125E0,-4.580672197E-2,3.637406677E-3,-7.941922188E-2,9.175456015E-2
5.539667125E0,-5.859867565E-2,1.200528391E-2,-6.161445022E-2,8.587358212E-2
5.549722125E0,-6.052233651E-2,1.967039891E-2,-5.616542995E-2,8.487893338E-2
5.559777125E0,-6.534906685E-2,1.677529626E-2,-4.413069069E-2,8.061903599E-2
5.569832125E0,-5.758089468E-2,6.724444181E-3,-8.836312294E-3,5.864177689E-2
5.579887125E0,-6.737600416E-2,-2.007283352E-2,3.604399145E-2,7.900388536E-2
5.589942125E0,-7.441882923E-2,-2.787404247E-2,1.112356764E-1,1.367058890E-1
5.599997125E0,-7.377110392E-2,2.525850981E-3,1.518896127E-1,1.688757239E-1
5.610052125E0,-3.735223286E-2,-4.878843650E-3,1.767227376E-1,1.806928841E-1
5.620107125E0,-2.625348665E-2,-1.461621188E-2,1.527661103E-1,1.556931716E-1
5.630162125E0,-3.500896119E-2,3.579723895E-2,5.993863821E-2,7.810064039E-2
5.640217125E0,-3.473947763E-2,7.843067698E-2,-2.944599330E-2,9.069326833E-2
5.650272125E0,-3.173568986E-2,9.685810402E-2,-5.731557727E-2,1.169346900E-1
5.660327125E0,-7.330946624E-2,8.840390727E-2,-3.931550860E-2,1.213887881E-1
5.670382125E0,-1.035316043E-1,5.530201547E-2,4.613453150E-3,1.174665483E-1
5.680437125E0,-1.065328339E-1,5.199877717E-2,5.590288997E-2,1.310658256E-1
5.690492125E0,-8.534025863E-2,5.525823444E-2,1.280721492E-1,1.635203584E-1
5.700547125E0,-6.382696353E-2,4.057551049E-2,1.424779344E-1,1.613078272E-1
5.710602125E0,-3.377249435E-2,7.468429282E-3,9.349230051E-2,9.968535030E-2
5.720657125E0,-2.166393399E-2,-9.123922214E-3,6.696640670E-2,7.097232996E-2
5.730712125E0,3.063356280E-3,5.708855912E-3,3.826534867E-2,3.880994842E-2
5.740767125E0,4.830048636E-2,3.967832834E-2,1.491098464E-2,6.426230765E-2
5.750822125E0,9.622287713E-2,7.223504037E-2,-1.644704819E-2,1.214382499E-1
5.760877125E0,8.945874497E-2,1.664548807E-2,-5.214839280E-2,1.048779967E-1
5.770932125E0,7.123918645E-2,2.031973220E-2,-7.779252648E-2,1.074224854E-1
5.780987125E0,7.450602584E-2,5.960702799E-2,-1.058556533E-1,1.425116311E-1
5.791042125E0,8.057887092E-2,4.520957507E-2,-1.407103211E-1,1.683337595E-1
5.801097125E0,5.092383966E-2,5.074067563E-3,-1.487356246E-1,1.572935778E-1
5.811152125E0,9.867834225E-3,1.356795229E-2,-1.083570921E-1,1.096481778E-1
5.821207125E0,-1.888906471E-2,3.176660702E-2,-5.641919911E-2,6.744657230E-2
5.831262125E0,-1.889257304E-2,3.549091794E-2,-6.374576032E-2,7.536614977E-2
5.841317125E0,-4.080143228E-2,2.339902215E-2,-3.671349764E-2,5.966700950E-2
5.851372125E0,-6.118329115E-2,8.288866729E-3,2.336664319E-2,6.601591052E-2
5.861427125E0,-5.312809378E-2,1.735965237E-3,6.548940003E-2,8.434731436E-2
5.871482125E0,-1.850753389E-2,1.571461134E-2,5.585201919E-2,6.090095129E-2
5.881537125E0,2.533496216E-2,4.966873482E-2,-4.269052148E-3,5.592019610E-2
5.891592125E0,2.230149977E-2,8.358163543E-2,-5.467672884E-2,1.023366569E-1
5.901647125E0,-2.920128733E-2,1.311977783E-1,-4.128426611E-2,1.406056999E-1
5.911702125E0,-7.409335859E-2,1.297451106E-1,-3.083412230E-2,1.525593741E-1
5.921757125E0,-5.963144012E-2,5.426932409E-2,-7.659443200E-2,1.112104995E-1
5.931812125E0,-3.205048934E-2,5.749486752E-2,-1.224307555E-1,1.390042573E-1
5.941867125E0,-4.710655801E-2,7.330361903E-2,-1.373025638E-1,1.626174726E-1
5.951922125E0,-3.254019365E-2,3.495019667E-2,-7.945488989E-2,9.270091681E-2
5.961977125E0,-3.997083530E-3,-1.175129548E-2,6.383756161E-2,6.503309845E-2
5.972032125E0,3.291324601E-2,-9.922286421E-3,1.572731441E-1,1.609862584E-1
5.982087125E0,3.349299744E-2,-1.834863581E-2,1.667468029E-1,1.710641681E-1
5.992142125E0,3.559828743E-2,6.165742725E-3,1.407910126E-1,1.453525497E-1
6.002197125E0,7.635418452E-2,5.933922552E-2,8.739599347E-2,1.303424906E-1
6.012252125E0,9.337140933E-2,9.898839086E-2,1.506418169E-2,1.369081852E-1
6.022307125E0,9.106760636E-2,1.101917291E-1,-8.320470929E-2,1.654042011E-1
6.032362125E0,5.727179624E-2,1.152886008E-1,-1.724642104E-1,2.152101856E-1
6.042417125E0,2.849742875E-2,1.089600863E-1,-1.899766213E-1,2.208518066E-1
6.052472125E0,1.625613660E-2,9.707335465E-2,-1.808286524E-1,2.058798185E-1
6.062527125E0,5.041030794E-4,7.566443235E-2,-1.630437613E-1,1.797460112E-1
6.072582125E0,2.139788568E-3,3.943720378E-2,-1.139195484E-1,1.205717017E-1
6.082637125E0,-4.020757444E-2,1.663825214E-3,-4.834770262E-2,6.290403569E-2
6.092692125E0,-5.179098174E-2,-1.795511819E-2,1.834797800E-2,5.780432817E-2
6.102747125E0,-4.167354450E-2,-2.084729724E-2,8.567691207E-2,9.752859773E-2
6.112802125E0,-3.574826851E-2,-4.504789956E-2,1.367494172E-1,1.483497727E-1
6.122857125E0,-3.237486362E-2,-3.322110191E-2,1.479585296E-1,1.550596656E-1
6.132912125E0,-4.103561327E-2,2.072837949E-4,1.351864564E-1,1.412775372E-1
6.142967125E0,-5.923543744E-2,8.363418728E-3,1.310647541E-1,1.440720431E-1
6.153022125E0,-4.433600105E-2,9.976519346E-3,1.420195127E-1,1.491132251E-1
6.163077125E0,-2.773436710E-2,1.986014105E-2,1.036009669E-1,1.090723644E-1
6.173132125E0,-1.354288235E-2,3.637779437E-2,4.650115192E-2,6.057318479E-2
6.183187125E0,-5.085761994E-3,5.066824324E-2,-2.892617583E-3,5.100493197E-2
6.193242125E0,4.121263772E-3,5.926350407E-2,-8.783453465E-2,1.060379800E-1
6.203297125E0,-7.824597806E-3,6.210283890E-2,-1.454103130E-1,1.583102841E-1
6.213352125E0,-2.612974495E-4,6.748505473E-2,-1.605616182E-1,1.741675461E-1
6.223407125E0,-2.669034675E-3,3.665268660E-2,-1.314559329E-1,1.364961738E-1
6.233462125E0,-1.797660671E-2,2.385437407E-2,-6.305169582E-2,6.976894651E-2
6.243517125E0,-1.401774935E-2,-3.558542356E-3,3.921493649E-2,4.179679132E-2
6.253572125E0,-3.076724477E-2,-3.995395146E-2,7.478588820E-2,9.019906131E-2
6.263627125E0,-3.330391310E-2,-1.644982561E-2,1.115204358E-1,1.175438429E-1
6.273682125E0,-4.408515550E-2,-8.260361552E-3,9.847412825E-2,1.082076173E-1
6.283737125E0,-4.049489200E-2,-4.096186526E-2,1.115537649E-1,1.255466175E-1
6.293792125E0,-5.040723816E-2,-2.369116366E-2,1.329908270E-1,1.441829426E-1
6.303847125E0,-8.829778031E-2,-1.963158801E-2,1.114637178E-1,1.435481022E-1
6.313902125E0,-1.022873899E-1,-2.223893456E-2,7.249670327E-2,1.273304847E-1
6.323957125E0,-8.577529147E-2,-1.919450864E-2,3.141475081E-2,9.334193247E-2
6.334012125E0,-6.403797492E-2,-2.168688431E-2,5.999243259E-4,6.761318727E-2
6.344067125E0,-4.188272864E-2,-5.880325511E-3,-3.676319897E-2,5.603814759E-2
6.354122125E0,-2.187772281E-2,4.265178367E-3,-6.707633436E-2,7.068282063E-2
6.364177125E0,-1.323195666E-2,1.977162883E-2,-1.119279867E-1,1.144284763E-1
6.374232125E0,7.743906230E-4,2.550394669E-2,-1.496349263E-1,1.517948028E-1
6.384287125E0,2.962528355E-2,1.147369891E-3,-9.344376862E-2,9.803423778E-2
6.394342125E0,2.609400384E-2,-1.278194033E-2,-4.586731374E-2,5.429627524E-2
6.404397125E0,-9.016114175E-3,-2.858513698E-2,2.068160176E-2,3.641605446E-2
6.414452125E0,-2.807357870E-2,-5.940296017E-2,7.983028114E-2,1.033910600E-1
6.424507125E0,-3.121024445E-2,-7.820482828E-2,1.133862823E-1,1.412321619E-1
6.434562125E0,-4.998455755E-2,-7.790413521E-2,1.202620232E-1,1.517579141E-1
6.444617125E0,-6.671029866E-2,-1.069650894E-1,1.383989167E-1,1.872059145E-1
6.454672125E0,-8.084893920E-2,-1.310625614E-1,1.724080771E-1,2.311676687E-1
6.464727125E0,-8.528661042E-2,-1.111174896E-1,1.442087102E-1,2.010399326E-1
6.474782125E0,-7.603697307E-2,-7.594195582E-2,5.465743303E-2,1.205663175E-1
6.484837125E0,-6.126844123E-2,-6.391035944E-2,-2.644461751E-2,9.239953317E-2
6.494892125E0,-7.421169162E-2,-5.370609105E-2,-7.389009476E-2,1.176922491E-1
6.504948000E0,-1.018587890E-1,-4.023593344E-2,-8.082781613E-2,1.361149481E-1
6.515003000E0,-9.386009037E-2,-3.146028601E-2,-7.252418518E-2,1.227160283E-1
6.525058000E0,-7.079874493E-2,-1.734064892E-2,-3.483537197E-2,8.078776844E-2
6.535113000E0,-2.529505491E-2,-1.862520911E-2,-2.808125317E-2,4.213424969E-2
6.545168000E0,6.790298447E-3,-3.742101073E-2,-3.993063569E-3,3.824113955E-2
6.555223000E0,-5.443757772E-3,-5.866664954E-2,9.915708303E-3,5.974723038E-2
6.565278000E0,9.051562920E-3,-3.807202511E-2,1.125670874E-1,1.191753291E-1
6.575333000E0,7.036400445E-2,-2.552061126E-2,1.409044486E-1,1.595508018E-1
6.585388000E0,6.124666035E-2,-7.305781670E-2,6.002868533E-2,1.126589590E-1
6.595443000E0,9.587387145E-3,-5.813696489E-2,3.671408236E-2,6.942440869E-2
6.605498000E0,-2.692693971E-2,-2.814783834E-2,6.704417467E-3,3.952606860E-2
6.615553000E0,-3.865923174E-2,-5.251581721E-2,-9.476582408E-3,6.589577278E-2
6.625608000E0,-4.629094452E-2,-5.433437437E-2,1.101206124E-2,7.222424299E-2
6.635663000E0,-4.034030624E-2,-5.363628991E-2,3.387584388E-2,7.517821959E-2
6.645718000E0,-2.783384286E-2,-7.445815176E-2,7.259902954E-3,7.982133401E-2
6.655773000E0,-3.184876040E-2,-1.065694521E-1,2.451679051E-2,1.138967282E-1
6.665828000E0,-2.963756271E-2,-9.409397900E-2,8.056936920E-2,1.273714460E-1
6.675883000E0,4.499286264E-3,-7.945890985E-2,9.710061729E-2,1.255487627E-1
6.685938000E0,2.652253166E-2,-9.103720084E-2,8.218495488E-2,1.254814067E-1
6.695993000E0,2.720950641E-2,-9.046417370E-2,7.995950460E-2,1.237644793E-1
6.706048000E0,2.344104901E-2,-9.319869719E-2,1.037617654E-1,1.414283702E-1
6.716103000E0,1.865926914E-2,-9.637833998E-2,9.551251352E-2,1.369656635E-1
6.726158000E0,1.708264053E-2,-7.771497779E-2,7.892922521E-2,1.120770136E-1
6.736213000E0,1.052798487E-2,-5.344822884E-2,2.677381575E-2,6.069916672E-2
6.746268000E0,6.509924456E-3,-2.761698425E-2,-4.051301837E-2,4.946090975E-2
6.756323000E0,-1.066977985E-2,2.220333964E-3,-7.155003905E-2,7.237528704E-2
6.766378000E0,-5.726054035E-2,2.284748353E-2,-1.268863338E-1,1.410706160E-1
6.776433000E0,-8.162676506E-2,2.685253389E-2,-1.593465668E-1,1.810395418E-1
6.786488000E0,-4.867638923E-2,1.944783926E-3,-1.532140070E-1,1.607722146E-1
6.796543000E0,-1.218318544E-2,-2.973236069E-2,-9.621359468E-2,1.014371681E-1
6.806598000E0,4.475239590E-3,-6.240565158E-2,-9.998738766E-3,6.335982872E-2
6.816653000E0,2.403476067E-2,-7.726693489E-2,6.811655402E-2,1.057719900E-1
6.826708000E0,5.710617386E-2,-8.581088640E-2,1.080916286E-1,1.493600465E-1
6.836763000E0,5.483613856E-2,-7.323162518E-2,1.099680001E-1,1.430483626E-1
6.846818000E0,4.899243124E-2,-2.788771033E-2,6.305929720E-2,8.458402728E-2
6.856873000E0,5.140184954E-2,-6.189847872E-2,-2.365432620E-2,8.386357345E-2
6.866928000E0,5.109377436E-2,-5.689128868E-2,4.870730639E-4,7.646848859E-2
6.876983000E0,1.034489393E-2,-2.088033400E-2,4.129362166E-2,4.741485388E-2
6.887038000E0,-5.663116068E-2,-1.918895379E-2,1.946830451E-2,6.288337767E-2
6.897093000E0,-5.109720960E-2,-2.831433780E-2,-5.503107011E-2,8.025612271E-2
6.907148000E0,-7.657367438E-3,-2.334880918E-2,-9.971900046E-2,1.027019047E-1
6.917203000E0,1.693360962E-2,-2.293131799E-2,-1.232195449E-1,1.264739053E-1
6.927258000E0,1.969751537E-2,-1.821217641E-2,-1.352478522E-1,1.378827654E-1
6.937313000E0,2.576926410E-2,-9.928499088E-3,-1.400881773E-1,1.427841990E-1
6.947368000E0,5.592218578E-2,-1.775631286E-2,-1.643278098E-1,1.744884139E-1
6.957423000E0,7.028594412E-2,-7.273790091E-3,-1.211087000E-1,1.402153315E-1
6.967478000E0,2.873467952E-2,1.377962150E-2,-2.615167201E-2,4.122462522E-2
6.977533000E0,-1.152742021E-2,4.480648264E-3,6.502863944E-2,6.619427145E-2
6.987588000E0,-4.926418059E-2,-1.070515551E-2,1.149381334E-1,1.255083039E-1
6.997643000E0,-5.284121476E-2,-3.321145400E-3,1.292374992E-1,1.396622898E-1
7.007698000E0,-2.590141118E-2,3.288327903E-3,7.362930894E-2,7.812151647E-2
7.017753000E0,-2.316739932E-2,-2.699951828E-3,3.455879867E-2,4.169326920E-2
7.027808000E0,3.895707428E-4,1.752688274E-2,9.800518155E-3,2.008465932E-2
7.037863000E0,-8.671055362E-3,3.601234339E-2,-4.015341461E-2,5.462941316E-2
7.047918000E0,3.911568001E-3,2.774861969E-2,-1.143224216E-1,1.177068491E-1
7.057973000E0,1.273450479E-2,1.876466520E-2,-1.722642356E-1,1.737505314E-1
7.068028000E0,1.860817909E-2,2.943795338E-2,-2.046350062E-1,2.075773186E-1
7.078083000E0,3.158256590E-2,8.504190445E-3,-1.927990723E-1,1.955537317E-1
7.088138000E0,2.254956789E-2,-2.255921580E-2,-1.706673610E-1,1.736224333E-1
7.098193000E0,-5.701766163E-4,-1.058864973E-2,-1.447250193E-1,1.451129761E-1
7.108248000E0,-2.886478007E-3,-2.265942246E-3,-1.490274006E-1,1.490725742E-1
7.118303000E0,2.095685944E-2,-9.755713865E-3,-1.122823280E-1,1.146371890E-1
7.128358000E0,3.477492638E-2,-3.380721219E-2,-7.146993220E-2,8.637230059E-2
7.138413000E0,-8.938346207E-3,-1.935793832E-2,1.613948464E-2,2.674148039E-2
7.148468000E0,-5.711384833E-2,-1.120151103E-2,1.135950279E-1,1.276373609E-1
7.158523000E0,-7.729390517E-2,-3.471776985E-2,1.506482488E-1,1.728426052E-1
7.168578000E0,-1.003016755E-1,-3.507912777E-2,1.325639802E-1,1.698946149E-1
7.178633000E0,-7.993728518E-2,-4.493015125E-2,1.248591042E-1,1.549144407E-1
7.188688000E0,-5.566074215E-2,4.037604734E-2,1.635752732E-1,1.774407321E-1
7.198743000E0,-7.704817593E-2,8.788357817E-2,1.081284660E-1,1.592222029E-1
7.208798000E0,-8.226740062E-2,3.843265213E-2,9.161651373E-2,1.289906180E-1
7.218853000E0,-6.812773682E-2,3.305270210E-2,1.311553860E-1,1.514450557E-1
7.228908000E0,-7.766593426E-2,5.376258977E-2,1.097107226E-1,1.447717377E-1
7.238963000E0,-5.554854870E-4,5.740715928E-2,1.422802985E-1,1.534261185E-1
7.249018000E0,-6.712457389E-3,8.727400593E-2,8.671011508E-2,1.232089820E-1
7.259073000E0,1.777714357E-2,5.211177461E-2,2.078158915E-2,5.885183373E-2
7.269128000E0,1.984186850E-2,1.033655434E-1,-3.984526634E-2,1.125423501E-1
7.279183000E0,-6.239710003E-3,1.128030226E-1,-8.237966716E-2,1.398208334E-1
7.289238000E0,-2.970677912E-3,8.433475681E-2,-1.100106847E-1,1.386489340E-1
7.299293000E0,-1.285883121E-2,5.427772947E-2,-1.004364538E-1,1.148864775E-1
7.309348000E0,-3.704788528E-2,3.854126416E-2,-9.194746614E-2,1.063593502E-1
7.319403000E0,-3.396209031E-2,3.627758771E-3,-6.957309544E-2,7.750483741E-2
7.329458000E0,-9.132693037E-3,-8.746265173E-3,-3.617906213E-2,3.832528895E-2
7.339513000E0,-2.514375821E-2,1.651107520E-4,-6.617177010E-2,7.078798624E-2
7.349568000E0,-1.138365179E-2,1.441141315E-2,-8.525532782E-2,8.721093555E-2
7.359623000E0,-2.163499027E-2,3.827009954E-2,-1.293380713E-1,1.366053074E-1
7.369678000E0,-1.878798097E-2,3.733914971E-2,-1.435269248E-1,1.494897270E-1
7.379733000E0,-3.774487339E-2,3.364334397E-2,-6.153258920E-2,7.964175785E-2
7.389788000E0,-9.558158375E-2,3.508197829E-2,3.362675250E-2,1.072256631E-1
7.399843000E0,-1.202619501E-1,4.287397787E-3,1.270097101E-1,1.749650962E-1
7.409898000E0,-9.840739690E-2,-1.535800427E-2,1.990000445E-1,2.225329229E-1
7.419953000E0,-8.345570102E-2,6.853375286E-3,2.388254303E-1,2.530798469E-1
7.430008000E0,-6.432902008E-2,6.432083398E-3,2.642573100E-1,2.720505843E-1
7.440063000E0,-5.230933741E-2,2.065273114E-2,2.502356869E-1,2.564774865E-1
7.450118000E0,-2.602303326E-2,6.896885879E-2,1.747270828E-1,1.896403312E-1
7.460173000E0,-1.528038248E-2,9.743734382E-2,6.557418466E-2,1.184377463E-1
7.470228000E0,-1.401687227E-2,1.086406821E-1,-2.360813320E-2,1.120563004E-1
7.480283000E0,-1.610966384E-2,1.243951276E-1,-8.126928091E-2,1.494602457E-1
7.490338000E0,-3.091327898E-2,1.625023091E-1,-9.249885857E-2,1.895222154E-1
7.500392375E0,-1.324927904E-2,1.148168036E-1,-9.781748593E-2,1.514156608E-1
7.510447375E0,-3.717732802E-2,5.623559654E-3,-1.094247937E-1,1.157046396E-1
7.520502375E0,-2.034048982E-2,2.678624108E-2,-6.279091001E-2,7.123157037E-2
7.530557375E0,-6.335311979E-3,-3.097416312E-2,-3.386999667E-2,4.633261953E-2
7.540612375E0,-2.895468101E-3,-5.146982342E-2,-9.660769701E-3,5.244861228E-2
7.550667375E0,-2.257609963E-2,-3.963462040E-2,4.069954455E-2,6.113130405E-2
7.560722375E0,-3.360906467E-3,-4.567296691E-2,5.365112722E-2,7.053906046E-2
7.570777375E0,3.610582575E-3,-4.270448171E-2,1.357489586E-2,4.495538746E-2
7.580832375E0,-3.651863918E-2,-7.770949602E-4,-2.751056492E-2,4.572795716E-2
7.590887375E0,-5.074228361E-2,2.445451766E-3,-3.597733319E-2,6.225052678E-2
7.600942375E0,-5.741746500E-2,3.793600425E-3,-5.327690542E-2,7.841929190E-2
7.610997375E0,-3.631098993E-2,2.369715706E-2,-7.169212639E-2,8.378427197E-2
7.621052375E0,-3.136154115E-3,3.826154798E-2,-1.548529816E-1,1.595406764E-1
7.631107375E0,1.516248800E-2,5.865736708E-2,-1.973359269E-1,2.064268776E-1
7.641162375E0,1.940478913E-2,6.773794681E-2,-1.963097405E-1,2.085725042E-1
7.651217375E0,-2.017983757E-2,6.459916145E-2,-1.546968609E-1,1.688531797E-1
7.661272375E0,-4.536255285E-2,5.505709022E-2,-9.728188097E-2,1.206350229E-1
7.671327375E0,-1.520546503E-2,1.331469476E-2,-4.136671185E-2,4.604011417E-2
7.681382375E0,3.418618485E-2,-8.189390972E-3,7.018997669E-3,3.584728285E-2
7.691437375E0,2.444443122E-2,-7.238779888E-3,6.859602571E-2,7.318022202E-2
7.701492375E0,-3.500720702E-2,-1.528330609E-2,1.430182171E-1,1.480313967E-1
7.711547375E0,-5.606200732E-2,-3.135569394E-2,2.083281076E-1,2.180062582E-1
7.721602375E0,-4.516762130E-2,-3.374705896E-2,2.378162009E-1,2.444085174E-1
7.731657375E0,-4.086969852E-2,-1.997182287E-2,2.004706192E-1,2.055667170E-1
7.741712375E0,-2.746042505E-2,-1.840001822E-2,1.435544068E-1,1.473109070E-1
7.751767375E0,-6.257500157E-2,7.414342538E-3,9.602531433E-2,1.148541000E-1
7.761822375E0,-4.575504720E-2,4.218210608E-2,6.016024768E-2,8.655697441E-2
7.771877375E0,-5.255111977E-2,-2.514945924E-2,-5.989419937E-2,8.355495562E-2
7.781933375E0,-6.455589205E-2,3.898360603E-2,6.119578958E-2,9.711904756E-2
7.791988375E0,-3.077068001E-2,6.439107366E-2,1.500132412E-1,1.661235012E-1
7.802042375E0,3.440867141E-3,6.680443883E-5,9.436236620E-2,9.442510357E-2
7.812097375E0,-8.323292211E-3,3.325516194E-2,4.604214549E-2,5.740263191E-2
7.822153375E0,1.762138836E-2,2.009951144E-2,5.765062273E-2,6.354603047E-2
7.832208375E0,5.813236021E-2,1.203291200E-2,8.057638586E-2,1.000835463E-1
7.842263375E0,7.028820992E-2,1.602772973E-2,5.840491354E-2,9.278175736E-2
7.852318375E0,4.767914660E-2,2.084883213E-2,7.900173068E-2,9.460046656E-2
7.862373375E0,2.080760926E-2,4.084250897E-2,1.673005342E-2,4.879510047E-2
7.872428375E0,-1.762270398E-2,-1.056767285E-2,1.910519242E-2,2.805786490E-2
7.882483375E0,-4.614695683E-3,2.656682432E-2,4.507150769E-2,5.252173242E-2
7.892538375E0,-2.652304329E-2,-3.695528001E-2,-7.217744529E-2,8.531557979E-2
7.902593375E0,-5.339896604E-2,-3.011418387E-2,-1.017006218E-1,1.187490216E-1
7.912648375E0,-1.016699240E-2,2.087967619E-3,-1.418680698E-1,1.422472375E-1
7.922703375E0,6.585382774E-2,-2.456948854E-2,-1.888861156E-1,2.015399490E-1
7.932758375E0,7.035581835E-2,-3.710562654E-2,-1.930072331E-1,2.087547862E-1
7.942813375E0,2.628074929E-2,-5.023306422E-2,-2.393084103E-1,2.459320104E-1
7.952868375E0,3.955729097E-2,1.366706260E-2,-1.721244872E-2,4.525302487E-2
7.962923375E0,2.055793315E-2,-1.015814848E-2,-6.731607020E-2,7.111448448E-2
7.972978375E0,2.403717265E-2,-1.053302079E-1,-8.790236235E-2,1.392805215E-1
7.983033375E0,-1.881933667E-2,-7.077221319E-2,-1.820179760E-2,7.545978418E-2
7.993088375E0,-1.448399171E-2,-1.221372253E-1,-1.097814739E-2,1.234820130E-1
8.003143375E0,2.647992007E-2,-7.171412654E-2,1.791709667E-1,1.947981967E-1
8.013198375E0,-1.388348266E-2,-6.625406966E-2,9.813966751E-2,1.192214208E-1
8.023253375E0,-3.333563425E-2,-8.086955063E-2,2.711412370E-2,9.157687718E-2
8.033308375E0,-2.280165598E-2,2.135110795E-3,-1.014491916E-2,2.504782622E-2
8.043363375E0,2.410653524E-2,4.681704774E-2,-1.404068506E-1,1.499568094E-1
8.053418375E0,6.118716493E-2,-1.902420849E-2,-2.276613414E-1,2.365068203E-1
8.063473375E0,8.529238455E-2,9.935164914E-2,-7.756039202E-2,1.521878952E-1
8.073528375E0,6.040619619E-2,2.183956973E-2,-1.727384448E-1,1.842944537E-1
8.083583375E0,3.707054324E-2,-5.047148444E-2,-1.261519235E-1,1.408399934E-1
8.093638375E0,-3.776935861E-3,4.620901041E-2,6.705586910E-3,4.684552042E-2
8.103693375E0,4.176980428E-2,-6.441307381E-2,-1.489110410E-2,7.820169825E-2
8.113748375E0,6.420125842E-2,-1.000973153E-1,3.942777514E-2,1.252829740E-1
8.123803375E0,5.609014705E-2,-5.405831270E-2,8.683875382E-2,1.166592257E-1
8.133858375E0,6.194028631E-2,-7.648362726E-2,6.359139383E-2,1.171759774E-1
8.143913375E0,7.115330547E-2,-1.051405388E-1,2.591310561E-2,1.295716590E-1
8.153968375E0,4.175657496E-2,-7.848308265E-2,2.899692714E-2,9.350950539E-2
8.164023375E0,-3.470322490E-4,-5.058287390E-2,7.954552174E-3,5.120568780E-2
8.174078375E0,-2.705587082E-2,-6.153054267E-2,2.639491618E-2,7.221301425E-2
8.184133375E0,-3.497175828E-2,-4.769559190E-2,4.071006954E-2,7.179974321E-2
8.194188375E0,-3.409993842E-2,-1.800620824E-2,-5.667706132E-3,3.897630342E-2
8.204243375E0,-3.956650034E-2,-1.766209960E-2,-1.751825809E-2,4.673699902E-2
8.214298375E0,-4.335447282E-2,7.279710397E-3,1.438999772E-3,4.398494307E-2
8.224353375E0,-3.234979369E-2,8.014120683E-3,-2.107921243E-3,3.339429014E-2
8.234408375E0,-1.062548719E-2,-7.341544703E-3,2.032433689E-2,2.408065461E-2
8.244463375E0,-6.078326851E-3,-1.602882609E-2,4.566733897E-2,4.877883938E-2
8.254518375E0,-1.243702769E-2,-2.435811169E-2,3.903191864E-2,4.766012942E-2
8.264573375E0,1.015295908E-3,-4.071058117E-2,1.831114054E-2,4.465064515E-2
8.274628375E0,-9.332960173E-3,-3.821177356E-2,3.164337695E-2,5.048313668E-2
8.284683375E0,-4.714953505E-2,-5.303015292E-2,8.455892444E-2,1.103878955E-1
8.294738375E0,-8.177510161E-2,-4.862105995E-2,3.226166153E-1,3.363519811E-1
8.304793375E0,-1.382698029E-1,-2.878284596E-2,2.123246795E-1,2.550073727E-1
8.314848375E0,-1.163025811E-1,-2.408519290E-2,8.700481474E-2,1.472284778E-1
8.324903375E0,-8.299844876E-2,6.461904198E-4,4.063464046E-2,9.241392787E-2
8.334958375E0,-8.898844611E-2,2.264480442E-3,-6.137646854E-2,1.081255858E-1
8.345013375E0,-8.981250152E-2,4.339971565E-2,-1.476199758E-1,1.781613819E-1
8.355068375E0,-7.551496290E-3,8.736346833E-2,-1.956425732E-1,2.143954691E-1
8.365123375E0,7.814175144E-2,5.856636979E-2,-2.052056944E-1,2.272565291E-1
8.375178375E0,7.626271214E-2,2.365344912E-2,-1.880838776E-1,2.043306925E-1
8.385233375E0,5.286814850E-2,-9.217550755E-3,-6.485439241E-2,8.417895570E-2
8.395288375E0,4.705875702E-3,-7.039828375E-3,8.477468669E-2,8.519654895E-2
8.405343375E0,-3.359090175E-2,-1.426742546E-2,1.287703067E-1,1.338420711E-1
8.415398375E0,2.288746387E-3,-2.985515222E-2,1.032454562E-1,1.074997335E-1
8.425453375E0,2.620035008E-2,-1.635078840E-2,4.940604866E-2,5.826460563E-2
8.435508375E0,2.075143944E-2,-5.007116944E-3,1.039050221E-3,2.137225034E-2
8.445563375E0,2.612806387E-2,-4.615572765E-3,-3.164162278E-2,4.129372260E-2
8.455618375E0,2.062824592E-2,-2.846746176E-2,-1.101440012E-2,3.684071008E-2
8.465673375E0,-5.605798736E-3,-1.566805288E-2,-7.807787061E-3,1.838136011E-2
8.475728375E0,-5.155818947E-3,3.850391507E-3,-1.906835496E-2,2.012486385E-2
8.485783375E0,8.490632214E-3,-9.235311672E-3,-7.870936990E-3,1.480991108E-2
8.495838375E0,-1.881392799E-2,-1.178089701E-2,3.545634627E-2,4.183187674E-2
8.505893542E0,-4.397120789E-2,8.108699396E-3,8.179436088E-2,9.321767858E-2
8.515948542E0,-7.889772333E-2,1.639405780E-2,1.438368273E-1,1.648716130E-1
8.526003542E0,-5.076855954E-2,9.643958956E-3,2.262667805E-1,2.320928877E-1
8.536058542E0,2.605519295E-3,1.063133441E-2,-7.814803720E-2,7.891089734E-2
8.546113542E0,5.127752312E-3,-5.179266281E-2,-9.891442358E-2,1.117713602E-1
8.556168542E0,-5.030794512E-2,9.063659348E-2,-4.626024663E-2,1.135160422E-1
8.566224542E0,-1.006921599E-1,4.122126237E-2,-1.158625782E-1,1.589409971E-1
8.576279542E0,-6.065908827E-2,-4.782072231E-3,-8.179377615E-2,1.019441760E-1
8.586334542E0,-3.562174939E-2,6.124592945E-3,-1.006715119E-2,3.752022390E-2
8.596389542E0,2.318749912E-3,-1.168573357E-2,4.772555888E-2,4.919005937E-2
8.606444542E0,6.289886422E-3,-3.031035796E-2,6.560985267E-2,7.254607666E-2
8.616499542E0,-3.033487972E-2,-2.078502439E-2,8.106579781E-2,8.901621055E-2
8.626554542E0,-4.272776093E-2,-4.356541112E-3,6.638636291E-2,7.906826282E-2
8.636609542E0,-2.869857296E-2,-2.724948674E-3,5.322720408E-2,6.053237720E-2
8.646664542E0,-3.942642298E-2,8.994333297E-3,3.245789409E-3,4.056939744E-2
8.656719542E0,-5.788454790E-2,2.320613712E-2,-5.004982710E-2,7.996330957E-2
8.666774542E0,-2.899692714E-2,9.056971595E-3,-8.724572003E-2,9.238325704E-2
8.676829542E0,-7.698517218E-3,1.035088733E-2,-8.604470193E-2,8.700631452E-2
8.686884542E0,-3.887459200E-2,3.229453750E-2,-7.237683535E-2,8.827557618E-2
8.696939542E0,-5.444419239E-2,4.961742550E-2,-5.373474240E-2,9.117829533E-2
8.706994542E0,-5.355523288E-2,2.024963871E-2,-4.647191584E-2,7.374177784E-2
8.717049542E0,-7.038267899E-2,2.567439303E-3,-3.852321088E-2,8.027671533E-2
8.727104542E0,-9.505328782E-2,3.068560302E-2,-2.642883003E-2,1.033209408E-1
8.737159542E0,-6.182330545E-2,3.465250030E-2,-5.547253489E-3,7.108930226E-2
8.747214542E0,-1.666259117E-2,1.752001226E-2,1.815560460E-3,2.424642312E-2
8.757269542E0,1.370587349E-3,2.326453619E-2,-5.456621647E-3,2.393515978E-2
8.767324542E0,1.413823854E-2,-7.659121603E-4,1.955484331E-2,2.414266570E-2
8.777379542E0,1.530212682E-2,4.731420726E-3,9.206557989E-2,9.344844797E-2
8.787434542E0,1.032446522E-2,2.504011631E-2,1.284241515E-1,1.312492465E-1
8.797489542E0,1.405564662E-2,3.893266216E-2,1.117917466E-1,1.192086742E-1
8.807544542E0,3.069726091E-2,5.524617456E-2,7.115242839E-2,9.516895343E-2
8.817599542E0,2.562527642E-2,5.943577766E-2,2.622066915E-2,6.983401713E-2
8.827654542E0,1.087509021E-3,7.284358934E-2,-1.470457792E-2,7.432089743E-2
8.837709542E0,-1.097083837E-4,8.665127747E-2,-6.037250161E-2,1.056091609E-1
8.847764542E0,7.859973460E-3,5.651326619E-2,-5.846689403E-2,8.169397858E-2
8.857819542E0,1.793724764E-2,5.186611846E-2,-5.675190568E-2,7.894693088E-2
8.867874542E0,2.472495139E-2,1.305347040E-2,-3.524350762E-2,4.498689965E-2
8.877929542E0,-2.000453074E-2,1.633785143E-3,1.219670713E-2,2.348638262E-2
8.887984542E0,-7.027585767E-2,1.678918339E-2,4.573575139E-2,8.551217344E-2
8.898039542E0,-7.801804628E-2,5.514947623E-3,6.762831151E-2,1.033964154E-1
8.908094542E0,-5.613407426E-2,-6.789055914E-3,9.518916249E-2,1.107163142E-1
8.918149542E0,-4.558894973E-2,1.589945644E-2,7.434325397E-2,8.864572445E-2
8.928204542E0,-3.209189493E-2,1.282213993E-2,-4.332202077E-3,3.482908221E-2
8.938259542E0,-3.455233019E-2,2.790517889E-2,-7.665582776E-2,8.859276754E-2
8.948314542E0,-2.667207420E-2,8.570892558E-2,-1.347812444E-1,1.619364175E-1
8.958369542E0,3.696061559E-3,9.336300395E-2,-1.932124704E-1,2.146191280E-1
8.968424542E0,1.712324213E-2,8.040776677E-2,-2.124305141E-1,2.277835325E-1
8.978479542E0,3.040793337E-2,7.048270293E-2,-2.033813632E-1,2.173854473E-1
8.988534542E0,3.827704310E-2,6.051985145E-2,-1.437766010E-1,1.606222134E-1
8.998589542E0,2.959506076E-2,4.938375615E-2,-8.112485468E-2,9.947796258E-2
9.008644542E0,2.351092324E-3,5.101673730E-2,-2.595637500E-2,5.728846763E-2
9.018699542E0,4.506010562E-4,1.946728125E-2,3.015993834E-3,1.970467710E-2
9.028754542E0,2.187881917E-3,-2.488428801E-3,3.590424299E-2,3.605681309E-2
9.038809542E0,-7.926777899E-3,-9.341511726E-3,3.481022894E-2,3.690324767E-2
9.048864542E0,-2.831327800E-2,-6.629500017E-3,7.478588820E-3,3.002534383E-2
9.058919542E0,-4.619417310E-2,2.107570410E-2,-4.018440485E-2,6.475240014E-2
9.068974542E0,-4.887201514E-2,3.358487181E-2,-6.370950758E-2,8.703630757E-2
9.079029542E0,-5.701137587E-2,4.916974805E-2,-7.292471945E-2,1.048140058E-1
9.089084542E0,-6.715962064E-2,3.219177268E-2,-8.906654298E-2,1.161015674E-1
9.099140542E0,-6.911946114E-2,3.904507488E-2,-1.205169618E-1,1.443133946E-1
9.109195542E0,-4.820503056E-2,3.641974814E-2,-1.316459674E-1,1.448474499E-1
9.119250542E0,-2.596953124E-2,2.282402158E-2,-1.029899329E-1,1.086382934E-1
9.129305542E0,-2.100846112E-2,8.738809973E-3,-8.834499657E-2,9.122806946E-2
9.139360542E0,-2.175931670E-3,2.561445907E-3,-1.327411509E-1,1.327836918E-1
9.149415542E0,6.428545833E-2,4.176541887E-2,-7.179035962E-2,1.050277397E-1
9.159470542E0,8.448568806E-2,1.903078660E-2,-4.642455339E-2,9.826108835E-2
9.169525542E0,5.153999001E-2,-2.477881886E-2,-2.272637308E-2,6.153737456E-2
9.179580542E0,1.054359694E-1,-1.278369449E-2,2.526055634E-2,1.091707937E-1
9.189635542E0,1.140511473E-1,2.708364509E-2,2.016412318E-2,1.189444404E-1
9.199690542E0,7.211498972E-2,1.266346112E-2,-3.873546481E-2,8.283339438E-2
9.209745542E0,4.622585770E-2,4.953154452E-2,-6.846153975E-2,9.631815118E-2
9.219800542E0,1.592781544E-2,7.783608824E-2,-1.101977956E-1,1.358517799E-1
9.229855542E0,3.825829547E-2,5.622762971E-2,-8.531730831E-2,1.091067670E-1
9.239910542E0,4.738123097E-2,4.215688996E-2,-4.093869567E-2,7.548616577E-2
9.249965542E0,7.499079656E-2,3.907080263E-2,3.099024296E-4,8.455911084E-2
9.260020542E0,8.240590654E-2,1.520831555E-2,1.906426191E-2,8.593877110E-2
9.270075542E0,9.771643873E-2,1.207164980E-2,2.202353776E-2,1.008923354E-1
9.280130542E0,1.063898695E-1,-1.511856079E-2,1.730249584E-2,1.088427838E-1
9.290185542E0,9.835462578E-2,-3.918073028E-3,1.873214006E-2,1.001991855E-1
9.300240542E0,8.916166987E-2,1.324080057E-2,3.018215775E-2,9.505832326E-2
9.310295542E0,7.983166985E-2,-1.338208392E-3,4.382137299E-2,9.107798331E-2
9.320350542E0,8.196732882E-2,-1.211893916E-2,2.688257396E-2,8.711018576E-2
9.330405542E0,1.041444656E-1,-1.441199787E-2,2.295149088E-2,1.076129469E-1
9.340460542E0,3.156352591E-2,5.505518988E-3,3.012719393E-2,4.397970806E-2
9.350515542E0,-1.053441681E-2,1.980817392E-2,5.145081997E-2,5.612953382E-2
9.360570542E0,-6.423495300E-2,-2.652443200E-3,5.266645610E-2,8.310788314E-2
9.370625542E0,2.589512542E-3,-1.584909730E-2,6.805048048E-2,6.991972078E-2
9.380680542E0,9.578762501E-3,1.017832138E-2,1.463324189E-2,2.023567853E-2
9.390735542E0,-6.321465041E-2,3.121850364E-2,3.259881198E-2,7.767476771E-2
9.400790542E0,-2.769234024E-2,-1.505219489E-2,9.327946186E-2,9.846061286E-2
9.410845542E0,-1.334930297E-2,-4.044263251E-2,1.160830182E-1,1.236490094E-1
9.420900542E0,2.668998130E-3,-6.081367403E-2,1.528503102E-1,1.645255112E-1
9.430955542E0,3.655536700E-2,-3.810308844E-2,2.135391462E-1,2.199706961E-1
9.441010542E0,4.667510659E-2,-1.566330202E-2,1.957846606E-1,2.018800087E-1
9.451065542E0,1.238776490E-2,2.639579326E-3,1.030799800E-1,1.038552183E-1
9.461120542E0,2.839926861E-2,2.169777475E-2,6.905093908E-2,7.775181075E-2
9.471175542E0,5.238959044E-2,3.708947361E-2,5.006970763E-3,6.438453227E-2
9.481231542E0,3.977977753E-2,4.239231348E-2,-3.644861877E-2,6.861516416E-2
9.491285542E0,2.325053941E-2,7.270194054E-2,-4.954345822E-2,9.099842852E-2
9.501341542E0,9.849086590E-3,6.247757234E-2,-5.286643088E-2,8.243367677E-2
9.511396542E0,-5.252298005E-3,7.556941509E-3,-7.927128732E-2,7.980370288E-2
9.521451542E0,1.841178574E-3,2.800253503E-2,-4.969139278E-2,5.706808585E-2
9.531506542E0,1.944338076E-2,2.547719568E-2,5.001065075E-2,5.939863419E-2
9.541561542E0,3.244609002E-2,-6.771404631E-2,6.809491932E-2,1.013649785E-1
9.551616542E0,2.058676723E-2,-2.660600066E-2,1.365061730E-1,1.405902896E-1
9.561671542E0,-3.383268412E-2,-2.478335045E-2,2.047659838E-1,2.090166814E-1
9.571726542E0,-8.025548335E-2,-6.304592170E-2,2.192670786E-1,2.418548793E-1
9.581781542E0,-1.368460790E-1,-6.141147874E-2,2.674235773E-1,3.066163543E-1
9.591836542E0,-1.456234440E-1,-6.271570019E-2,3.015835959E-1,3.407229253E-1
9.601891542E0,-1.325584254E-1,-9.689501457E-2,2.626311994E-1,3.097346071E-1
9.611946542E0,-1.189067483E-1,-4.900712237E-2,2.104945010E-1,2.466747814E-1
9.622001542E0,-5.477360990E-2,1.995099217E-2,1.686863244E-1,1.784748342E-1
9.632056542E0,-1.390343629E-2,3.522333473E-2,6.742950618E-2,7.733516118E-2
9.642111542E0,3.961945418E-2,9.182949856E-2,-2.380518436E-2,1.028058596E-1
9.652166542E0,9.006016765E-2,9.762116566E-2,-5.813828051E-2,1.449854663E-1
9.662221542E0,1.044373380E-1,7.769078493E-2,-7.059168041E-2,1.480749843E-1
9.672276542E0,1.096824001E-1,9.108734071E-2,-5.807863891E-2,1.539488903E-1
9.682331542E0,1.272752833E-1,6.206760943E-2,-9.239711702E-2,1.690816759E-1
9.692386542E0,1.090938413E-1,5.697000682E-2,-1.375089705E-1,1.845420409E-1
9.702441542E0,1.056294391E-1,2.141981274E-2,-1.529970753E-1,1.871483151E-1
9.712496542E0,1.458586117E-1,-4.436282516E-3,-1.459406555E-1,2.063809345E-1
9.722551542E0,1.336352632E-1,1.218252763E-2,-1.256590033E-1,1.838395568E-1
9.732606542E0,9.600791886E-2,-4.912041217E-2,-1.240264606E-1,1.643560109E-1
9.742661542E0,9.123918559E-2,-7.172121629E-2,-9.118089616E-2,1.475888806E-1
9.752716542E0,6.030916896E-2,-4.504563376E-2,-4.117667735E-2,8.580107073E-2
9.762771542E0,9.421216585E-3,-7.322687432E-2,-1.459172666E-2,7.525857381E-2
9.772826542E0,-3.589576453E-2,-8.484236822E-2,2.323098779E-3,9.215275440E-2
9.782881542E0,-6.318910539E-2,-6.368699580E-2,-7.451691628E-3,9.002457544E-2
9.792936542E0,-7.585161634E-2,-6.381388038E-2,-1.390350938E-2,1.000948880E-1
9.802991542E0,-1.102762214E-1,-4.671486765E-2,-7.838777304E-3,1.200190414E-1
9.813046542E0,-1.396823440E-1,-3.063970238E-2,-1.045306742E-2,1.433848500E-1
9.823101542E0,-1.301283956E-1,-8.720625132E-2,-7.757501006E-2,1.748033518E-1
9.833156542E0,-1.084175012E-1,-7.056668356E-2,-9.944301188E-2,1.631653272E-1
9.843212542E0,-1.166721617E-1,9.051051289E-3,-1.091733634E-1,1.600410514E-1
9.853267542E0,-1.002732069E-1,3.957483262E-2,-1.310051125E-1,1.696561903E-1
9.863322542E0,-6.715702593E-2,3.191498011E-2,-1.523299080E-1,1.695082091E-1
9.873377542E0,-3.989569858E-2,2.398103938E-2,-1.550120258E-1,1.618501936E-1
9.883432542E0,-3.192831907E-2,3.194231585E-2,-1.720987594E-1,1.779261422E-1
9.893487542E0,-2.825666964E-2,3.481797650E-2,-1.445443404E-1,1.513400053E-1
9.903542542E0,-1.392536335E-2,1.761839166E-2,-1.320687211E-1,1.339644376E-1
9.913597542E0,1.083225936E-2,9.161125124E-3,-1.279236299E-1,1.287078830E-1
9.923652542E0,1.592065260E-2,7.618921995E-3,-1.207444185E-1,1.220275778E-1
9.933707542E0,2.185608812E-2,-1.146975204E-2,-1.502319270E-1,1.522461024E-1
9.943762542E0,4.470477764E-2,-2.544386655E-2,-1.548114663E-1,1.631333736E-1
9.953817542E0,6.109788526E-2,-2.687935799E-2,-1.249625999E-1,1.416725197E-1
9.963872542E0,5.397162773E-2,-4.743261337E-2,-6.892990172E-2,9.956967792E-2
9.973927542E0,4.489660285E-2,-8.947043940E-2,-1.515773714E-2,1.012443651E-1
9.983982542E0,6.442177154E-2,-9.307890236E-2,2.543597281E-2,1.160208405E-1
9.994037542E0,6.566598594E-2,-8.203672796E-2,5.652737260E-2,1.193205359E-1
1.000409254E1,5.684626512E-2,-5.871437743E-2,5.842303991E-2,1.004595818E-1
1.001414754E1,6.475151796E-2,-4.318037197E-2,6.019006848E-2,9.838774286E-2
1.002420254E1,7.535913460E-2,-4.114042461E-2,1.708439469E-2,8.754090613E-2
1.003425754E1,6.136174086E-2,-1.494241342E-2,-1.021800935E-2,6.397614146E-2
1.004431254E1,3.654060278E-2,-4.416401982E-3,-1.981679857E-2,4.180222199E-2
1.005436754E1,3.521982640E-2,2.070659861E-2,-1.784804106E-2,4.458421209E-2
1.006442254E1,7.034763224E-2,2.569441974E-2,-3.606270254E-2,8.312346890E-2
1.007447754E1,6.544379175E-2,3.477880016E-2,-5.370082855E-2,9.152176684E-2
1.008453254E1,1.651469316E-2,5.495988026E-2,-7.954669118E-2,9.808669434E-2
1.009458754E1,-3.594594095E-2,8.416628391E-3,-2.415133953E-2,4.411618190E-2
1.010464254E1,-7.539863985E-2,3.022571951E-3,4.672276139E-2,8.875306904E-2
1.011469754E1,-1.103709828E-1,-6.621533185E-3,1.183692795E-1,1.619780383E-1
1.012475354E1,-1.370880075E-1,-7.973263264E-3,1.544904542E-1,2.066978354E-1
1.013480854E1,-1.093530557E-1,-2.706091404E-3,1.619579333E-1,1.954374219E-1
1.014486354E1,-7.938282296E-2,1.395057946E-2,1.745113206E-1,1.922250043E-1
1.015491854E1,-2.326303784E-2,3.212854967E-2,9.964591026E-2,1.072507346E-1
1.016497354E1,3.796355926E-2,3.408254296E-2,4.252387583E-2,6.641635026E-2
1.017502854E1,1.892498855E-2,8.324710160E-2,-5.882298946E-3,8.557357395E-2
1.018508354E1,4.749225497E-2,5.368840322E-2,-6.047775149E-2,9.378441954E-2
1.019513854E1,8.523935761E-2,3.385187030E-2,-8.368593514E-2,1.241572912E-1
1.020519354E1,5.274181210E-2,6.310037389E-2,-1.255438131E-1,1.500819941E-1
1.021524854E1,4.262620211E-4,6.380832553E-2,-1.507207543E-1,1.636717137E-1
1.022530354E1,2.402218916E-3,4.594698206E-2,-1.334469098E-1,1.411558484E-1
1.023535854E1,1.269408591E-2,3.056471184E-2,-1.135535127E-1,1.182782384E-1
1.024541354E1,4.011189938E-3,1.859663084E-2,-9.131128907E-2,9.327205281E-2
1.025546854E1,8.473711833E-3,3.726898313E-2,-8.929224551E-2,9.712819366E-2
1.026552354E1,1.001847312E-3,2.613047585E-2,-7.625178516E-2,8.061104271E-2
1.027557854E1,2.274859250E-2,3.103000402E-2,-5.579997897E-2,6.777903262E-2
1.028563354E1,4.807083696E-2,1.387018025E-2,-4.846230805E-2,6.965473830E-2
1.029568854E1,-1.557822503E-2,-2.135549337E-3,2.841746807E-2,3.247759470E-2
1.030574354E1,-7.947367407E-2,1.363863051E-3,1.093633980E-1,1.351971812E-1
1.031579854E1,-5.633624174E-2,9.893196523E-3,1.588121313E-1,1.687985205E-1
1.032585354E1,-1.992869966E-2,9.822299033E-3,1.379662228E-1,1.397437271E-1
1.033590854E1,-3.010658249E-3,2.668713078E-2,1.420756459E-1,1.445916878E-1
1.034596354E1,-1.847413167E-2,4.921031311E-2,1.322382903E-1,1.423021921E-1
1.035601854E1,-4.747734457E-2,5.133577600E-2,1.205684173E-1,1.393779157E-1
1.036607354E1,-3.434376732E-2,6.915808931E-2,1.482561529E-1,1.671592730E-1
1.037612954E1,-1.333457530E-2,6.507439390E-2,1.352022439E-1,1.506390866E-1
1.038618454E1,-3.513664976E-3,6.565794602E-2,9.237723649E-2,1.133881190E-1
1.039623954E1,3.448395431E-4,6.071032450E-2,7.297325134E-2,9.492606505E-2
1.040629454E1,-1.788305126E-2,6.336086735E-2,5.557603061E-2,8.615740370E-2
1.041634954E1,-1.281249203E-2,5.767810464E-2,3.129488289E-2,6.686025278E-2
1.042640454E1,-7.073669136E-4,3.171982929E-2,3.712221801E-2,4.883346197E-2
1.043645954E1,8.379060030E-4,1.109348372E-2,5.585845113E-2,5.695554433E-2
1.044651454E1,-2.160970107E-2,8.767753690E-3,3.079962373E-2,3.863249289E-2
1.045656954E1,-1.132686071E-2,-3.382614255E-3,-9.359638095E-3,1.507788705E-2
1.046662454E1,-4.235503748E-3,-4.576615691E-3,-1.498056650E-3,6.413195530E-3
1.047667954E1,-6.934359223E-3,-1.022955760E-2,-4.193038344E-3,1.305031636E-2
1.048673454E1,-6.511744402E-2,-1.774527624E-2,9.877701402E-3,6.821103525E-2
1.049678954E1,-1.043426862E-1,-1.999864697E-2,4.377108693E-2,1.149053963E-1
1.050684517E1,-9.874704704E-2,-2.651624590E-2,3.589430273E-2,1.083627776E-1
1.051690017E1,-9.069945104E-2,-5.510839954E-2,3.333673060E-2,1.112414659E-1
1.052695517E1,-9.048748948E-2,-4.834653318E-2,4.892072976E-2,1.136600670E-1
1.053701017E1,-9.833328344E-2,-1.867586061E-2,5.153969765E-2,1.125813610E-1
1.054706517E1,-8.150273100E-2,-2.911124021E-2,4.344071925E-2,9.683623059E-2
1.055712017E1,-6.362019137E-2,-3.423281640E-2,3.176266015E-2,7.891945924E-2
1.056717517E1,-5.198774055E-2,-4.186957240E-2,4.504636467E-2,8.052925698E-2
1.057723017E1,-4.053699195E-2,-4.628407404E-2,4.467214286E-2,7.603330569E-2
1.058728517E1,-3.896569893E-2,-3.499792457E-2,-2.839641809E-2,5.957799071E-2
1.059734017E1,-4.472586416E-2,-1.635334656E-2,-6.795984864E-2,8.298419064E-2
1.060739517E1,-5.910950303E-2,-8.441332877E-3,-1.066508746E-1,1.222276503E-1
1.061745017E1,-8.390951805E-2,-5.441857427E-3,-1.354653686E-1,1.594405442E-1
1.062750617E1,-8.046112262E-2,-1.610293955E-2,-1.197767043E-1,1.451886904E-1
1.063756117E1,6.723786369E-3,-1.267335753E-1,-1.297234029E-1,1.814793918E-1
1.064761617E1,3.189333080E-1,-5.319773412E-1,-1.358945543E-1,6.349690357E-1
1.065767117E1,-1.970601576E-1,1.527763429E-1,1.013035959E-1,2.691388772E-1
1.066772617E1,-1.607934603E-1,2.343623967E-1,1.682407665E-1,3.302805253E-1
1.067778117E1,-1.533651575E-2,-1.551962131E-1,-1.380328810E-1,2.082646142E-1
1.068783617E1,3.481125221E-2,-1.050931764E-1,-1.002288777E-1,1.493393013E-1
1.069789117E1,-2.300842814E-2,8.106623635E-2,3.794784486E-2,9.241840385E-2
1.070794617E1,-7.359692998E-2,-3.267862648E-3,7.048584580E-2,1.019580379E-1
1.071800117E1,-8.535619229E-3,-7.460477069E-2,1.023660350E-1,1.269548492E-1
1.072805617E1,1.338376500E-2,-2.149100259E-2,1.356670976E-2,2.872357867E-2
1.073811117E1,1.381404698E-2,2.788887978E-2,-4.926688492E-2,5.827386600E-2
1.074816617E1,4.711437866E-2,5.904079825E-3,-8.988749206E-2,1.016581726E-1
1.075822117E1,3.971421562E-2,-1.284267828E-2,-1.135236919E-1,1.209536355E-1
1.076827617E1,-1.037661508E-3,2.613603070E-2,-1.055761564E-1,1.087680727E-1
1.077833117E1,-2.056509599E-2,4.801601931E-2,-1.438549536E-1,1.530447940E-1
1.078838617E1,-1.768190704E-2,2.491922513E-2,-1.617065030E-1,1.645679517E-1
1.079844117E1,-6.631546542E-3,1.523185059E-2,-1.558820915E-1,1.567648339E-1
1.080849617E1,-2.162081078E-2,1.204745695E-2,-1.538039911E-1,1.557827601E-1
1.081855117E1,-3.570814200E-2,1.354785249E-2,-1.055556911E-1,1.122524817E-1
1.082860617E1,-4.812645860E-2,9.560343772E-3,-3.004182458E-2,5.753318533E-2
1.083866217E1,-5.725593567E-2,-3.053883791E-2,4.988727450E-2,8.185110230E-2
1.084871717E1,-6.580514967E-2,-7.021263465E-2,1.403665048E-1,1.701848626E-1
1.085877217E1,-7.534437038E-2,-7.017682046E-2,2.258475351E-1,2.482109373E-1
1.086882717E1,-9.990223758E-2,-6.664744109E-2,2.865445572E-1,3.106929702E-1
1.087888217E1,-9.746592209E-2,-5.300881058E-2,3.003001320E-1,3.201401400E-1
1.088893717E1,-5.509012699E-2,-3.544085115E-2,2.471185362E-1,2.556531771E-1
1.089899217E1,-2.293409541E-2,8.075881898E-3,1.287018943E-1,1.309785104E-1
1.090904717E1,-6.879980117E-4,5.171379849E-2,-4.480136633E-3,5.191205949E-2
1.091910217E1,9.847442061E-4,9.105313450E-2,-1.167840993E-1,1.480883820E-1
1.092915717E1,-1.171255767E-2,1.333190019E-1,-1.961980587E-1,2.374969864E-1
1.093921217E1,-7.099762335E-3,1.295038399E-1,-2.401808149E-1,2.729624058E-1
1.094926717E1,2.873964965E-2,1.114473456E-1,-1.723554522E-1,2.072507665E-1
1.095932217E1,5.540200286E-2,6.247501418E-2,-1.070484853E-1,1.357640877E-1
1.096937717E1,4.275462158E-2,8.265185505E-3,-5.988776743E-2,7.404603734E-2
1.097943217E1,5.265666202E-2,-4.324703023E-2,1.112257361E-2,6.904159125E-2
1.098948717E1,5.820384242E-2,-3.602191821E-2,4.419910312E-2,8.147899471E-2
1.099954217E1,2.372624695E-2,-4.677085474E-2,9.614752114E-2,1.095207445E-1
1.100959717E1,-1.067570016E-2,-2.732623145E-2,8.798539281E-2,9.274762987E-2
1.101965217E1,-5.330738403E-2,-7.910698056E-3,7.864505053E-2,9.533782202E-2
1.102970717E1,-6.930792421E-2,1.196164906E-2,1.276546580E-1,1.457476624E-1
1.103976217E1,-2.410061494E-2,1.169267714E-2,1.005446273E-1,1.040518160E-1
1.104981817E1,1.341044292E-2,2.741847128E-2,5.803420007E-2,6.557118974E-2
1.105987317E1,4.702769369E-2,2.655761495E-2,3.625215232E-2,6.504713240E-2
1.106992817E1,6.528284714E-2,4.082555205E-2,2.268368840E-2,8.026908215E-2
1.107998317E1,7.882792220E-2,6.016214803E-2,-8.959688544E-3,9.956706982E-2
1.109003817E1,5.709521033E-2,6.229989007E-2,-5.904342949E-2,1.030886313E-1
1.110009317E1,4.765393049E-2,3.290023595E-2,-3.378111899E-2,6.704093240E-2
1.111014817E1,3.010051601E-2,2.159581393E-2,-3.085517228E-2,4.821267364E-2
1.112020317E1,-2.645543486E-2,9.672756493E-4,-7.719494104E-3,2.757564587E-2
1.113025817E1,-4.167412922E-2,-2.204283357E-2,4.066621542E-2,6.226042591E-2
1.114031317E1,-2.827991232E-2,-3.743270516E-2,5.240450084E-2,7.033628200E-2
1.115036817E1,-1.007745691E-2,-1.671923608E-2,3.087739170E-2,3.653082685E-2
1.116042317E1,-3.155252583E-2,-1.056445688E-2,7.958060503E-3,3.421257609E-2
1.117047817E1,-6.568425849E-2,1.638609096E-2,4.121468425E-2,7.925639399E-2
1.118053317E1,-4.184114031E-2,-4.935985565E-2,-1.146931350E-2,6.571621965E-2
1.119058817E1,-7.459051810E-2,1.619532555E-3,-7.139508784E-2,1.032648384E-1
1.120064317E1,-8.825268365E-2,3.444536269E-2,-7.695812881E-2,1.220556134E-1
1.121069817E1,-7.370086424E-2,-1.755480319E-3,-8.453553557E-2,1.121657518E-1
1.122075317E1,-4.988902867E-2,-1.016670004E-2,-6.363466322E-2,8.149630258E-2
1.123080817E1,-1.971271813E-2,-1.270395309E-2,-4.689233065E-2,5.242968962E-2
1.124086317E1,-5.398588032E-3,-3.828698337E-2,-1.294281185E-2,4.077443104E-2
1.125091917E1,-1.061276950E-2,-6.567373350E-2,-7.894910574E-3,6.699253512E-2
1.126097417E1,-2.446752772E-2,-1.721040219E-2,2.579031408E-2,3.949681198E-2
1.127102917E1,-3.142754160E-2,-5.396541506E-3,2.976992905E-2,4.362409549E-2
1.128108417E1,-1.868952848E-2,3.196234256E-3,5.212441921E-2,5.546593068E-2
1.129113917E1,-1.504159681E-2,2.044098884E-2,6.559289575E-2,7.033144128E-2
1.130119417E1,-8.235803246E-3,4.545245379E-2,4.865877450E-2,6.709269965E-2
1.131124917E1,-1.248965263E-3,1.999192268E-2,4.334482491E-2,4.774945793E-2
1.132130417E1,1.792317778E-3,2.267272487E-2,5.890251160E-2,6.314088001E-2
1.133135917E1,-2.630881593E-3,2.072779477E-2,5.126604795E-2,5.536037109E-2
1.134141417E1,-1.405334428E-2,-1.570459798E-2,2.808359206E-2,3.511152270E-2
1.135146917E1,-4.422176108E-3,1.014141083E-2,-9.139198065E-3,1.435021938E-2
1.136152417E1,-1.351466954E-2,3.173342407E-2,-5.642913938E-2,6.613549929E-2
1.137157917E1,-3.406112753E-2,9.282893389E-3,-8.132541418E-2,8.865751807E-2
1.138163417E1,-5.260184437E-2,6.311046034E-3,-7.417485416E-2,9.115202863E-2
1.139168917E1,-4.223845862E-2,6.668018550E-3,-2.987634838E-2,5.216460534E-2
1.140174417E1,-2.906241596E-2,-6.107124388E-3,-1.574128926E-2,3.361114662E-2
1.141179917E1,-1.476633914E-2,-2.376264587E-2,-3.267541051E-2,4.301616629E-2
1.142185417E1,1.639997810E-3,-3.791290775E-2,-3.704211116E-3,3.812872076E-2
1.143190917E1,7.887382284E-3,-3.137586683E-2,4.659002960E-2,5.672113078E-2
1.144196517E1,-7.601453438E-3,-3.141972095E-2,6.218864679E-2,7.008857788E-2
1.145202017E1,-5.285078958E-3,-3.589854196E-2,5.332660675E-2,6.450088652E-2
1.146207517E1,-2.724948674E-3,-4.293522745E-2,4.199587226E-2,6.012081494E-2
1.147213017E1,-2.671563596E-2,-1.372736201E-2,-3.817062378E-3,3.027764253E-2
1.148218517E1,-4.481028333E-2,7.690550387E-3,-2.904428959E-2,5.395068874E-2
1.149224017E1,-3.327884316E-2,-3.688131273E-4,-2.475243330E-2,4.147650395E-2
1.150229517E1,-2.863900445E-2,-6.890651286E-3,-4.227127612E-2,5.152217421E-2
1.151235300E1,-2.764044620E-2,6.692138314E-3,-3.889801741E-2,4.818542040E-2
1.152240800E1,-3.178846098E-2,2.663465202E-2,-3.871207595E-2,5.673214049E-2
1.153246300E1,-8.861966953E-3,1.188914359E-2,-4.346118450E-2,4.592124510E-2
1.154251800E1,2.287810832E-2,8.274102509E-3,-2.017230928E-2,3.160364970E-2
1.155257300E1,2.117225625E-2,1.879587471E-2,-9.389458895E-3,2.982802842E-2
1.156262800E1,3.497745931E-2,1.287688449E-2,2.341809869E-3,3.734596213E-2
1.157268300E1,6.543078169E-2,5.759361237E-3,1.513902605E-2,6.740584206E-2
1.158273800E1,5.015763514E-2,1.020543784E-2,1.689143658E-2,5.390046339E-2
1.159279300E1,2.524820410E-2,1.626505360E-2,3.425298929E-2,4.555536252E-2
1.160284800E1,9.921628609E-3,-7.661752850E-3,3.908337414E-2,4.104450396E-2
1.161290300E1,1.558458388E-2,-2.939380690E-2,1.964196682E-2,3.863524297E-2
1.162295800E1,-3.581054136E-3,-2.249862403E-2,3.204215705E-2,3.931554223E-2
1.163301400E1,-4.131847233E-2,-1.133263484E-2,2.878584266E-2,5.161656231E-2
1.164306900E1,-7.074911669E-2,-1.484710380E-2,5.844175100E-2,9.295865890E-2
1.165312400E1,-6.028208904E-2,-1.147852287E-2,8.207385778E-2,1.024783142E-1
1.166317900E1,-2.396707915E-2,-9.750085920E-3,5.111402035E-2,5.728986066E-2
1.167323400E1,1.212390929E-2,-9.416356087E-3,2.714920700E-2,3.118872198E-2
1.168328900E1,4.081444234E-2,7.022652179E-3,-1.999513865E-2,4.598849765E-2
1.169334400E1,2.497806273E-2,2.236779258E-2,-5.780323505E-2,6.682391597E-2
1.170339900E1,4.568473443E-2,1.872453868E-2,-8.153123617E-2,9.531550651E-2
1.171345400E1,8.434506252E-2,9.716610610E-3,-9.626914322E-2,1.283598459E-1
1.172350900E1,7.587135069E-2,1.280394047E-3,-7.529635012E-2,1.069001478E-1
1.173356400E1,1.784234002E-2,2.385225445E-3,-3.409920752E-2,3.855897239E-2
1.174361900E1,3.591725305E-3,-1.232359171E-2,1.113485277E-2,1.699283230E-2
1.175367400E1,2.733485609E-2,-2.509975791E-2,1.859239161E-2,4.150745994E-2
1.176372900E1,4.350708514E-2,-7.874006778E-3,-7.027768493E-3,4.476891746E-2
1.177378400E1,3.224308200E-2,3.540050536E-3,-2.558741570E-2,4.131421229E-2
1.178383900E1,1.630013689E-2,3.707719445E-3,-2.297195613E-2,2.841042792E-2
1.179389400E1,3.251285791E-2,1.644383222E-3,-1.024315238E-2,3.412787858E-2
1.180394900E1,6.744660929E-2,-7.644065022E-3,1.030279398E-3,6.788621591E-2
1.181400500E1,6.912892632E-2,-2.034092836E-2,1.087874472E-2,7.287598307E-2
1.182406000E1,4.878967904E-2,-4.142072551E-2,4.291096151E-2,7.705491483E-2
1.183411500E1,6.906511858E-3,-3.078456715E-2,5.628705204E-2,6.452613197E-2
1.184417000E1,-4.237996124E-2,-2.697868757E-2,7.829246342E-2,9.302483822E-2
1.185422500E1,-5.371551968E-2,-2.069051877E-2,1.064240026E-1,1.209938964E-1
1.186428000E1,-3.680084042E-2,-3.189619593E-2,9.075931191E-2,1.029996207E-1
1.187433500E1,-3.991133988E-2,-3.225799240E-2,7.728849649E-2,9.277394470E-2
1.188439000E1,-5.169428341E-2,1.148787841E-2,3.215091527E-2,6.195120370E-2
1.189444500E1,-2.869638026E-2,3.643780142E-2,-1.523375094E-2,4.881867245E-2
1.190450000E1,5.071874857E-3,2.431243032E-2,-5.975035787E-2,6.470644054E-2
1.191455500E1,1.661018550E-2,-3.882405013E-3,-6.191382766E-2,6.422066168E-2
1.192461000E1,8.737055808E-3,-2.800414301E-2,-2.389873981E-2,3.783804877E-2
1.193466500E1,-1.583586797E-2,-1.171840489E-2,6.479299664E-3,2.073829915E-2
1.194472000E1,-2.401385687E-2,-1.750415169E-2,-1.848246396E-2,3.499517284E-2
1.195477500E1,3.636456504E-2,-2.777200855E-2,-7.197337747E-3,4.631919387E-2
1.196483000E1,1.016533325E-1,-2.390444085E-2,-1.052615762E-2,1.049553347E-1
1.197488500E1,1.058213009E-1,1.607158385E-2,-2.407941878E-2,1.097098990E-1
1.198494100E1,7.676707104E-2,2.980135784E-2,-3.649656594E-2,9.007387773E-2
1.199499600E1,7.387781560E-2,2.236114137E-2,-2.003723860E-2,7.974611722E-2
1.200505100E1,6.481485061E-2,4.517924264E-3,2.877414823E-3,6.503580564E-2
1.201510600E1,3.353772864E-2,8.182812855E-3,1.133541226E-2,3.633495892E-2
1.202516100E1,-5.467073545E-3,-3.718317524E-3,3.032541454E-2,3.103780832E-2
1.203521600E1,-2.320906073E-2,-2.314218320E-2,3.763384938E-2,4.990518773E-2
1.204527100E1,-2.796825573E-2,-2.428180553E-2,6.716696620E-3,3.764230893E-2
1.205532600E1,-1.930231668E-2,-2.181018747E-2,3.755081892E-3,2.936604071E-2
1.206538100E1,-3.102130629E-2,-3.278321855E-2,-6.116772294E-3,4.554641331E-2
1.207543600E1,-3.946044646E-2,-2.704381093E-2,-2.995411634E-2,5.644239214E-2
1.208549100E1,-1.906002268E-2,-2.642583333E-2,-3.451903760E-2,4.746760041E-2
1.209554600E1,-2.021645576E-2,-6.057642326E-3,-4.725368857E-2,5.175240282E-2
1.210560100E1,-2.339514837E-2,3.210633025E-3,-7.120037556E-2,7.501422939E-2
1.211565600E1,-3.869555756E-2,-1.132247530E-2,-4.341499150E-2,5.924868023E-2
1.212571100E1,-6.227058090E-2,-2.748140194E-2,3.436642528E-2,7.624895989E-2
1.213576600E1,-7.082381487E-2,-4.738875926E-3,7.306446791E-2,1.018670024E-1
1.214582200E1,-3.256694466E-2,5.039715171E-3,6.289382100E-2,7.100448812E-2
1.215587700E1,2.359300353E-2,1.363263711E-2,5.154846847E-2,5.830714546E-2
1.216593200E1,2.495094627E-2,3.108087480E-2,9.064938426E-3,4.087473066E-2
1.217598700E1,-1.235151216E-2,4.249325104E-2,-1.149270236E-2,4.572000049E-2
1.218604200E1,-2.987532511E-2,5.085732758E-2,-4.194967926E-2,7.237940597E-2
1.219609700E1,-8.847568184E-3,3.473114535E-2,-4.821906388E-2,6.008003031E-2
1.220615200E1,-9.950937778E-3,5.729379639E-2,-6.233131886E-3,5.848463217E-2
1.221620700E1,4.990233108E-3,6.430073418E-2,-1.043143272E-3,6.450251925E-2
1.222626200E1,-1.550805844E-2,3.474269360E-3,5.737931192E-2,5.953953191E-2
1.223631700E1,-1.611865394E-2,-4.539257099E-1,2.986746061E-1,5.436128047E-1
1.224637200E1,2.281422749E-2,6.914332509E-5,2.638234466E-1,2.648080527E-1
1.225642700E1,5.367013067E-3,2.549310011E-1,1.731243610E-2,2.555745304E-1
1.226648200E1,-9.580955207E-3,5.754551902E-2,-1.262027943E-1,1.390339051E-1
1.227653700E1,1.755429156E-2,5.086478278E-2,-1.370335919E-1,1.472195115E-1
1.228659200E1,-2.535893574E-2,1.500579724E-1,-9.727018654E-2,1.806155029E-1
1.229664700E1,-3.384814270E-2,1.001962794E-1,-1.238487053E-1,1.628603481E-1
1.230670200E1,-6.747029051E-3,4.848832816E-2,-1.041470969E-1,1.150793559E-1
1.231675800E1,-9.949037433E-4,2.947157487E-2,-1.709491968E-2,3.408518502E-2
1.232681300E1,-5.142889291E-2,2.595871389E-2,6.255936027E-3,5.794758484E-2
1.233686800E1,-7.206093952E-2,4.477534622E-2,-3.966868043E-2,9.365476411E-2
1.234692300E1,-3.189334542E-2,4.778300777E-2,-1.208859211E-1,1.338424717E-1
1.235697800E1,-2.092002198E-2,4.447830766E-3,-1.500009620E-1,1.515180488E-1
1.236703300E1,-1.476538897E-2,-1.413272023E-2,-1.565703088E-1,1.578987400E-1
1.237708800E1,2.659079790E-2,-2.744178705E-2,-8.264337659E-2,9.104971117E-2
1.238714300E1,-2.286721788E-2,-7.420986436E-2,-1.473673761E-2,7.903913624E-2
1.239719800E1,-5.662926033E-2,-9.035373442E-2,6.900416136E-2,1.270127739E-1
1.240725300E1,-6.497411415E-2,-6.316966340E-2,1.327048981E-1,1.606942185E-1
1.241730800E1,-4.363038830E-2,-5.319555603E-2,1.567849016E-1,1.712158969E-1
1.242736300E1,1.253379911E-2,-4.464393005E-2,1.399952066E-1,1.474748605E-1
1.243741800E1,1.533943936E-2,-2.304446161E-2,1.217536479E-1,1.248611084E-1
1.244747300E1,-1.637549289E-2,1.297906458E-2,8.089622855E-2,8.355125779E-2
1.245752800E1,-1.367956102E-2,5.233740404E-2,1.395379543E-2,5.586629269E-2
1.246758400E1,-8.584882021E-3,8.022321403E-2,-4.714200675E-2,9.344427789E-2
1.247763900E1,1.851886287E-2,9.303058974E-2,-1.117280120E-1,1.465632545E-1
1.248769400E1,2.086513124E-2,1.002694427E-1,-1.540150756E-1,1.849593424E-1
1.249774900E1,1.247773893E-2,9.952779651E-2,-1.648020190E-1,1.929279184E-1
1.250780112E1,1.789123736E-2,7.293115139E-2,-1.291158772E-1,1.493651865E-1
1.251785612E1,2.221722677E-3,3.332905613E-2,-6.048242927E-2,6.909331577E-2
1.252791112E1,-2.434744053E-2,-1.592847325E-2,2.684281290E-2,3.958599152E-2
1.253796612E1,-1.007621437E-2,-4.440916434E-2,7.283057928E-2,8.589526909E-2
1.254802112E1,1.161359355E-2,-6.293709040E-2,5.573390543E-2,8.486590079E-2
1.255807612E1,2.716148615E-2,-6.168593243E-2,3.375129819E-2,7.537937860E-2
1.256813112E1,2.696918584E-2,-4.055029437E-2,-1.130734563E-2,4.999519401E-2
1.257818612E1,2.999292724E-2,-2.443975344E-2,-1.033203006E-2,4.004532529E-2
1.258824112E1,-5.219027348E-2,6.031549126E-3,-9.170188308E-3,5.333194713E-2
1.259829612E1,-4.363740496E-2,3.450734317E-3,-5.433875978E-2,6.977701265E-2
1.260835213E1,-4.897774011E-3,1.212361693E-2,-8.741470456E-2,8.838722109E-2
1.261840712E1,1.967558831E-2,2.261023276E-2,-1.400706357E-1,1.432415246E-1
1.262846212E1,-1.394984856E-2,2.808308043E-2,-1.611901939E-1,1.642118640E-1
1.263851713E1,-3.071937069E-2,5.071231663E-2,-1.580958474E-1,1.688482033E-1
1.264857212E1,-5.588768721E-3,3.991207078E-2,-1.387503344E-1,1.444848193E-1
1.265862712E1,-6.454083547E-3,2.586910531E-2,-5.209635258E-2,5.852260893E-2
1.266868213E1,-5.795102343E-3,-3.674828857E-3,-1.923266172E-2,2.042015806E-2
1.267873712E1,3.424144104E-2,2.955986783E-3,1.034255505E-2,3.589126060E-2
1.268879212E1,4.813208655E-2,1.385848582E-2,9.564933836E-2,1.079701408E-1
1.269884713E1,1.847851709E-2,1.589046635E-2,1.430375129E-1,1.450989063E-1
1.270890212E1,-2.465478480E-3,2.564413369E-2,1.243398714E-1,1.269807222E-1
1.271895712E1,9.120706245E-3,3.971428871E-2,7.762412667E-2,8.766936211E-2
1.272901212E1,2.421902105E-2,3.471930474E-2,1.069239396E-1,1.149987824E-1
1.273906712E1,-2.950395383E-2,-3.444302380E-3,1.381480712E-1,1.413054708E-1
1.274912212E1,-5.016384780E-2,7.929628417E-3,1.166496134E-1,1.272258737E-1
1.275917812E1,-3.521076322E-2,4.383928008E-2,4.248586893E-2,7.047502666E-2
1.276923313E1,-3.257856600E-2,2.742621884E-2,-7.945196629E-3,4.332074090E-2
1.277928812E1,-3.084442802E-2,4.848291948E-2,-7.903622925E-2,9.771743834E-2
1.278934312E1,-4.356943108E-2,8.245728895E-2,-1.260414112E-1,1.567926566E-1
1.279939813E1,-5.384788603E-2,9.301692188E-2,-1.611252898E-1,1.936829925E-1
1.280945312E1,-3.909682274E-2,6.356676243E-2,-1.861197978E-1,2.005239985E-1
1.281950812E1,-7.204171680E-2,6.400815412E-2,-1.551172757E-1,1.826155031E-1
1.282956313E1,-1.264568558E-1,5.722757667E-2,-9.064938426E-2,1.657819133E-1
1.283961812E1,-1.010533351E-1,8.466475904E-3,-5.923170984E-2,1.174387210E-1
1.284967312E1,-9.152215429E-2,-1.626870811E-2,2.400574386E-2,9.600651711E-2
1.285972813E1,-6.552952655E-2,-2.193984948E-2,1.237288374E-1,1.417190920E-1
1.286978312E1,-2.928022474E-2,-3.105207726E-2,1.383562320E-1,1.447895369E-1
1.287983812E1,2.190271966E-2,-2.973689228E-2,1.323359388E-1,1.373929132E-1
1.288989313E1,4.074836880E-2,-2.278981537E-2,7.810769141E-2,9.099789394E-2
1.289994812E1,3.089595661E-2,2.531120785E-2,4.204206526E-2,5.798924580E-2
1.291000412E1,2.721849650E-2,5.679809868E-2,2.433026433E-3,6.303007364E-2
1.292005912E1,5.173177868E-3,6.449968569E-2,-3.596037626E-2,7.402783182E-2
1.293011412E1,4.047442675E-3,7.034558572E-2,-4.628831327E-2,8.430593791E-2
1.294016912E1,-1.638923384E-2,5.689801298E-2,-2.973601520E-2,6.625874634E-2
1.295022412E1,-3.184020884E-2,5.386973999E-2,-4.013996601E-2,7.434355828E-2
1.296027912E1,-1.234091409E-2,3.586630918E-2,-8.299537897E-3,3.882747254E-2
1.297033412E1,3.996827714E-2,-5.484176651E-3,8.927821219E-2,9.797009004E-2
1.298038912E1,-5.214510374E-3,-5.174646981E-2,1.480555934E-1,1.569246538E-1
1.299044413E1,-6.783102717E-2,-4.603622518E-2,2.101577014E-1,2.255806767E-1
1.300049912E1,-6.688242607E-2,-4.589464948E-2,2.012868905E-1,2.170161055E-1
1.301055412E1,-2.086290199E-2,-3.572699927E-2,1.811268604E-1,1.857918693E-1
1.302060913E1,2.289440744E-2,-4.569555178E-2,1.648862189E-1,1.726259034E-1
1.303066412E1,3.350915037E-2,-5.797097705E-2,1.171729392E-1,1.349555298E-1
1.304071912E1,4.877294138E-2,-4.328489095E-2,6.331248164E-2,9.088922888E-2
1.305077513E1,8.906500809E-2,-1.486683816E-2,4.287178516E-2,9.995793368E-2
1.306083012E1,3.106675012E-1,-1.068867367E-1,1.813157254E-1,3.752525324E-1
1.307088512E1,-7.345502537E-2,-2.230603867E-1,-4.540538371E-2,2.391928631E-1
1.308094012E1,-3.814541497E-1,1.222092922E-1,-3.596382612E-1,5.383140889E-1
1.309099512E1,-3.020625925E-1,3.020474263E-1,-1.831260234E-1,4.647683272E-1
1.310105012E1,-2.308732901E-1,1.233510341E-1,-7.189151645E-3,2.618580486E-1
1.311110512E1,-8.300849866E-2,-2.913280182E-2,-4.982120097E-2,1.011003613E-1
1.312116012E1,-3.424860388E-3,-5.337915860E-2,-4.506975353E-2,6.994531382E-2
1.313121512E1,-3.172743067E-2,3.341924943E-2,2.374612749E-2,5.183970158E-2
1.314127012E1,-4.435357925E-2,8.611698814E-2,2.179023385E-2,9.928841790E-2
1.315132512E1,-3.750955950E-2,-3.853899837E-2,-5.989419937E-2,8.049556862E-2
1.316138012E1,4.304511856E-2,-8.512581199E-2,-2.207791686E-2,9.791179966E-2
1.317143512E1,7.465023279E-2,-3.045602672E-2,2.742344141E-3,8.067060971E-2
1.318149113E1,7.932281591E-2,-8.260580823E-3,-6.200212061E-2,1.010178661E-1
1.319154612E1,9.217112213E-2,-2.691210240E-2,-1.172197169E-1,1.515263642E-1
1.320160112E1,7.054278307E-2,-1.010033414E-2,-1.685723037E-1,1.830161811E-1
1.321165613E1,2.080991160E-2,4.177682094E-2,-1.958384550E-1,2.013232615E-1
1.322171112E1,-1.289734975E-2,6.301748961E-2,-1.797480869E-1,1.909107655E-1
1.323176612E1,-2.234692533E-2,7.151225142E-2,-1.422305971E-1,1.607573636E-1
1.324182113E1,-1.890445020E-2,2.447586000E-2,-7.366965473E-2,7.989783469E-2
1.325187612E1,-9.834468551E-3,-2.370680496E-2,-3.139370084E-3,2.585701100E-2
1.326193112E1,1.626878120E-3,-2.539314196E-2,6.563967347E-2,7.039904207E-2
1.327198612E1,1.831329670E-2,-1.522402994E-2,9.314322174E-2,9.613952194E-2
1.328204112E1,2.606290396E-2,-2.187136397E-2,9.971783102E-2,1.053625994E-1
1.329209612E1,3.806087885E-2,-4.031998716E-2,1.256402922E-1,1.373310412E-1
1.330215112E1,1.831556249E-2,-5.230034731E-2,1.448548275E-1,1.550925763E-1
1.331220612E1,-4.394365288E-3,-3.715320826E-2,1.235844111E-1,1.291231118E-1
1.332226212E1,1.874039926E-2,-1.689479873E-3,9.439803421E-2,9.625510776E-2
1.333231712E1,3.883358840E-2,-1.023628190E-3,2.767253280E-2,4.769553935E-2
1.334237213E1,1.192579832E-2,7.610955164E-3,-2.309123933E-2,2.708055830E-2
1.335242712E1,3.038249798E-3,3.966305248E-2,-2.332571268E-2,4.611374596E-2
1.336248212E1,5.253942534E-3,5.532160364E-2,-5.217587471E-2,7.622601684E-2
1.337253713E1,-4.031655192E-3,4.994282305E-2,-6.887669206E-2,8.517357881E-2
1.338259212E1,-7.319398373E-3,2.940959439E-2,-6.156884193E-2,6.862375778E-2
1.339264712E1,-4.528705068E-2,4.894265682E-3,-2.849348187E-2,5.372847760E-2
1.340270213E1,-5.547436215E-2,-2.384348363E-3,1.904145777E-2,5.869980483E-2
1.341275712E1,-2.298620872E-2,-2.712961882E-2,4.118720233E-2,5.441293638E-2
1.342281212E1,2.665519036E-2,-7.449111544E-2,2.231648326E-2,8.220371571E-2
1.343286713E1,3.567795575E-2,-1.203373061E-1,-2.216971815E-2,1.274577584E-1
1.344292212E1,2.253970072E-2,-1.167069161E-1,-7.224761188E-2,1.390980223E-1
1.345297812E1,-2.837726846E-2,-1.221789598E-1,-1.254771549E-1,1.774189504E-1
1.346303312E1,-6.420915216E-2,-1.291136844E-1,-1.328540021E-1,1.960697443E-1
1.347308812E1,-7.156655744E-2,-1.271116709E-1,-1.543577224E-1,2.123804499E-1
1.348314312E1,-7.530219734E-2,-1.401669686E-1,-1.639717144E-1,2.284817785E-1
1.349319812E1,-7.959178783E-2,-1.270512984E-1,-1.607797194E-1,2.198340357E-1
1.350325312E1,-5.854407728E-2,-9.155416779E-2,-1.716508627E-1,2.031590345E-1
1.351330788E1,-2.109675407E-3,-9.261309855E-2,-1.266746646E-1,1.569334490E-1
1.352336287E1,5.926496588E-2,-8.467725746E-2,-5.195484996E-2,1.156800784E-1
1.353341787E1,7.329952598E-2,-7.822361246E-2,-4.925869882E-2,1.179753087E-1
1.354347288E1,5.797631264E-2,-5.613268554E-2,-2.395604253E-2,8.417851975E-2
1.355352787E1,6.562125474E-2,-1.523937888E-2,4.640350342E-3,6.752718411E-2
1.356358287E1,7.027731948E-2,2.784941107E-2,-2.833560705E-3,7.564734229E-2
1.357363887E1,4.293391183E-2,7.917941295E-2,-9.735614061E-4,9.007579054E-2
1.358369387E1,3.317593217E-2,8.146406628E-2,2.907878816E-2,9.264239036E-2
1.359374887E1,4.514094338E-2,5.944418304E-2,7.606993675E-2,1.065736879E-1
1.360380387E1,3.430269063E-2,-1.341935992E-4,1.328224272E-1,1.371805006E-1
1.361385888E1,-7.446940765E-3,-1.176591352E-2,1.848842812E-1,1.854079045E-1
1.362391387E1,-4.164321207E-2,1.514151111E-2,2.072469574E-1,2.119309412E-1
1.363396887E1,-2.043199874E-2,1.989317782E-2,1.871225953E-1,1.892830441E-1
1.364402388E1,-1.078380056E-2,2.681547716E-2,1.294497532E-1,1.326370942E-1
1.365407887E1,-1.512294620E-2,6.614991613E-2,9.710178673E-2,1.184621116E-1
1.366413387E1,-1.173901632E-3,8.081889912E-2,9.100547969E-2,1.217171715E-1
1.367418888E1,1.576920971E-2,5.217565544E-2,6.110983551E-2,8.188637854E-2
1.368424387E1,-1.766407304E-2,2.712435633E-2,4.354012191E-2,5.425396206E-2
1.369429887E1,-5.054779060E-2,2.348387986E-2,6.340252876E-2,8.441831793E-2
1.370435487E1,-9.594878890E-2,2.509858847E-2,9.124930859E-2,1.347684887E-1
1.371440987E1,-9.603276953E-2,4.260807574E-2,9.748127103E-2,1.433190118E-1
1.372446487E1,-3.289548509E-2,3.449316368E-2,5.436975002E-2,7.230464022E-2
1.373451987E1,2.399222218E-2,-1.024541818E-2,1.585121691E-2,3.052632300E-2
1.374457487E1,2.740589976E-2,-1.739305459E-2,-5.604556203E-3,3.293953157E-2
1.375462987E1,2.614436299E-4,1.072357424E-2,-1.044780493E-2,1.497397826E-2
1.376468487E1,-3.383710608E-3,3.585804999E-2,-5.010362148E-2,6.170593271E-2
1.377473987E1,8.741221949E-3,4.608877704E-2,-7.199618161E-2,8.593040496E-2
1.378479487E1,-5.087004527E-3,3.349475160E-2,-1.043880022E-1,1.097480341E-1
1.379484987E1,-2.601513952E-2,2.648839854E-2,-9.290407062E-2,1.000479339E-1
1.380490487E1,-1.296912432E-2,1.759683006E-2,-6.408840716E-2,6.771388739E-2
1.381495987E1,-2.021565177E-2,5.311464518E-4,3.339344859E-3,2.049648548E-2
1.382501587E1,-7.154302239E-2,-2.314474136E-2,8.386252105E-2,1.126366084E-1
1.383507088E1,-7.136110090E-2,-5.279933408E-2,1.476784480E-1,1.723052535E-1
1.384512587E1,-3.426402591E-2,-6.690566875E-2,1.725852478E-1,1.882446805E-1
1.385518087E1,-2.117503367E-2,-7.258755438E-2,1.507377112E-1,1.686392382E-1
1.386523588E1,-3.807991885E-2,-6.326606937E-2,1.589571422E-1,1.752713577E-1
1.387529087E1,-3.615253039E-2,-3.293941230E-2,1.278692508E-1,1.369034537E-1
1.388534587E1,-4.067959093E-2,2.720914096E-2,7.095479250E-2,8.619599207E-2
1.389540088E1,-5.706509717E-2,3.609310806E-2,3.562240720E-2,7.634195215E-2
1.390545587E1,-6.066413149E-2,4.665098682E-2,-1.562551439E-2,7.810638976E-2
1.391551087E1,-5.666397817E-2,5.551302686E-2,-9.813206613E-2,1.261840124E-1
1.392556587E1,-4.611984037E-2,8.062499084E-2,-9.069557726E-2,1.298195538E-1
1.393562187E1,-3.795734659E-2,6.601513781E-2,-1.057773006E-1,1.303364719E-1
1.394567687E1,-5.078284867E-2,3.416798539E-2,-1.126583040E-1,1.282117093E-1
1.395573187E1,-4.752996951E-2,2.937955432E-2,-1.051762068E-1,1.190978199E-1
1.396578688E1,-2.598283365E-2,3.849185519E-2,-5.326638043E-2,7.066850674E-2
1.397584187E1,-4.943981633E-2,1.338011049E-2,-1.412687302E-3,5.123786179E-2
1.398589687E1,-7.788162343E-2,-1.034423612E-2,5.029774904E-3,7.872641948E-2
1.399595188E1,-9.632995427E-3,-6.330919258E-2,1.995011508E-2,6.707350862E-2
1.400600687E1,7.303749762E-2,-5.709535651E-2,7.275222659E-2,1.178441440E-1
1.401606187E1,9.690605119E-2,-7.706717938E-2,5.031704485E-2,1.336485612E-1
1.402611688E1,5.667647660E-2,-9.030308291E-2,2.103594303E-2,1.086709744E-1
1.403617187E1,2.728720129E-2,-5.822014153E-2,-5.870604515E-3,6.456500779E-2
1.404622687E1,6.413730450E-2,-1.534455568E-2,-6.039413631E-2,8.942315650E-2
1.405628287E1,9.664497301E-3,1.060991898E-2,-7.930227757E-2,8.059047162E-2
1.406633787E1,-5.274502806E-2,2.379524410E-3,-8.732290328E-2,1.020440569E-1
1.407639287E1,-5.439891301E-2,2.374905109E-2,-1.155094063E-1,1.298679411E-1
1.408644787E1,2.194635451E-2,4.920008048E-2,-1.643453515E-1,1.729499492E-1
1.409650287E1,4.338049293E-2,2.758233950E-2,-1.772267675E-1,1.845317852E-1
1.410655787E1,2.718648300E-2,2.962126359E-2,-1.448676914E-1,1.503435137E-1
1.411661287E1,1.797097877E-2,4.260851428E-2,-1.269032907E-1,1.350662310E-1
1.412666787E1,9.660404250E-3,3.606197163E-2,-1.011422127E-1,1.078125058E-1
1.413672287E1,2.182816766E-2,1.728056878E-2,-7.436781228E-2,7.940817630E-2
1.414677787E1,-7.771972865E-3,-1.625058174E-2,-3.795369208E-2,4.201151880E-2
1.415683287E1,-4.741974950E-2,-3.663265988E-2,5.381367981E-2,8.053878909E-2
1.416688887E1,-8.270594180E-2,-3.239562124E-2,1.421183306E-1,1.675928667E-1
1.417694387E1,-1.028871681E-1,-4.653491959E-2,1.929060763E-1,2.235263349E-1
1.418699888E1,-8.635906287E-2,-5.077363931E-2,2.112376821E-1,2.337888118E-1
1.419705387E1,-5.428606175E-2,-3.915354073E-2,1.933071953E-1,2.045669768E-1
1.420710887E1,-6.489678472E-3,-6.545373201E-3,1.234955335E-1,1.238390271E-1
1.421716388E1,1.101286523E-2,3.115849659E-2,3.929153502E-2,5.134159945E-2
1.422721887E1,5.688683018E-3,6.515143096E-2,-3.117092192E-2,7.244788779E-2
1.423727387E1,6.687752903E-3,9.357854694E-2,-7.494025469E-2,1.200737784E-1
1.424732888E1,1.398668602E-2,1.008820117E-1,-1.378165340E-1,1.713657046E-1
1.425738387E1,-8.137058392E-3,9.561674014E-2,-1.704363960E-1,1.955948307E-1
1.426743887E1,-2.184848674E-2,5.622346357E-2,-1.476310855E-1,1.594784363E-1
1.427749387E1,-2.260182738E-2,4.508963406E-2,-1.165221441E-1,1.269697907E-1
1.428754987E1,-1.591158941E-2,2.272659235E-2,-1.008568686E-1,1.046029857E-1
1.429760487E1,-2.079905771E-2,4.689320773E-3,-9.083649516E-2,9.330519484E-2
1.430765987E1,1.865598008E-2,-1.708220199E-2,-9.730760872E-2,1.005416229E-1
1.431771488E1,4.546729110E-2,-3.587010987E-2,-1.150872374E-1,1.288371513E-1
1.432776987E1,1.242401764E-2,-5.263707384E-2,-1.032442868E-1,1.165521364E-1
1.433782487E1,-3.643297747E-2,-3.723170713E-2,-6.691319704E-2,8.479939741E-2
1.434787988E1,-7.943091631E-2,-3.015504129E-2,-1.010866642E-2,8.556156916E-2
1.435793487E1,-8.092751116E-2,-6.310877927E-2,4.191868901E-2,1.108564683E-1
1.436798987E1,-5.127840020E-2,-6.964508928E-2,1.230605006E-1,1.504120993E-1
1.437804488E1,-1.771538235E-2,-8.531628504E-2,1.743902832E-1,1.949478755E-1
1.438809987E1,-1.924099401E-3,-6.848785222E-2,1.612094897E-1,1.751650297E-1
1.439815587E1,1.246838339E-2,-2.594943143E-2,1.516329199E-1,1.543417506E-1
1.440821087E1,2.459653191E-2,-2.645865083E-5,1.371902972E-1,1.393777878E-1
1.441826587E1,2.092426121E-2,3.032249093E-2,1.001476014E-1,1.067090447E-1
1.442832087E1,-6.587765515E-3,9.430243224E-2,9.019797921E-2,1.306599512E-1
1.443837587E1,-1.293352939E-2,1.267090170E-1,4.609710932E-2,1.354525550E-1
1.444843087E1,3.872757107E-3,1.197710033E-1,-2.393850088E-2,1.222012410E-1
1.445848587E1,2.737169355E-2,1.050954422E-1,-5.983338833E-2,1.239931286E-1
1.446854087E1,2.859968193E-2,1.005399495E-1,-7.715576470E-2,1.299201112E-1
1.447859587E1,4.424558848E-2,7.708077416E-2,-7.246688247E-2,1.146759212E-1
1.448865087E1,6.657318145E-2,5.552355185E-2,-6.030642807E-2,1.056016977E-1
1.449870587E1,3.635645203E-2,3.871529192E-2,-6.995667279E-2,8.783280424E-2
1.450876150E1,8.422548696E-3,1.789679222E-2,-1.356086254E-2,2.398189924E-2
1.451881650E1,-7.153995261E-3,-3.595642939E-2,6.011873245E-2,7.041524306E-2
1.452887150E1,-4.253893241E-2,-9.464624852E-2,1.296503127E-1,1.660622675E-1
1.453892650E1,-2.463227302E-2,-1.095760173E-1,1.878996903E-1,2.189062495E-1
1.454898150E1,3.756397516E-3,-1.033421545E-1,1.513130772E-1,1.832739991E-1
1.455903650E1,-1.719614960E-2,-7.997814260E-2,1.074379098E-1,1.350374590E-1
1.456909150E1,-2.354037859E-2,-6.104441978E-2,1.064082152E-1,1.249130852E-1
1.457914650E1,-4.527411371E-2,-5.521357633E-2,1.109637809E-1,1.319516770E-1
1.458920150E1,-7.172574788E-2,-3.358976886E-2,8.803158581E-2,1.184162809E-1
1.459925650E1,-7.770562224E-2,2.505422272E-2,3.756836057E-3,8.173121571E-2
1.460931150E1,-3.512575932E-2,4.498548053E-2,-8.297257483E-2,1.007073016E-1
1.461936750E1,-1.442413084E-2,4.347010151E-2,-1.376557356E-1,1.450751765E-1
1.462942250E1,1.211331122E-2,5.504890412E-2,-1.500857466E-1,1.603210700E-1
1.463947750E1,3.708311476E-2,7.501809575E-2,-1.333001447E-1,1.573905990E-1
1.464953250E1,3.084903270E-2,5.523659974E-2,-1.037681973E-1,1.215342896E-1
1.465958750E1,3.291902013E-2,1.274926901E-2,-7.332349956E-2,8.137899812E-2
1.466964250E1,6.056472883E-2,-1.079388700E-2,-4.227478445E-2,7.464416772E-2
1.467969750E1,3.313536711E-2,-4.001293525E-2,-2.391745090E-2,5.719293662E-2
1.468975250E1,4.261889309E-4,-6.429174408E-2,4.461600959E-2,7.825725721E-2
1.469980750E1,-2.427778557E-2,-7.572217360E-2,6.307683885E-2,1.014985027E-1
1.470986250E1,-3.281567059E-2,-8.138344780E-2,7.992442131E-2,1.186930787E-1
1.471991750E1,-3.346617334E-2,-1.115061101E-1,8.611136019E-2,1.448059519E-1
1.472997350E1,-2.156051137E-2,-1.000065373E-1,7.952973425E-2,1.295806381E-1
1.474002850E1,-2.301405609E-2,-7.340155989E-2,4.226601362E-2,8.777158811E-2
1.475008350E1,-1.479506359E-2,-4.857720584E-2,4.819275141E-3,5.100847230E-2
1.476013850E1,-1.819061480E-2,-5.205279082E-2,3.153988123E-3,5.522987543E-2
1.477019350E1,-4.571682103E-2,-3.326846436E-2,2.401042163E-2,6.142734564E-2
1.478024850E1,-4.960573107E-2,-2.194591597E-2,7.476717710E-2,9.237143798E-2
1.479030350E1,-2.264860511E-2,-5.952465534E-2,5.053806961E-2,8.130338484E-2
1.480035850E1,-2.141301535E-2,1.402966306E-2,2.625048995E-2,3.666656371E-2
1.481041350E1,-4.685563937E-2,7.535759971E-2,-3.070548356E-2,9.389912403E-2
1.482046850E1,2.067480437E-2,7.239203811E-2,-2.694747806E-2,7.996387491E-2
1.483052450E1,5.802082457E-2,6.731314659E-3,2.269187450E-2,6.266297032E-2
1.484057950E1,7.287333705E-2,-5.550791055E-2,1.359243751E-2,9.260888588E-2
1.485063450E1,3.659699187E-3,-3.796904102E-2,1.618977070E-2,4.143851046E-2
1.486068950E1,-1.330968077E-1,-1.853070349E-2,1.315465647E-1,1.880495836E-1
1.487074450E1,-5.147121213E-2,-4.258512542E-2,2.559127486E-1,2.644883995E-1
1.488079950E1,7.457443826E-2,-8.073089853E-2,-5.635371029E-2,1.235093741E-1
1.489085450E1,2.926275618E-2,-1.060021260E-1,-1.336544859E-1,1.730788295E-1
1.490090950E1,-2.692650117E-2,-4.579583153E-2,1.058117992E-1,1.183994573E-1
1.491096450E1,-3.362872593E-2,-1.965205327E-2,2.066973191E-1,2.103351520E-1
1.492101950E1,8.132161349E-3,-4.855308607E-2,9.508274317E-2,1.070712952E-1
1.493107450E1,2.512453549E-2,-4.308886304E-2,-3.212109447E-2,5.932669813E-2
1.494113050E1,-9.883183166E-3,2.775234729E-3,-2.937524199E-2,3.111726337E-2
1.495118550E1,-1.954015218E-2,2.241515502E-2,-1.981679857E-2,3.573460826E-2
1.496124050E1,6.465558708E-4,1.907493308E-2,-8.949046612E-2,9.150308537E-2
1.497129550E1,-1.913954481E-2,3.014005780E-2,-1.302894133E-1,1.350928440E-1
1.498135050E1,-2.151146784E-2,2.532341391E-2,-1.298146194E-1,1.339994551E-1
1.499140550E1,7.822843641E-3,9.139782786E-3,-1.418733323E-1,1.423824951E-1
1.500146050E1,2.637437783E-2,-2.002963722E-2,-1.895170301E-1,1.923889261E-1
1.501151550E1,2.107343830E-2,-2.348724201E-2,-1.836136812E-1,1.863054596E-1
1.502157050E1,5.959240995E-2,-7.642734781E-2,-7.803050816E-2,1.244232897E-1
1.503162550E1,6.814162396E-2,-9.342432663E-2,-2.750062466E-2,1.188598758E-1
1.504168050E1,4.113940135E-2,-9.174237505E-2,-2.232174575E-2,1.029921068E-1
1.505173650E1,7.633028403E-3,-8.811856315E-2,-4.417571425E-3,8.855878969E-2
1.506179150E1,2.804178447E-2,-9.398536697E-2,-2.987517893E-2,1.025286165E-1
1.507184650E1,2.982818194E-2,-8.728124186E-2,-3.572064042E-3,9.230652881E-2
1.508190150E1,1.073987335E-2,-2.396569043E-2,4.254083276E-2,4.999421616E-2
1.509195650E1,-2.185177580E-3,-2.105436176E-3,4.785946012E-2,4.795556052E-2
1.510201150E1,-7.035735324E-3,-2.875075936E-3,7.864271164E-2,7.900913699E-2
1.511206650E1,3.079911210E-2,-1.866270438E-2,8.364968240E-2,9.107223071E-2
1.512212150E1,2.190337747E-2,-2.077968881E-2,7.772879183E-2,8.338656062E-2
1.513217650E1,3.372074649E-2,-1.498612136E-2,9.832853258E-2,1.050246299E-1
1.514223150E1,2.397475362E-2,-2.960445285E-3,1.322610945E-1,1.344490616E-1
1.515228750E1,3.289161131E-2,4.332523674E-2,1.779950917E-1,1.861214305E-1
1.516234250E1,8.290869400E-2,9.968040884E-4,1.945678550E-1,2.114982160E-1
1.517239750E1,1.131233038E-1,-5.269963905E-2,2.010962713E-1,2.366724406E-1
1.518245250E1,1.328835306E-1,-1.238370109E-1,1.696148622E-1,2.485213058E-1
1.519250750E1,1.571180467E-1,-1.527656718E-1,2.472179389E-1,3.303636487E-1
1.520256250E1,1.871721505E-1,-2.284324430E-1,2.967567194E-1,4.186637617E-1
1.521261750E1,2.509820840E-1,-2.614335434E-1,4.613634413E-1,5.866819659E-1
1.522267250E1,2.527396108E-1,-2.665043950E-1,5.397360116E-1,6.528528668E-1
1.523272750E1,1.472163717E-1,-2.801047263E-1,4.623668236E-1,5.602806416E-1
1.524278250E1,6.051415041E-2,-2.221887861E-1,3.617397505E-1,4.288186868E-1
1.525283750E1,3.237427890E-2,-1.324695477E-1,2.257966644E-1,2.637809861E-1
1.526289350E1,2.077004090E-2,-3.946709767E-2,6.391357541E-2,7.793581667E-2
1.527294850E1,-5.190134794E-3,4.061125159E-2,-8.112836301E-2,9.087366252E-2
1.528300350E1,-3.956153020E-2,1.017066152E-1,-2.032503855E-1,2.306947539E-1
1.529305850E1,-4.714156821E-2,1.112369920E-1,-2.962889421E-1,3.199736443E-1
1.530311350E1,-2.375986844E-2,1.333805439E-1,-2.671850109E-1,2.995709113E-1
1.531316850E1,-8.488987684E-3,1.350570868E-1,-2.534861541E-1,2.873459760E-1
1.532322350E1,3.660620123E-2,1.006997247E-1,-2.314994538E-1,2.550930137E-1
1.533327850E1,4.607839823E-2,3.660824776E-2,-2.357854629E-1,2.430188616E-1
1.534333350E1,8.862317786E-2,1.736813083E-2,-1.766046238E-1,1.983555211E-1
1.535338850E1,1.027080971E-1,3.528677702E-2,-9.953422844E-2,1.473131782E-1
1.536344450E1,7.045573264E-2,4.439966261E-2,-6.720965087E-2,1.070162486E-1
1.537349950E1,5.704485118E-2,6.120631456E-2,-7.185701787E-2,1.102894329E-1
1.538355450E1,2.394040123E-2,5.131779581E-2,-8.651423335E-2,1.033990887E-1
1.539360950E1,-2.350112915E-2,1.222155780E-2,-7.435845673E-2,7.893573103E-2
1.540366450E1,-3.842658564E-2,4.896458387E-2,-1.133371657E-1,1.293036971E-1
1.541371950E1,6.489970833E-3,1.213308942E-1,-1.696856135E-1,2.087019718E-1
1.542377450E1,1.181312978E-2,1.122127461E-1,-1.805012083E-1,2.128660063E-1
1.543382950E1,4.261012226E-3,4.256860703E-2,-1.560060525E-1,1.617656668E-1
1.544388450E1,-1.941918790E-2,8.513253629E-3,-1.346578681E-1,1.363169901E-1
1.545393950E1,-2.628469616E-2,5.193204582E-3,-1.273552805E-1,1.301430832E-1
1.546399550E1,-5.755487457E-2,2.451503634E-2,-8.054130256E-2,1.019826064E-1
1.547405050E1,-4.680637658E-2,2.430102825E-2,-6.893574893E-2,8.679581985E-2
1.548410550E1,-1.301604822E-2,-5.285882950E-3,-9.512367368E-2,9.615545416E-2
1.549416050E1,2.788727179E-2,-7.271889746E-3,-9.778883457E-2,1.019472240E-1
1.550421550E1,-8.466534376E-2,6.199247271E-2,-8.316319406E-2,1.338932558E-1
1.551427462E1,-1.385259475E-1,6.143552542E-2,-4.937330425E-2,1.593784336E-1
1.552432962E1,-1.603360619E-1,8.987521291E-2,-4.634853959E-2,1.895610555E-1
1.553438462E1,-1.708239202E-1,7.233561248E-2,-1.855029166E-2,1.864332746E-1
1.554443962E1,-1.482307175E-1,4.254404873E-2,1.850643754E-3,1.542263485E-1
1.555449462E1,-1.050883524E-1,3.632290363E-2,-1.984077215E-2,1.129449927E-1
1.556454962E1,-4.556705922E-2,5.781609893E-2,-8.916886926E-2,1.156293450E-1
1.557460562E1,-4.232243925E-2,8.990152538E-2,-1.735517925E-1,1.999842439E-1
1.558466062E1,-3.147453859E-2,9.326630563E-2,-1.836218673E-1,2.083416437E-1
1.559471563E1,-5.931810245E-2,7.255546778E-2,-1.987684947E-1,2.197540618E-1
1.560477062E1,-7.148045719E-2,9.997189254E-2,-1.881844497E-1,2.247603661E-1
1.561482562E1,-6.211292535E-2,1.343380255E-1,-1.995145994E-1,2.484165775E-1
1.562488063E1,-2.742475703E-2,1.265635675E-1,-2.236144835E-1,2.584064456E-1
1.563493562E1,-1.282937586E-2,7.845238477E-2,-2.190524858E-1,2.330308158E-1
1.564499062E1,-2.293277979E-2,5.587087646E-2,-1.855800998E-1,1.951600386E-1
1.565504563E1,-6.102519706E-2,6.586142913E-2,-1.073133641E-1,1.399212659E-1
1.566510062E1,-9.961740509E-2,5.010786071E-2,-3.648896456E-2,1.173280428E-1
1.567515662E1,-8.351095721E-2,3.629805297E-2,-1.436368525E-2,9.218429409E-2
1.568521162E1,-6.669114903E-2,3.642771497E-2,-2.834730148E-3,7.604422050E-2
1.569526662E1,-6.244840935E-2,5.211345568E-2,-1.030747175E-2,8.198695059E-2
1.570532162E1,-4.892029122E-2,4.985993877E-2,-2.591369033E-2,7.450320619E-2
1.571537662E1,-3.111595809E-2,3.344431937E-2,-4.922303081E-2,6.715379444E-2
1.572543163E1,-1.944564655E-2,2.562863857E-2,-8.118215740E-2,8.732412590E-2
1.573548662E1,-4.111981317E-2,5.696459815E-2,-7.854564786E-2,1.053813232E-1
1.574554162E1,-6.957324162E-2,9.619064435E-2,-8.994537950E-2,1.489404153E-1
1.575559663E1,-5.627272636E-2,1.114955851E-1,-1.285831958E-1,1.792526805E-1
1.576565162E1,-5.639142483E-2,8.850871861E-2,-1.376428717E-1,1.730876836E-1
1.577570662E1,-6.738068193E-2,8.114605084E-2,-1.137803847E-1,1.551477161E-1
1.578576263E1,-8.406278819E-2,8.533251107E-2,-5.346635520E-2,1.311748487E-1
1.579581762E1,-8.850374848E-2,3.707383230E-2,2.059857130E-2,9.814114161E-2
1.580587262E1,-7.334586516E-2,2.754579440E-2,5.619291186E-2,9.641592228E-2
1.581592762E1,-6.239432260E-2,3.118583232E-2,6.624193668E-2,9.619564339E-2
1.582598262E1,-4.121673077E-2,2.639067695E-2,2.818708777E-2,5.647830240E-2
1.583603762E1,1.860101625E-2,5.619320422E-3,3.448103070E-3,1.973484184E-2
1.584609262E1,2.354469091E-2,1.920167148E-2,1.524193704E-2,3.399078261E-2
1.585614762E1,3.376123846E-2,3.669127822E-2,1.514019549E-2,5.210850832E-2
1.586620262E1,1.593790188E-2,6.390158862E-2,5.784065723E-3,6.611267020E-2
1.587625762E1,-3.707646355E-2,3.417872965E-2,3.648721039E-2,6.224280065E-2
1.588631363E1,-1.100549774E-1,5.222382188E-2,4.721919000E-2,1.306486798E-1
1.589636862E1,-1.798964600E-1,1.198044786E-1,1.124232459E-1,2.436284787E-1
1.590642362E1,-2.033698149E-1,1.569878000E-1,1.241375577E-1,2.853324100E-1
1.591647863E1,-1.161505535E-1,1.190721148E-1,7.012975037E-2,1.805195322E-1
1.592653362E1,-1.331288213E-1,7.947140828E-2,9.272806942E-2,1.806584696E-1
