"Time (s)","Linear Acceleration x (m/s^2)","Linear Acceleration y (m/s^2)","Linear Acceleration z (m/s^2)","Absolute acceleration (m/s^2)"
5.205001400E-2,0.000000000E0,0.000000000E0,0.000000000E0,0.000000000E0
5.679860800E-2,-4.798710346E-3,-7.200745866E-3,5.985260010E-3,1.052148751E-2
6.154725400E-2,6.324723363E-3,1.540577039E-3,2.395629883E-3,6.936464933E-3
6.629590000E-2,-9.658530354E-3,1.728864200E-2,-1.792907715E-3,1.988463902E-2
7.104454500E-2,-1.348958910E-2,-1.520078629E-3,2.395629883E-3,1.378472689E-2
7.579313900E-2,6.876140833E-4,-3.268539906E-3,-1.992225647E-3,3.889103916E-3
8.054178500E-2,-1.794694364E-2,-1.516965218E-2,-1.607036591E-2,2.846871605E-2
8.529043100E-2,-2.622143924E-2,1.811723039E-2,-7.776260376E-3,3.280652585E-2
9.003907700E-2,-1.268619299E-2,1.396896131E-2,-6.912231445E-3,2.009602738E-2
9.478767000E-2,1.517519355E-3,1.908116788E-2,-1.484012604E-2,2.422030498E-2
9.953631600E-2,1.386761665E-3,-2.249283716E-3,-6.961822510E-3,7.446432556E-3
1.042849620E-1,1.278430223E-3,-2.069627866E-3,-1.954936981E-2,1.970014222E-2
1.090336080E-1,-5.495682359E-3,-8.547663689E-3,1.289367676E-2,1.641682002E-2
1.137822020E-1,1.041203737E-2,-2.347823046E-2,2.086734772E-2,3.309205386E-2
1.185308470E-1,9.698152542E-3,-1.072033122E-2,3.288173676E-2,3.591919092E-2
1.232794930E-1,3.151698411E-2,-3.699146956E-2,8.381843567E-3,4.931474839E-2
1.280281390E-1,2.739000320E-2,-1.682405546E-2,-3.376960754E-3,3.232127754E-2
1.327767330E-1,7.732450962E-3,-4.755187035E-2,1.263809204E-2,4.980655119E-2
1.375253790E-1,2.769425511E-3,-1.106312126E-2,-6.171226501E-3,1.296712791E-2
1.422740250E-1,4.857972264E-3,-1.447433606E-3,-1.041126251E-2,1.157969540E-2
1.470226700E-1,-2.233669162E-3,1.454702020E-2,-9.915351868E-3,1.774596510E-2
1.517712640E-1,-4.464998841E-3,1.156530716E-2,-9.463310242E-3,1.559637089E-2
1.565199100E-1,-1.973509789E-3,3.624572605E-2,-2.279186249E-2,4.286159579E-2
1.612685560E-1,-6.444871426E-3,1.634538732E-2,-8.077621460E-3,1.933794257E-2
1.660172020E-1,5.284368992E-3,-7.299065590E-3,-2.154445648E-2,2.335304090E-2
1.707657950E-1,-1.801472902E-2,1.136280410E-2,-1.841259003E-2,2.815434692E-2
1.755144410E-1,-5.840569735E-3,1.785004139E-2,3.017425537E-3,1.902212105E-2
1.802630870E-1,3.609940410E-3,7.942603901E-3,6.017684937E-4,8.745213080E-3
1.850117330E-1,5.776718259E-3,6.984937936E-4,-1.097679138E-2,1.242369979E-2
1.897603270E-1,-8.321925998E-3,1.683964022E-2,1.021766663E-2,2.138290547E-2
1.945089720E-1,-1.039065421E-2,-4.646848887E-3,6.217956543E-4,1.139936530E-2
1.992576180E-1,-1.936343312E-2,1.012180001E-4,-4.035949707E-3,1.977983007E-2
2.040062640E-1,-2.526491880E-4,-4.552317783E-3,-6.235122681E-3,7.724259424E-3
2.087548580E-1,-2.812196314E-2,-1.836745627E-2,3.243446350E-3,3.374504712E-2
2.135035040E-1,-6.379723549E-3,-1.558033191E-2,-8.478164673E-3,1.885011647E-2
2.182521500E-1,1.007023454E-2,-8.172584698E-3,-8.242607117E-3,1.536689091E-2
2.230007950E-1,-8.885532618E-3,-1.261832844E-2,-5.689620972E-3,1.644830354E-2
2.277493890E-1,1.230770350E-2,1.795404218E-2,1.077938080E-2,2.429037353E-2
2.324980350E-1,2.596791089E-2,3.461493179E-3,-1.159667969E-3,2.622325610E-2
2.372466810E-1,2.062974870E-2,1.731640100E-2,-1.130104065E-3,2.695777087E-2
2.419953270E-1,6.091713905E-3,-1.798558980E-3,1.291084290E-2,1.438866418E-2
2.467439200E-1,-1.043349504E-2,7.612906396E-3,3.255844116E-3,1.331971034E-2
2.514925660E-1,-7.901102304E-3,2.751151100E-3,-1.318836212E-2,1.561823119E-2
2.562412120E-1,-1.242128015E-2,-9.103052318E-3,1.050949097E-2,1.864411871E-2
2.609898580E-1,-1.918849349E-2,-1.942289993E-3,-3.767967224E-3,1.965116663E-2
2.657384520E-1,-2.347601950E-2,-2.298642322E-2,-3.685951233E-3,3.306184176E-2
2.704870970E-1,2.777799964E-3,-6.132198498E-3,-1.532363892E-2,1.673720230E-2
2.752357430E-1,1.447702944E-2,2.440523915E-2,-9.384155273E-4,2.839156042E-2
2.799843890E-1,-2.283975482E-3,1.217353530E-2,1.426696777E-3,1.246783740E-2
2.847329830E-1,1.651076972E-2,1.896127313E-2,-5.640983582E-3,2.576734545E-2
2.894816290E-1,-1.434665918E-2,4.499103874E-3,-1.491832733E-2,2.118077090E-2
2.942302750E-1,2.373218536E-3,1.376910880E-2,-1.697921753E-2,2.198895976E-2
2.989789200E-1,-9.465128183E-3,-7.695004344E-3,-4.914283752E-3,1.315111889E-2
3.037275660E-1,9.487494826E-3,-7.559508085E-3,-4.823684692E-3,1.305475601E-2
3.084761600E-1,9.294241667E-3,-1.445249747E-2,2.316474915E-3,1.733850246E-2
3.132248060E-1,4.405021667E-3,-2.595951222E-2,6.978034973E-3,2.723955695E-2
3.179734520E-1,-5.157977343E-3,-2.313114330E-2,-1.196098328E-2,2.654655612E-2
3.227220970E-1,-3.840476274E-4,-1.568178274E-2,7.068634033E-3,1.720556275E-2
3.274706910E-1,-1.216585934E-2,-8.391212672E-3,4.594802856E-3,1.547684712E-2
3.322193370E-1,2.100333571E-2,-1.064180396E-2,1.393413544E-2,2.735960952E-2
3.369679830E-1,1.827880740E-3,-1.518497244E-2,8.996963501E-3,1.774457348E-2
3.417166290E-1,8.872464299E-3,-1.023655571E-2,-2.925872803E-3,1.385887539E-2
3.464652220E-1,-1.008109748E-2,-2.191918530E-2,1.125717163E-2,2.662335673E-2
3.512138680E-1,6.552621722E-3,-3.336853534E-2,-3.058433533E-3,3.414308155E-2
3.559625140E-1,6.459504366E-3,-2.218639478E-3,-6.532669067E-4,6.861072470E-3
3.607111600E-1,-5.476504564E-3,-1.165308151E-2,1.714706421E-3,1.298948148E-2
3.654597540E-1,6.376311183E-3,2.200584859E-4,1.819801331E-2,1.928402080E-2
3.702084000E-1,6.233513355E-3,9.672380984E-3,1.557254791E-2,1.936274493E-2
3.749570450E-1,1.558840275E-2,2.474905923E-3,1.534652710E-2,2.201452597E-2
3.797056910E-1,-8.254051208E-3,9.454954416E-3,-1.390457153E-3,1.262770349E-2
3.844542850E-1,1.777727902E-2,-9.625999257E-3,-8.451461792E-3,2.191161148E-2
3.892029310E-1,-1.320976019E-2,-7.167812437E-3,8.193016052E-3,1.711726647E-2
3.939515770E-1,-1.541091502E-2,1.656432636E-2,-8.448600769E-3,2.415061209E-2
3.987002220E-1,-1.052829623E-2,-1.996830106E-4,-1.305675507E-2,1.677390079E-2
4.034488680E-1,3.735914826E-3,4.462989047E-3,-8.156776428E-3,1.002039583E-2
4.081974620E-1,6.056919694E-3,2.006199211E-3,-1.041126251E-2,1.221087624E-2
4.129461080E-1,-1.772940159E-2,1.139578409E-2,-2.445316315E-2,3.228239092E-2
4.176947540E-1,-1.043269038E-2,8.907219395E-3,-9.959220886E-3,1.695186322E-2
4.224434000E-1,8.560448885E-3,-7.788024843E-3,-1.219654083E-2,1.681339419E-2
4.271919930E-1,-8.173480630E-3,-2.998277545E-3,-4.950523376E-3,1.001514531E-2
4.319406390E-1,1.364767551E-3,4.096413031E-3,4.569053650E-3,6.286449033E-3
4.366892850E-1,8.450418711E-3,1.347056590E-2,1.633739471E-2,2.279860057E-2
4.414379310E-1,-8.172079921E-3,-8.622966707E-4,1.948356628E-3,8.445267274E-3
4.461865250E-1,3.703907132E-3,-3.282064572E-3,6.657600403E-3,8.295451707E-3
4.509351700E-1,-1.092240214E-3,1.508466899E-3,2.077388763E-2,2.085720184E-2
4.556838160E-1,-1.128643751E-3,-9.411573410E-4,6.337165833E-3,6.505327405E-3
4.604324620E-1,-5.898088217E-3,1.799434051E-2,1.531600952E-3,1.899814561E-2
4.651810560E-1,-8.190229535E-3,-1.062082313E-2,-5.587577820E-3,1.452937609E-2
4.699297020E-1,-1.048623025E-2,-8.227255195E-3,-5.523681641E-3,1.442774452E-2
4.746783470E-1,1.328447461E-2,1.076768525E-2,-7.257461548E-4,1.711569510E-2
4.794269930E-1,-8.163914084E-3,-1.254543662E-3,1.111984253E-2,1.385186886E-2
4.841756390E-1,-8.095905185E-3,-1.314670499E-2,-7.944107056E-3,1.736342045E-2
4.889242330E-1,-9.530633688E-4,-3.511391580E-3,-7.857322693E-3,8.658852148E-3
4.936728790E-1,-9.922832251E-4,-2.014746331E-2,8.808135986E-3,2.201109182E-2
4.984215250E-1,3.706738353E-3,3.688154742E-3,-7.591247559E-4,5.283811599E-3
5.031701700E-1,-1.770368218E-2,3.556692973E-3,-5.489349365E-3,1.887335117E-2
5.079187640E-1,3.725767136E-3,-3.624713048E-3,-5.432128906E-3,7.518504498E-3
5.126674100E-1,8.377701044E-3,-8.391609415E-3,-5.375862122E-3,1.301940386E-2
5.174160560E-1,-1.071561873E-2,1.058792882E-2,-1.005935669E-2,1.811406576E-2
5.221647020E-1,-3.547310829E-3,8.046872914E-3,-9.958267212E-3,1.328543050E-2
5.269133470E-1,-1.191124320E-3,-2.996709011E-2,-9.859085083E-3,3.156971374E-2
5.316619410E-1,-1.228779554E-3,1.079831272E-3,-2.784729004E-4,1.659361903E-3
5.364105870E-1,3.503873944E-3,-3.707498312E-3,-2.647399902E-3,5.747295242E-3
5.411592330E-1,3.420710564E-3,-2.033352293E-2,-2.620697021E-3,2.078512613E-2
5.459078790E-1,-1.432418823E-3,-3.633908927E-3,-9.707450867E-3,1.046382913E-2
5.506564720E-1,-1.496911049E-3,-1.077829860E-2,1.172828674E-2,1.599891163E-2
5.554051180E-1,-1.560881734E-3,-1.255270094E-3,2.133369446E-3,2.926315087E-3
5.601537640E-1,5.519941449E-3,1.057994366E-2,-2.565383911E-4,1.193611215E-2
5.649024100E-1,3.104835749E-3,-1.385318115E-3,1.160526276E-2,1.209302423E-2
5.696510560E-1,-1.660272479E-3,-2.987772413E-2,1.149940491E-2,3.205731144E-2
5.743996500E-1,3.050312400E-3,-5.947874859E-3,6.652832031E-3,9.430895775E-3
5.791482950E-1,-1.126275957E-2,8.305948228E-3,-2.897262573E-3,1.429099925E-2
5.838969410E-1,5.369231105E-3,2.251995355E-2,-4.968643188E-4,2.315650718E-2
5.886455870E-1,1.236343384E-2,1.762580127E-2,4.254341125E-3,2.194590588E-2
5.933941810E-1,2.684801817E-3,3.410652652E-2,-2.901077271E-3,3.433481559E-2
5.981428270E-1,1.210603118E-2,-6.486725062E-3,-7.622718811E-3,1.570794178E-2
6.028914720E-1,-9.352564812E-3,-1.347357500E-2,-2.810478210E-3,1.664050719E-2
6.076401180E-1,1.919151843E-2,3.278311342E-3,-1.228237152E-2,2.301995558E-2
6.123887120E-1,-7.132947445E-3,1.033614576E-2,-9.803771973E-3,1.593200531E-2
6.171373580E-1,-7.094338536E-3,1.024201885E-2,-2.250671387E-4,1.246110928E-2
6.218860040E-1,-7.056191564E-3,-4.095289856E-3,-4.972457886E-3,9.554400861E-3
6.266346500E-1,-4.615560174E-3,1.972992346E-2,2.192497253E-3,2.038088123E-2
6.313832950E-1,9.646892548E-3,-2.786784805E-2,-1.993179321E-4,2.949100233E-2
6.361318890E-1,4.740297794E-3,-1.339918096E-2,-1.444244385E-2,2.026308609E-2
6.408805350E-1,-9.690225124E-5,-1.453340054E-3,-7.199287415E-3,7.345156679E-3
6.456291810E-1,-2.519711852E-3,1.039341278E-2,4.732131958E-3,1.169465904E-2
6.503778270E-1,-4.922255874E-3,2.937769331E-2,-4.803657532E-3,3.017204986E-2
6.551264200E-1,4.565820098E-3,7.815610617E-3,2.360343933E-3,9.354234655E-3
6.598750660E-1,-1.211215556E-2,2.201640420E-2,4.714012146E-3,2.556654604E-2
6.646237120E-1,-2.155721188E-2,9.954204783E-3,1.179790497E-2,2.651396120E-2
6.693723580E-1,-1.902438700E-2,9.835615754E-3,1.407337189E-2,2.562667427E-2
6.741209520E-1,-1.179288328E-2,7.371971384E-3,1.395702362E-2,1.970321208E-2
6.788695970E-1,2.557933331E-3,-6.941879168E-3,2.333831787E-2,2.448284686E-2
6.836182430E-1,-9.326457977E-3,-1.169699430E-2,3.976249695E-2,4.248362811E-2
6.883668890E-1,1.687458158E-2,-2.347778901E-2,3.705596924E-2,4.700109506E-2
6.931155350E-1,2.149005234E-2,-1.613957994E-2,3.912162781E-2,4.746377727E-2
6.978641290E-1,1.182226837E-2,-1.833100431E-2,3.167343140E-2,3.845774310E-2
7.026127750E-1,-2.427697182E-3,-1.349509042E-2,4.565429688E-2,4.766892072E-2
7.073614200E-1,1.896761358E-2,-2.051306888E-2,5.002117157E-2,5.729462423E-2
7.121100660E-1,-3.103987873E-2,-1.317006815E-2,3.773403168E-2,5.060416893E-2
7.168587120E-1,-7.032006979E-3,1.233728603E-3,3.267097473E-2,3.344194669E-2
7.216073060E-1,-1.411646605E-2,1.214072108E-3,1.340579987E-2,1.950548781E-2
7.263559520E-1,-3.061006963E-2,1.069209166E-2,3.228664398E-2,4.575723513E-2
7.311045970E-1,-2.562761307E-2,8.221305907E-3,1.539802551E-2,3.100747671E-2
7.358532430E-1,-2.543495595E-2,-2.037308924E-2,1.289558411E-2,3.504705179E-2
7.406018890E-1,-2.524396777E-2,-1.317367982E-2,9.183883667E-4,2.848942235E-2
7.453504830E-1,-2.262327075E-2,-6.034262478E-3,1.278114319E-2,2.667550045E-2
7.500991290E-1,-1.052780449E-2,-8.393777534E-3,-6.319046021E-3,1.487348350E-2
7.548477750E-1,-3.281384706E-3,-1.785653271E-2,-6.267547607E-3,1.920691019E-2
7.595964200E-1,6.221711636E-3,8.428484201E-3,-1.571273804E-2,1.888489286E-2
7.643450140E-1,1.567412913E-2,-1.174453646E-3,-6.084442139E-3,1.685461662E-2
7.690936600E-1,-1.096442342E-3,-1.066879369E-2,1.088142395E-3,1.078004631E-2
7.738423060E-1,1.548224688E-2,-1.090830192E-3,-6.042480469E-3,1.665537298E-2
7.785909520E-1,3.461584449E-3,1.790390909E-2,-1.548957825E-2,2.392612718E-2
7.833395450E-1,3.469198942E-3,1.065193489E-2,-1.298713684E-2,1.715123265E-2
7.880881910E-1,-3.645911813E-3,-8.466124535E-3,-3.382682800E-3,9.818883873E-3
7.928368370E-1,3.514468670E-3,1.768486015E-2,-5.729675293E-3,1.891916879E-2
7.975854830E-1,-1.080918312E-2,-1.491807401E-3,-3.306388855E-3,1.140158482E-2
8.023341290E-1,-8.394524455E-3,1.510400511E-2,8.591651917E-3,1.929806969E-2
8.070827220E-1,1.299329102E-2,1.022231393E-2,-1.284599304E-2,2.093659119E-2
8.118313680E-1,-1.328009367E-2,-4.115294665E-3,-1.511287689E-2,2.053522793E-2
8.165800140E-1,5.802914500E-3,-6.491713226E-3,-1.736068726E-2,1.942188506E-2
8.213286600E-1,8.107870817E-3,-4.071461037E-3,-1.246738434E-2,1.541914513E-2
8.260773060E-1,-1.505777240E-3,7.032323629E-4,-1.948451996E-2,1.955526576E-2
8.308259000E-1,-1.338492334E-2,-4.057999700E-3,-5.077362061E-3,1.487962163E-2
8.355745450E-1,1.522405446E-2,1.504718885E-2,-2.402782440E-2,3.217959092E-2
8.403231910E-1,1.982457936E-2,1.256869175E-2,-1.195716858E-2,2.634311749E-2
8.450718370E-1,-4.103019834E-3,1.005369984E-2,-1.185798645E-2,1.607866583E-2
8.498204310E-1,7.838293910E-3,2.186077833E-2,-3.075408936E-2,3.853759843E-2
8.545690770E-1,-1.715868711E-3,5.051581189E-3,-2.812194824E-2,2.862353317E-2
8.593177220E-1,-4.068046808E-3,1.212439686E-2,-2.313995361E-2,2.643874916E-2
8.640663680E-1,-1.355163753E-2,7.296100259E-3,-3.953933716E-3,1.589067496E-2
8.688150140E-1,-8.682683110E-3,-1.648559794E-2,-1.104354858E-2,2.165926801E-2
8.735636080E-1,8.653551340E-4,-6.859159097E-3,-2.044868469E-2,2.158577329E-2
8.783122540E-1,7.988125086E-3,-9.154191241E-3,8.212089539E-3,1.466450730E-2
8.830609000E-1,1.267747581E-2,2.814332023E-3,3.395080566E-3,1.342257165E-2
8.878095450E-1,-1.113340259E-2,-4.339098930E-3,-1.381874084E-3,1.202871600E-2
8.925581390E-1,-6.313264370E-3,-6.741758436E-3,-1.369476318E-3,9.337241520E-3
8.973067850E-1,-2.052634954E-2,-4.319421947E-3,-8.481025696E-3,2.262556581E-2
9.020554310E-1,5.710840225E-3,7.579781115E-3,8.210182190E-3,1.254885929E-2
9.068040770E-1,3.325283527E-3,-6.792485714E-3,1.288890839E-2,1.494387273E-2
9.115527220E-1,8.053526282E-3,-1.995118335E-3,1.278114319E-2,1.523802494E-2
9.163013160E-1,1.271380484E-2,-1.860506088E-2,5.553245544E-3,2.320835323E-2
9.210499620E-1,-6.434872746E-3,-9.017642587E-3,1.025581360E-2,1.509659490E-2
9.257986080E-1,3.065824509E-3,4.898812622E-4,7.797241211E-3,8.392629747E-3
9.305472540E-1,-1.119700074E-2,5.255594850E-3,1.960182190E-2,2.317812599E-2
9.352958470E-1,-1.628026366E-3,5.204265937E-3,1.706504822E-2,1.791509767E-2
9.400444930E-1,-4.009515047E-3,3.764946014E-4,-2.069473267E-3,4.527767518E-3
9.447931390E-1,-1.586768031E-2,5.027942359E-3,1.456737518E-2,2.211949146E-2
9.495417850E-1,-1.100805402E-2,-2.143934369E-3,1.207160950E-2,1.647718009E-2
9.542904310E-1,-1.096573472E-2,7.391104475E-3,2.475738525E-3,1.345381153E-2
9.590390250E-1,1.004040241E-3,7.379125804E-3,2.454757690E-3,7.841264551E-3
9.637876700E-1,-6.118953228E-3,1.010205597E-4,-7.062911987E-3,9.345400981E-3
9.685363160E-1,-8.434370160E-3,4.754764959E-3,-7.003784180E-3,1.194986957E-2
9.732849620E-1,-8.442059159E-3,7.052723318E-3,-6.944656372E-3,1.300913222E-2
9.780336080E-1,-8.449688554E-3,6.985960528E-3,2.374649048E-4,1.096618761E-2
9.827822020E-1,-2.027095854E-2,1.407168433E-2,-1.163482666E-2,2.728173843E-2
9.875308470E-1,-5.935281515E-3,-2.975389361E-4,5.082130432E-3,7.819472221E-3
9.922794930E-1,-1.186862588E-3,1.871824823E-2,1.453685760E-2,2.372976377E-2
9.970281390E-1,-2.965906262E-2,9.029565379E-3,4.920005798E-3,3.139107363E-2
1.001776785E0,8.553609252E-3,-1.716929860E-2,7.252693176E-3,2.050733050E-2
1.006525379E0,1.367703080E-3,-5.192503333E-3,4.818916321E-3,7.214891343E-3
1.011274025E0,-3.412738442E-3,-5.157679319E-3,3.051757812E-5,6.184607583E-3
1.016022670E0,1.371651888E-3,9.151231498E-3,1.902198792E-2,2.115330922E-2
1.020771316E0,-3.380402923E-3,-4.291534424E-4,9.366989136E-3,9.967536409E-3
1.025519910E0,1.403793693E-3,1.378274150E-2,2.116107941E-2,2.529280296E-2
1.030268556E0,-1.044231653E-2,8.940177038E-3,-3.843307495E-4,1.375196168E-2
1.035017202E0,-1.272177696E-2,-2.194862999E-2,-7.504463196E-3,2.645567870E-2
1.039765847E0,-5.485594273E-3,-7.528826594E-3,9.177207947E-3,1.307654848E-2
1.044514493E0,1.353247464E-2,6.770810112E-3,-7.518768311E-3,1.689685226E-2
1.049263087E0,1.339879632E-2,9.109579027E-3,-1.220321655E-2,2.028375377E-2
1.054011733E0,8.517995477E-3,-2.845063806E-3,-2.307891846E-4,8.983534864E-3
1.058760379E0,1.332387328E-3,-1.461481955E-2,-1.209926605E-2,1.902000119E-2
1.063509025E0,-3.447845578E-3,-5.004428327E-3,-9.624481201E-3,1.138255597E-2
1.068257670E0,1.320767403E-2,-2.653714269E-3,-1.904010773E-2,2.332403385E-2
1.073006264E0,5.982831120E-3,-1.925816759E-2,-4.636764526E-3,2.069229017E-2
1.077754910E0,1.068902016E-2,-2.150839381E-2,4.899024963E-3,2.451258048E-2
1.082503556E0,1.111075282E-3,-2.343963832E-3,-9.387016296E-3,9.738825888E-3
1.087252202E0,-3.667384386E-3,-1.892242581E-2,-1.880455017E-2,2.692803398E-2
1.092000795E0,-6.003245711E-3,-1.399586070E-2,-9.151458740E-3,1.776716840E-2
1.096749441E0,-5.916833878E-3,2.731358632E-3,-2.806854248E-2,2.881514047E-2
1.101498087E0,-1.535636187E-2,-2.047689632E-3,-1.121616364E-2,1.912624399E-2
1.106246733E0,-8.098140359E-3,-1.631253213E-2,-1.349735260E-2,2.266841655E-2
1.110995379E0,-5.648836493E-3,2.809057012E-3,1.985263824E-2,2.083092413E-2
1.115743972E0,-3.248438239E-3,1.467696764E-2,1.256465912E-2,1.959174287E-2
1.120492618E0,-3.213629127E-3,2.873441949E-2,2.195835114E-2,3.630652091E-2
1.125241264E0,1.346842945E-2,-3.091618419E-5,1.465129852E-2,1.990125865E-2
1.129989910E0,-8.003488183E-3,4.710104316E-3,2.402591705E-2,2.575821415E-2
1.134738556E0,1.567542553E-3,9.382586926E-3,2.457618713E-3,9.824969050E-3
1.139487150E0,-3.185987473E-3,-9.668659419E-3,6.294250488E-5,1.018024817E-2
1.144235795E0,1.568019390E-3,-2.473631874E-3,-2.311706543E-3,3.731156201E-3
1.148984441E0,-1.027959585E-2,-7.236963138E-3,1.669883728E-2,2.090203083E-2
1.153733087E0,-2.202837169E-2,-9.077228606E-5,2.314567566E-3,2.214982217E-2
1.158481681E0,-2.421127260E-2,-4.902992398E-3,2.295494080E-3,2.480915856E-2
1.163230327E0,-1.453389227E-2,9.347103536E-3,4.651069641E-3,1.789510598E-2
1.167978972E0,2.185419202E-3,-1.688298024E-2,6.985664368E-3,1.840137456E-2
1.172727618E0,-2.278983593E-4,-7.252775133E-3,2.179145813E-3,7.576500595E-3
1.177476264E0,-9.743541479E-3,1.176519506E-2,-7.335662842E-3,1.694604274E-2
1.182224910E0,-2.589464188E-3,6.854627281E-3,4.597663879E-3,8.650419244E-3
1.186973504E0,1.400166750E-2,6.789973006E-3,4.560470581E-3,1.621568124E-2
1.191722150E0,-5.129113793E-3,-3.108624369E-4,9.269714355E-3,1.059868143E-2
1.196470795E0,-7.481485605E-3,-1.927995868E-2,1.156616211E-2,2.369526407E-2
1.201219441E0,4.459276795E-3,-9.573083371E-3,-9.897232056E-3,1.447357168E-2
1.205968035E0,-2.749815583E-3,1.195221394E-2,-2.690315247E-3,1.255606228E-2
1.210716681E0,-4.022419453E-4,-2.428382635E-3,1.157665253E-2,1.183544357E-2
1.215465327E0,9.105369449E-3,9.397910908E-3,4.359245300E-3,1.379244365E-2
1.220213972E0,6.634578109E-3,-1.854412258E-4,6.696701050E-3,9.428564052E-3
1.224962566E0,-2.937987447E-3,6.958220154E-3,-1.235198975E-2,1.447826815E-2
1.229711212E0,-1.483345032E-2,6.890878081E-3,-7.500648499E-3,1.799375383E-2
1.234459858E0,-5.205512047E-3,6.911188364E-3,9.181022644E-3,1.261558786E-2
1.239208504E0,-2.808809280E-3,2.097312361E-3,6.731033325E-3,7.589132911E-3
1.243957150E0,-2.777740359E-3,-2.732705325E-4,4.301071167E-3,5.127351311E-3
1.248705795E0,2.001360059E-3,-7.372394204E-3,-2.857208252E-3,8.156057711E-3
1.253454389E0,-7.504239678E-3,6.926394999E-3,4.288673401E-3,1.107615820E-2
1.258203035E0,6.810799241E-3,-7.383288816E-3,2.561950684E-2,2.751834062E-2
1.262951681E0,2.338068187E-2,4.541900009E-3,-7.095336914E-4,2.382831464E-2
1.267700327E0,1.854762435E-3,-2.636740543E-2,2.778530121E-2,3.834974806E-2
1.272448920E0,1.612052321E-2,-2.381009422E-2,1.436233521E-3,2.878983540E-2
1.277197566E0,1.361970603E-2,-2.280455083E-3,-9.498596191E-4,1.384193271E-2
1.281946212E0,2.063632011E-2,7.199028507E-3,-5.690574646E-3,2.258464875E-2
1.286694858E0,8.629918098E-3,-4.739694297E-3,-2.226352692E-2,2.434347591E-2
1.291443504E0,-8.024722338E-3,-1.185920648E-2,-7.834434509E-3,1.632223364E-2
1.296192097E0,-1.510111988E-2,-9.422795847E-3,-5.393981934E-3,1.859913826E-2
1.300940743E0,8.774012327E-3,-9.381294250E-3,6.522178650E-3,1.440592893E-2
1.305689389E0,-7.308125496E-4,1.854859293E-4,-1.727485657E-2,1.729130306E-2
1.310438035E0,-6.884187460E-4,-1.881723292E-2,-2.886772156E-3,1.904981965E-2
1.315186629E0,-1.726546884E-2,2.670802176E-3,-2.660560608E-2,3.182904135E-2
1.319935275E0,-1.236568391E-2,-2.106826752E-3,2.104759216E-3,1.271923225E-2
1.324683920E0,4.364207387E-3,-2.040566877E-3,-2.660751343E-3,5.503618537E-3
1.329432566E0,2.807697654E-2,-1.624740660E-2,2.108573914E-3,3.250755169E-2
1.334181212E0,1.735106111E-3,2.816032618E-3,-9.779930115E-3,1.032413028E-2
1.338929858E0,-7.796913385E-3,-1.145939901E-2,2.354049683E-2,2.731784536E-2
1.343678452E0,-1.481813192E-2,-9.054439142E-3,2.097034454E-2,2.722710510E-2
1.348427097E0,1.377421618E-2,4.529226571E-4,1.129817963E-2,1.782085949E-2
1.353175743E0,1.129288971E-2,2.730492502E-3,1.832675934E-2,2.169919481E-2
1.357924389E0,1.709848642E-3,1.931924187E-2,3.004550934E-2,3.576156205E-2
1.362672983E0,-5.419030786E-3,1.566186547E-4,1.317596436E-2,1.424768265E-2
1.367421629E0,-3.020480275E-3,1.444890536E-2,5.944252014E-3,1.591314863E-2
1.372170275E0,-5.390226841E-3,2.378807031E-2,2.251434326E-2,3.319371155E-2
1.376918920E0,-5.423381925E-3,9.337414056E-3,2.232742310E-2,2.480149582E-2
1.381667566E0,-1.014730334E-2,2.589922585E-2,1.739215851E-2,3.280586597E-2
1.386416160E0,4.218459129E-3,-9.936811402E-3,2.674388885E-2,2.884044399E-2
1.391164806E0,-7.708206773E-3,-7.459722459E-3,-1.146602631E-2,1.570139071E-2
1.395913452E0,-5.233511329E-3,6.867915392E-3,2.874374390E-3,9.100545631E-3
1.400662097E0,-5.182087421E-3,-7.414070889E-3,5.224227905E-3,1.044581420E-2
1.405410743E0,1.383346319E-2,4.510462284E-3,2.806663513E-3,1.481844573E-2
1.410159337E0,-1.238982379E-2,-5.087954924E-3,-4.339218140E-3,1.407919859E-2
1.414907983E0,-1.705572009E-2,-1.211882941E-2,-4.302978516E-3,2.136069377E-2
1.419656629E0,-2.718195319E-3,-9.594066069E-3,-1.613807678E-2,1.897029815E-2
1.424405275E0,2.031773329E-3,-7.147047669E-3,-1.837730408E-2,1.982255529E-2
1.429153868E0,-5.128443241E-3,1.189770363E-2,-2.297306061E-2,2.637456721E-2
1.433902514E0,6.735563278E-3,7.128458470E-3,-6.161689758E-3,1.158227756E-2
1.438651160E0,6.629943848E-3,-2.139967494E-2,-3.734588623E-3,2.271231813E-2
1.443399806E0,6.553784013E-3,-1.410643663E-2,-1.082706451E-2,1.895175362E-2
1.448148452E0,1.701444387E-3,-2.126133069E-3,-1.073551178E-2,1.107549403E-2
1.452897045E0,4.040449858E-3,2.872310579E-4,3.599166870E-3,5.418647330E-3
1.457645691E0,1.640290022E-3,2.680029720E-3,-3.553390503E-3,4.743384311E-3
1.462394337E0,-7.397085428E-4,-4.473196343E-3,-3.523826599E-3,5.742299901E-3
1.467142983E0,6.368070841E-3,7.426830009E-3,-8.243560791E-3,1.279321792E-2
1.471891629E0,6.294295192E-3,-2.111978829E-3,1.321792603E-3,6.769471340E-3
1.476640222E0,-5.649745464E-3,-6.793513894E-3,8.433341980E-3,1.221444685E-2
1.481388868E0,-7.997721434E-3,5.097728223E-3,-1.132965088E-3,9.551648604E-3
1.486137514E0,8.609905839E-3,2.635789104E-2,3.625869751E-3,2.796454595E-2
1.490886160E0,-5.756229162E-3,1.191439852E-2,8.343696594E-3,1.564302845E-2
1.495634806E0,-1.009374857E-3,2.364928275E-2,1.064872742E-2,2.595578564E-2
1.500383400E0,-5.770102143E-3,-2.614259720E-3,1.064300537E-3,6.423485678E-3
1.505132045E0,1.379519701E-3,-2.258606255E-4,-1.317977905E-3,1.921237462E-3
1.509880691E0,1.318943501E-2,-7.354870439E-3,3.442764282E-3,1.548896190E-2
1.514629337E0,-1.302842796E-2,-4.898389801E-3,1.053524017E-2,1.745638689E-2
1.519377983E0,3.706842661E-3,2.257341519E-3,5.700111389E-3,7.164324329E-3
1.524126577E0,3.654986620E-3,2.202877775E-3,1.039981842E-2,1.124134426E-2
1.528875222E0,-1.116111875E-3,-1.971609890E-4,-6.304740906E-3,6.405804872E-3
1.533623868E0,1.246422529E-3,-7.325496525E-3,-1.337432861E-2,1.529997171E-2
1.538372514E0,-2.252620459E-2,-7.358632982E-3,-2.038383484E-2,3.125828043E-2
1.543121108E0,-2.001380920E-2,-4.987852648E-3,-1.546573639E-2,2.578022954E-2
1.547869754E0,-2.939316630E-2,-4.953363910E-3,-1.058769226E-2,3.163215558E-2
1.552618400E0,-2.207528055E-2,-1.204206049E-2,-1.287269592E-2,2.824952270E-2
1.557367045E0,-1.478983462E-2,-4.826344550E-3,-2.700996399E-2,3.117003312E-2
1.562115691E0,-1.471613348E-2,7.134689018E-3,4.079818726E-3,1.685566055E-2
1.566864285E0,-3.695935011E-4,2.319861203E-3,-7.028579712E-4,2.452012375E-3
1.571612931E0,-3.587752581E-4,1.181770675E-2,8.798599243E-3,1.473778345E-2
1.576361577E0,1.389685273E-2,-7.224794477E-3,-3.144264221E-3,1.597518603E-2
1.581110222E0,-7.578551769E-3,-1.189229824E-2,2.062320709E-2,2.498355209E-2
1.585858868E0,-4.423707724E-4,-2.276018262E-3,2.045249939E-2,2.058350510E-2
1.590607462E0,6.691575050E-3,-1.642465591E-2,2.977848053E-2,3.465983845E-2
1.595356108E0,-5.074739456E-4,3.232620656E-4,1.291084290E-2,1.292485561E-2
1.600104754E0,6.569862366E-3,1.218286157E-2,2.467536926E-2,2.829238512E-2
1.604853400E0,4.120007157E-3,4.980394617E-3,2.921867371E-2,2.992506780E-2
1.609601993E0,-1.255425811E-2,2.500051633E-3,2.422809601E-2,2.740183007E-2
1.614350639E0,-1.006782055E-2,-7.024908438E-3,1.215553284E-2,1.727620698E-2
1.619099285E0,-2.187551558E-2,-9.377086535E-3,3.104686737E-2,3.912001927E-2
1.623847931E0,-3.466606140E-4,4.908917472E-3,1.891803741E-2,1.954762860E-2
1.628596577E0,-1.458103955E-2,-2.290096134E-3,1.401138306E-2,2.035116974E-2
1.633345170E0,-1.207776368E-2,-7.054969668E-3,-2.723693848E-3,1.425003441E-2
1.638093816E0,-7.249757648E-3,9.643903002E-3,4.421234131E-3,1.284955884E-2
1.642842462E0,2.286419272E-3,-1.893422753E-2,2.010345459E-3,1.917743919E-2
1.647591108E0,7.023334503E-3,-2.193523571E-3,-9.878158569E-3,1.231733697E-2
1.652339754E0,2.195537090E-3,-6.959201768E-3,6.823539734E-3,9.990573901E-3
1.657088347E0,1.880404353E-2,-4.563635215E-3,-2.729415894E-3,1.954145672E-2
1.661836993E0,-1.935993135E-2,-2.158990130E-3,9.162902832E-3,2.152735396E-2
1.666585639E0,-5.003288388E-3,-1.164467074E-2,-1.702785492E-2,2.122684844E-2
1.671334285E0,-5.011096597E-3,-1.155516692E-2,-1.688480377E-2,2.106488951E-2
1.676082931E0,6.823480129E-3,-9.036010131E-3,-9.620666504E-3,1.485821605E-2
1.680831525E0,1.383957267E-2,-1.817220822E-3,4.706382751E-3,1.473044812E-2
1.685580170E0,1.850894094E-2,1.008879580E-2,2.292633057E-3,2.120426517E-2
1.690328816E0,-1.490421593E-2,5.001407117E-4,-2.474784851E-3,1.511655891E-2
1.695077462E0,1.849438250E-2,-9.008608758E-3,1.178932190E-2,2.371044763E-2
1.699826056E0,1.671865582E-3,5.546081811E-4,-1.442337036E-2,1.453053121E-2
1.704574702E0,-7.084608078E-4,-1.613420062E-2,9.437561035E-3,1.870513043E-2
1.709323347E0,8.773267269E-3,7.790442556E-3,4.611015320E-3,1.260645375E-2
1.714071993E0,-5.537122488E-3,1.486946642E-2,-1.754760742E-4,1.586794092E-2
1.718820639E0,-1.732544601E-2,1.004688814E-2,-7.297515869E-3,2.131583399E-2
1.723569233E0,1.791194081E-3,7.552899420E-3,-1.435852051E-2,1.632243171E-2
1.728317879E0,-5.367144942E-3,-2.042289823E-3,-9.490966797E-3,1.109304482E-2
1.733066525E0,-5.663782358E-4,7.406167686E-3,-2.365684509E-2,2.479553234E-2
1.737815170E0,-5.330801010E-3,9.624868631E-3,-1.396179199E-2,1.777602799E-2
1.742563816E0,1.134042442E-2,-1.180208102E-2,-1.975059509E-3,1.648621249E-2
1.747312410E0,4.102632403E-3,4.935894161E-3,-1.145553589E-2,1.313102990E-2
1.752061056E0,6.421625614E-3,-6.983056664E-3,-1.848220825E-2,2.077480151E-2
1.756809702E0,1.112395525E-2,7.341979071E-3,-1.120567322E-2,1.741304538E-2
1.761558347E0,-5.637288094E-3,4.870535806E-3,-8.737564087E-3,1.148242841E-2
1.766306993E0,-5.582645535E-3,-1.897622086E-2,1.270294189E-2,2.350803314E-2
1.771055587E0,-7.931172848E-3,-2.206584439E-3,3.101348877E-3,8.797208789E-3
1.775804233E0,3.984838724E-3,-4.598915577E-3,7.009506226E-4,6.125381287E-3
1.780552879E0,-1.028543711E-2,-4.569040611E-3,-4.052162170E-3,1.196187138E-2
1.785301525E0,1.621589065E-3,-9.287249297E-3,1.260089874E-2,1.573738224E-2
1.790050170E0,-7.880851626E-3,-1.636841334E-2,1.724338531E-2,2.504729756E-2
1.794798764E0,-5.462005734E-3,2.782674506E-3,1.472568512E-2,1.595062965E-2
1.799547410E0,-1.015709341E-2,-1.629839092E-2,1.697635651E-2,2.563202632E-2
1.804296056E0,-2.671225369E-2,-6.645845249E-3,1.208686829E-2,3.006333550E-2
1.809044702E0,-2.769008279E-3,9.992001578E-3,1.910972595E-2,2.174141505E-2
1.813793295E0,-2.413417399E-2,1.934063062E-2,1.657581329E-2,3.508954165E-2
1.818541941E0,-7.392108440E-3,1.682635769E-2,1.643848419E-2,2.465752102E-2
1.823290587E0,-9.782642126E-3,9.584283456E-3,2.058982849E-3,1.384911502E-2
1.828039233E0,2.586159110E-2,9.468298405E-3,-3.318786621E-4,2.754234399E-2
1.832787879E0,-1.710933447E-2,1.415782236E-2,-7.451057434E-3,2.342416523E-2
1.837536472E0,-1.698751748E-2,-4.904625937E-3,-9.763717651E-3,2.019805159E-2
1.842285118E0,-1.214708388E-2,-4.814583808E-3,-4.932403564E-3,1.396640501E-2
1.847033764E0,1.879715919E-2,-1.902688295E-2,4.604339600E-3,2.713955437E-2
1.851782410E0,-3.449320793E-4,-2.285860479E-3,-1.680183411E-2,1.696012281E-2
1.856531004E0,-2.737104893E-3,-1.414508652E-2,-2.416610718E-3,1.460873791E-2
1.861279650E0,-2.763703465E-3,-9.258324280E-3,-4.769325256E-3,1.077502152E-2
1.866028295E0,3.044790030E-2,-1.631115004E-2,1.907348633E-5,3.454169382E-2
1.870776941E0,-7.812961936E-3,5.183661357E-3,-2.354621887E-3,9.667314183E-3
1.875525587E0,1.727908850E-3,2.758326009E-3,2.413749695E-3,4.052186935E-3
1.880274181E0,1.116062701E-2,-6.768785417E-3,4.768371582E-3,1.389652542E-2
1.885022827E0,1.521527767E-3,-1.155395061E-2,1.422595978E-2,1.838985462E-2
1.889771472E0,-1.275677979E-2,-9.091967717E-3,1.410770416E-2,2.108142842E-2
1.894520118E0,1.819252968E-2,9.969448671E-3,1.399040222E-2,2.502177846E-2
1.899268764E0,-9.731054306E-4,-6.712077186E-3,6.752014160E-3,9.570193809E-3
1.904017358E0,-1.051099598E-2,7.495004684E-3,2.094173431E-2,2.460106436E-2
1.908766004E0,-8.127287030E-3,-9.194480255E-3,-5.998611450E-4,1.228621565E-2
1.913514650E0,2.515769005E-2,3.993213177E-4,-5.342483521E-3,2.572179924E-2
1.918263295E0,5.905359983E-3,7.510900497E-3,4.199028015E-3,1.043641409E-2
1.923011941E0,1.055502892E-2,-4.401840270E-3,6.538391113E-3,1.317328325E-2
1.927760535E0,-1.094976068E-2,7.526628673E-3,1.737594604E-3,1.340024750E-2
1.932509181E0,9.341984987E-4,2.707621083E-3,1.121997833E-2,1.157980365E-2
1.937257827E0,3.308311105E-3,-2.099815756E-3,1.824951172E-2,1.866544472E-2
1.942006472E0,3.259912133E-3,7.406279445E-3,6.225585938E-3,1.020969748E-2
1.946755066E0,-2.533504367E-2,2.559689805E-3,1.426696777E-3,2.550395878E-2
1.951503712E0,-1.087135077E-2,1.199883223E-2,1.565837860E-2,2.252427718E-2
1.956252358E0,1.291121542E-2,-2.410748973E-3,1.285552979E-3,1.319711487E-2
1.961001004E0,9.406208992E-4,2.321058884E-3,3.648757935E-3,4.425552676E-3
1.965749650E0,-1.805271208E-2,-9.576557204E-3,1.244544983E-3,2.047339136E-2
1.970498243E0,-8.426606655E-3,-2.140361071E-2,-8.262634277E-3,2.444163203E-2
1.975246889E0,-1.254841685E-3,-1.419609133E-2,-8.193016052E-3,1.643864802E-2
1.979995535E0,-6.042048335E-3,1.014787704E-4,-3.375053406E-3,6.921533899E-3
1.984744181E0,1.052871346E-3,2.437287942E-3,-9.717941284E-4,2.827241484E-3
1.989492775E0,-1.319302619E-2,-4.713460803E-3,-8.086204529E-3,1.617588812E-2
1.994241420E0,-1.550666988E-2,-2.336608246E-3,-3.269195557E-3,1.601886976E-2
1.998990066E0,-5.958810449E-3,-1.659905910E-2,-8.668899536E-4,1.765751068E-2
2.003738712E0,-1.545523107E-2,1.507680863E-4,1.575946808E-2,2.207368869E-2
2.008487358E0,-1.045361161E-3,7.293459028E-3,1.325321198E-2,1.516360617E-2
2.013235952E0,-3.402978182E-3,1.915214024E-2,1.314258575E-2,2.347578107E-2
2.017984597E0,3.755494952E-3,1.901358739E-2,2.965259552E-2,3.542452073E-2
2.022733243E0,-1.763546467E-2,2.356731705E-2,5.663871765E-3,2.997511452E-2
2.027481889E0,-1.985497773E-2,-5.154974759E-3,3.242492676E-3,2.076794800E-2
2.032230483E0,-5.437046289E-3,-9.867390618E-3,-3.907203674E-3,1.192447527E-2
2.036979129E0,1.592604816E-2,2.021329477E-3,-1.099681854E-2,1.945905447E-2
2.041727775E0,-5.594938993E-3,4.313929006E-3,9.670257568E-4,7.130810938E-3
2.046476420E0,-3.195002675E-3,6.644133478E-3,-1.328659058E-2,1.519493471E-2
2.051225066E0,1.108425856E-2,-7.635526359E-3,1.293945312E-2,1.867060518E-2
2.055973660E0,-5.676671863E-3,1.138516702E-2,-1.803112030E-2,2.206734988E-2
2.060722306E0,-1.039856672E-2,4.160311073E-3,-6.009101868E-3,1.271014097E-2
2.065470952E0,3.940716386E-3,-5.407527089E-3,-1.070880890E-2,1.262731891E-2
2.070219597E0,2.053466439E-2,-3.024889156E-3,8.373260498E-3,2.238155239E-2
2.074968243E0,-9.960532188E-4,4.114767537E-3,1.182556152E-3,4.395665245E-3
2.079716837E0,1.336961985E-3,1.669753343E-3,1.173973083E-3,2.440032044E-3
2.084465483E0,2.267231047E-2,-1.265420951E-2,-8.332252502E-3,2.726883041E-2
2.089214129E0,1.095131040E-3,-5.491018295E-3,5.982398987E-3,8.193881348E-3
2.093962775E0,1.122251153E-3,-1.017250679E-2,1.305389404E-2,1.658744983E-2
2.098711368E0,-3.656238317E-3,4.234910011E-3,1.057147980E-2,1.196071597E-2
2.103460014E0,-3.618106246E-3,-1.952080987E-2,9.870529175E-4,1.987780130E-2
2.108208660E0,-5.954369903E-3,-1.458924916E-2,5.726814270E-3,1.676595102E-2
2.112957306E0,-1.177221537E-3,-4.979534075E-3,9.317398071E-4,5.200937340E-3
2.117705952E0,-8.310705423E-3,-9.694326669E-3,-6.197929382E-3,1.419373534E-2
2.122454545E0,-3.542572260E-3,-2.441922203E-3,-1.326847076E-2,1.394866010E-2
2.127203191E0,3.588542342E-3,1.893776469E-2,-1.287460327E-3,1.931771523E-2
2.131951837E0,-5.958899856E-3,-1.636017114E-4,8.219718933E-3,1.015376937E-2
2.136700483E0,-1.181796193E-3,1.410323754E-2,1.029968262E-3,1.419009464E-2
2.141449077E0,-3.595516086E-3,1.394913159E-2,-2.034568787E-2,2.492895952E-2
2.146197722E0,-1.545704901E-2,-5.168745294E-3,-5.930900574E-3,1.734392902E-2
2.150946368E0,1.551492512E-2,-3.286581486E-4,5.988121033E-3,1.663365598E-2
2.155695014E0,8.270934224E-3,-1.686719619E-2,5.938529968E-3,1.970220288E-2
2.160443660E0,-1.229748130E-3,-1.430285629E-2,-1.234054565E-3,1.440856930E-2
2.165192254E0,2.250120044E-2,7.232381031E-3,-1.309490204E-2,2.702013723E-2
2.169940900E0,-6.168216467E-3,-9.541586041E-3,3.633499146E-3,1.192858225E-2
2.174689545E0,-2.747638524E-2,-7.038751617E-3,1.784896851E-2,3.351240735E-2
2.179438191E0,-1.539753377E-2,-1.405336428E-2,3.455162048E-3,2.113100184E-2
2.184186785E0,-1.016736031E-3,-1.165493391E-2,3.426551819E-3,1.219067242E-2
2.188935431E0,6.121858954E-3,2.622373402E-3,5.771636963E-3,8.812819784E-3
2.193684077E0,-1.288600266E-2,1.612100750E-4,5.723953247E-3,1.410101748E-2
2.198432722E0,3.790974617E-3,7.188562304E-3,3.303527832E-3,8.772697001E-3
2.203181368E0,-5.786657333E-3,-1.778826118E-6,1.514720917E-2,1.621491140E-2
2.207929962E0,-3.385126591E-3,-4.729470238E-3,2.926635742E-2,2.983867704E-2
2.212678608E0,-1.052884758E-2,-7.043154910E-3,7.656097412E-3,1.480130028E-2
2.217427254E0,-5.713760853E-3,-2.272289246E-3,-6.650924683E-3,9.057878374E-3
2.222175900E0,6.183758378E-3,-2.261348069E-3,5.264282227E-4,6.605277393E-3
2.226924493E0,-3.385290504E-3,1.526940614E-4,1.714134216E-2,1.747309699E-2
2.231673139E0,3.773242235E-3,1.438739710E-2,1.699829102E-2,2.258708590E-2
2.236421785E0,-1.055258512E-2,7.080350071E-3,-6.883621216E-3,1.445242717E-2
2.241170431E0,-1.523379982E-2,-1.200841554E-2,-2.107143402E-2,2.864046145E-2
2.245919077E0,-2.699850500E-2,-4.822025076E-3,-6.649971008E-3,2.822044139E-2
2.250667670E0,6.472155452E-3,2.844915166E-2,-6.594657898E-3,2.991208016E-2
2.255416316E0,-7.250756025E-4,1.395919174E-2,-1.603698730E-2,2.127368634E-2
2.260164962E0,-1.976171136E-2,4.310157150E-3,-4.031181335E-3,2.062409061E-2
2.264913608E0,1.364864409E-2,8.986871690E-3,3.124237061E-3,1.663761418E-2
2.269662254E0,-1.972401142E-2,1.810131595E-3,-4.024505615E-3,2.021162656E-2
2.274410847E0,1.600305736E-2,1.840654574E-2,-1.348686218E-2,2.787102837E-2
2.279159493E0,8.697897196E-3,3.942651674E-3,-3.876686096E-3,1.030662956E-2
2.283908139E0,2.759762108E-2,-8.741635829E-4,1.277351379E-2,3.042294374E-2
2.288656785E0,1.288250089E-3,-1.514788810E-2,-1.578330994E-3,1.528428052E-2
2.293405379E0,-3.491625190E-3,-7.907204330E-3,-2.055835724E-2,2.230160037E-2
2.298154025E0,-8.260190487E-3,8.769271895E-3,5.729675293E-3,1.334016699E-2
2.302902670E0,-3.435388207E-3,-5.556231365E-3,8.055686951E-3,1.037148453E-2
2.307651316E0,-1.052145660E-2,-5.432169884E-3,3.240585327E-3,1.227643726E-2
2.312399962E0,1.566098630E-2,-1.248875260E-2,-1.340579987E-2,2.410292314E-2
2.317148556E0,2.020092309E-2,-2.194734849E-2,-1.091957092E-2,3.176476709E-2
2.321897202E0,2.478861809E-2,-9.930292144E-3,2.241039276E-2,3.486132517E-2
2.326645847E0,-3.899917006E-3,-1.457570400E-2,-1.338863373E-2,2.017215935E-2
2.331394493E0,1.275929809E-2,6.934139878E-3,-2.514743805E-2,2.903920839E-2
2.336143139E0,7.327198982E-4,-2.639783360E-2,5.927085876E-3,2.706497449E-2
2.340891733E0,-6.416797638E-3,9.398709983E-3,-1.244544983E-3,1.144814105E-2
2.345640379E0,7.946282625E-3,4.594057798E-3,-5.982398987E-3,1.095617964E-2
2.350389025E0,-6.414338946E-3,1.407341100E-2,-1.780319214E-2,2.358300854E-2
2.355137670E0,-4.007562995E-3,-2.756644040E-3,-3.408432007E-3,5.939449155E-3
2.359886264E0,-1.583708823E-2,6.754465401E-3,1.086425781E-2,2.035849366E-2
2.364634910E0,1.754063368E-2,1.970931888E-3,1.314735413E-2,2.200934626E-2
2.369383556E0,-1.351901889E-2,4.292996600E-3,-1.307678223E-2,1.929237997E-2
2.374132202E0,7.882878184E-3,-1.954896003E-2,6.026268005E-3,2.192299051E-2
2.378880795E0,-4.074513912E-3,-7.522387430E-3,3.602027893E-3,9.282380148E-3
2.383629441E0,6.868243217E-4,-7.438652217E-3,1.197814941E-3,7.565714447E-3
2.388378087E0,-1.595884562E-2,2.055225894E-3,-1.305675507E-2,2.072166884E-2
2.393126733E0,-6.321534514E-3,-9.840633720E-3,2.029037476E-2,2.342005932E-2
2.397875327E0,-3.915533423E-3,-7.363891229E-3,1.537227631E-2,1.748900154E-2
2.402623972E0,-1.558110118E-3,-1.443342399E-2,8.122444153E-3,1.663506941E-2
2.407372618E0,-2.061630785E-2,-4.910301417E-3,9.355545044E-4,2.121363882E-2
2.412121264E0,-8.594706655E-3,-7.308233529E-3,2.229595184E-2,2.498777158E-2
2.416869910E0,8.103564382E-3,1.411291771E-2,2.685832977E-2,3.140401376E-2
2.421618504E0,-6.286889315E-3,4.490727559E-3,5.197525024E-4,7.743497525E-3
2.426367150E0,8.099228144E-4,4.445310682E-3,-1.847743988E-2,1.902189650E-2
2.431115795E0,-1.591816545E-3,-2.722172067E-3,5.417823792E-3,6.268725174E-3
2.435864441E0,-3.973618150E-3,-1.457776409E-2,1.249504089E-2,1.960680734E-2
2.440613087E0,-6.364092231E-3,9.305790067E-3,2.895355225E-3,1.163969418E-2
2.445361681E0,-3.986328840E-3,1.871684007E-2,-4.250526428E-3,1.960300729E-2
2.450110327E0,-1.819032431E-2,-7.562298328E-3,7.655143738E-3,2.113474580E-2
2.454858972E0,5.710273981E-3,-1.459975634E-2,5.217552185E-3,1.652219613E-2
2.459607618E0,-8.603125811E-3,-1.205430739E-2,-6.695747375E-3,1.625278847E-2
2.464356212E0,-2.279724181E-2,-9.558657184E-3,-2.088546753E-2,3.236178170E-2
2.469104858E0,-1.078607142E-2,9.535690770E-3,-2.071094513E-2,2.522324292E-2
2.473853504E0,-3.594607115E-3,2.382958308E-3,1.032543182E-2,1.118991657E-2
2.478602150E0,-1.211360097E-3,1.185169816E-2,-1.587581635E-2,1.984872004E-2
2.483350743E0,-8.344694972E-3,6.997557357E-3,5.622863770E-3,1.225627758E-2
2.488099389E0,8.294373751E-3,1.874527894E-2,3.203392029E-3,2.074714050E-2
2.492848035E0,-1.553714275E-2,9.113525972E-3,-8.693695068E-3,2.000098734E-2
2.497596681E0,-1.065169275E-2,-1.239445619E-2,8.754730225E-4,1.636604887E-2
2.502345327E0,-1.115858555E-3,-2.802113071E-3,-1.100254059E-2,1.140845640E-2
2.507093920E0,1.218155026E-3,-9.880615398E-3,5.709648132E-3,1.147652143E-2
2.511842566E0,8.309602737E-3,-1.458315272E-2,1.515769958E-2,2.261578426E-2
2.516591212E0,3.471210599E-3,-2.156347781E-2,-1.586914062E-3,2.189865692E-2
2.521339858E0,5.824103951E-3,-2.398135141E-3,8.010864258E-4,6.349250227E-3
2.526088452E0,-1.396387815E-3,-1.428501215E-2,3.169059753E-3,1.469878943E-2
2.530837097E0,-1.377001405E-3,1.191307977E-2,1.501274109E-2,1.921457773E-2
2.535585743E0,1.048436761E-2,-1.221001148E-4,1.014137268E-2,1.458712831E-2
2.540334389E0,-1.093408465E-2,2.188356593E-3,1.005649567E-2,1.501586551E-2
2.545082983E0,1.050351560E-2,2.162126824E-3,-4.271507263E-3,1.154315410E-2
2.549831629E0,-8.569538593E-3,-9.762752801E-3,1.475620270E-2,1.965944689E-2
2.554580275E0,3.380298615E-3,-7.343370467E-3,2.763748169E-3,8.543407545E-3
2.559328920E0,-8.510947227E-3,2.206880599E-3,-6.754875183E-3,1.108760044E-2
2.564077566E0,-1.795744896E-2,-7.373267785E-3,1.466846466E-2,2.433102765E-2
2.568826160E0,-1.209706068E-3,4.551379010E-3,7.424354553E-3,8.792012295E-3
2.573574806E0,-8.371502161E-3,1.168507524E-2,-6.879806519E-3,1.593595838E-2
2.578323452E0,-1.069672406E-2,-5.039332435E-3,-1.394557953E-2,1.828370765E-2
2.583072097E0,-1.065701246E-2,1.862180419E-2,-1.957893372E-3,2.154476392E-2
2.587820691E0,1.281529665E-3,1.783335581E-3,-1.940727234E-3,2.930704058E-3
2.592569337E0,-5.844056606E-3,6.510147825E-3,-9.046554565E-3,1.258471978E-2
2.597317983E0,-1.053601503E-2,1.357126050E-2,-8.971214294E-3,1.938219312E-2
2.602066629E0,8.552625775E-3,2.529278770E-2,-1.773834229E-3,2.675853145E-2
2.606815222E0,6.114885211E-3,-3.386711702E-3,1.011180878E-2,1.229269352E-2
2.611563868E0,-5.827754736E-3,-1.043129712E-2,1.002788544E-2,1.559914008E-2
2.616312514E0,6.099298596E-3,8.640820161E-3,4.482269287E-4,1.058612884E-2
2.621061160E0,-5.843132734E-3,-5.712656304E-3,-6.677627563E-3,1.055307311E-2
2.625809806E0,-1.534029841E-2,-8.970759809E-4,5.249023438E-3,1.623828032E-2
2.630558400E0,-8.110806346E-3,3.850245848E-3,7.578849792E-3,1.174940581E-2
2.635307045E0,-1.281234622E-2,-3.420478478E-2,2.768516541E-3,3.663042726E-2
2.640055691E0,6.266817451E-3,-3.092860803E-3,9.867668152E-3,1.209171881E-2
2.644804337E0,-1.282808185E-2,3.990648314E-3,9.786605835E-3,1.662114953E-2
2.649552931E0,6.251141429E-3,1.107184403E-2,4.956245422E-3,1.364649655E-2
2.654301577E0,-5.692556500E-3,-3.273302689E-3,-2.207756042E-3,6.927762752E-3
2.659050222E0,6.233245134E-3,6.214898080E-3,-2.189636230E-3,9.070436035E-3
2.663798868E0,-9.619891644E-4,-3.398651257E-3,-4.544258118E-3,5.755565599E-3
2.668547462E0,-1.284554601E-2,8.549589664E-3,-2.132415771E-3,1.557725048E-2
2.673296108E0,-8.886307478E-4,3.722053021E-3,1.212978363E-2,1.271907993E-2
2.678044754E0,1.337133348E-2,6.029060110E-3,1.440238953E-2,2.055653057E-2
2.682793400E0,-1.005917788E-3,8.374018595E-3,4.786491394E-3,9.697760457E-3
2.687542045E0,-5.766764283E-3,8.325286210E-3,-2.375602722E-3,1.040237709E-2
2.692290639E0,1.087942719E-2,1.056534611E-2,4.767417908E-3,1.589706728E-2
2.697039285E0,-1.131415367E-3,1.759175025E-2,-1.907348633E-5,1.762810657E-2
2.701787931E0,-1.114323735E-3,2.218591236E-2,-7.141113281E-3,2.333349359E-2
2.706536577E0,1.305371523E-3,-1.599287614E-2,4.005432129E-5,1.604611126E-2
2.711285170E0,-1.294270158E-2,-1.117601432E-2,4.787445068E-3,1.775771524E-2
2.716033816E0,-1.522985101E-2,-2.536435053E-2,7.121086121E-3,3.043038789E-2
2.720782462E0,-9.074807167E-4,-1.085891016E-2,-7.181167603E-3,1.305023445E-2
2.725531108E0,3.798961639E-3,1.065738499E-3,-1.424312592E-2,1.477953125E-2
2.730279754E0,-1.001924276E-3,-1.800103672E-2,-1.174926758E-2,2.151944385E-2
2.735028347E0,-5.734205246E-3,-1.296700910E-3,-6.901741028E-3,9.066232529E-3
2.739776993E0,1.803416014E-2,-2.031520195E-2,-1.159381866E-2,2.953565631E-2
2.744525639E0,1.272484660E-3,-2.484456822E-2,-1.624488831E-2,2.971141504E-2
2.749274285E0,1.548592746E-2,3.815665841E-3,5.102157593E-4,1.595724210E-2
2.754022879E0,2.486114204E-2,-3.374697641E-3,5.064010620E-4,2.509425053E-2
2.758771525E0,1.513631642E-2,1.395102590E-3,9.998321533E-3,1.819397756E-2
2.763520170E0,-6.378084421E-3,3.778673708E-3,5.166053772E-3,9.035842377E-3
2.768268816E0,3.122165799E-3,-2.243315056E-2,-6.746292114E-3,2.363274467E-2
2.773017410E0,-1.351526380E-2,1.488195732E-3,5.179405212E-3,1.455002819E-2
2.777766056E0,-3.927037120E-3,1.099389605E-2,1.463222504E-2,1.871869067E-2
2.782514702E0,-8.692175150E-3,-3.378270194E-3,5.015373230E-3,1.058870091E-2
2.787263347E0,5.632817745E-3,-2.000527643E-2,9.721755981E-3,2.294454750E-2
2.792011941E0,8.738934994E-4,-1.747241244E-2,-4.604339600E-3,1.809002016E-2
2.796760587E0,8.457601070E-4,1.115497202E-2,9.678840637E-3,1.479285865E-2
2.801509233E0,-6.304666400E-3,-8.448492736E-4,4.849433899E-3,7.998724764E-3
2.806257879E0,-2.526614070E-2,-8.458029479E-4,-1.181030273E-2,2.790298370E-2
2.811006472E0,5.815997720E-3,3.902005032E-3,1.602172852E-4,7.005507999E-3
2.815755118E0,5.746677518E-3,-1.038339362E-2,-6.963729858E-3,1.375982191E-2
2.820503764E0,-6.221517920E-3,1.340894587E-2,-4.530906677E-3,1.546079655E-2
2.825252410E0,-1.334165037E-2,-1.994794048E-2,-4.491806030E-3,2.441508315E-2
2.830001004E0,-3.754869103E-3,-7.956027985E-4,-2.107334137E-2,2.142003133E-2
2.834749650E0,2.474527061E-2,1.582252607E-2,-1.140213013E-2,3.150697256E-2
2.839498295E0,1.027332246E-2,-3.310507163E-3,-8.932113647E-3,1.401011300E-2
2.844246941E0,7.764115930E-3,-1.281609386E-2,-1.360511780E-2,2.023939200E-2
2.848995587E0,-1.371739805E-2,-1.986785792E-2,-6.367683411E-3,2.496890425E-2
2.853744181E0,-6.530165672E-3,1.657502726E-3,1.030445099E-2,1.231146170E-2
2.858492827E0,-1.359042525E-2,-7.860897109E-3,7.843971252E-3,1.755053409E-2
2.863241472E0,-1.346942782E-2,1.362111419E-2,5.404472351E-3,1.990398350E-2
2.867990118E0,5.615130067E-3,1.827649586E-2,-1.762390137E-3,1.920067722E-2
2.872738712E0,8.276402950E-4,-1.752368920E-2,7.748603821E-3,1.917825677E-2
2.877487358E0,-1.104231179E-2,6.356282160E-3,2.936363220E-3,1.307506029E-2
2.882236004E0,3.302335739E-3,-1.272644848E-2,-6.584167480E-3,1.470439300E-2
2.886984650E0,-3.868475556E-3,1.105592027E-2,-1.602554321E-2,1.984984916E-2
2.891733295E0,-6.231248379E-3,-9.435303509E-4,-4.021644592E-3,7.476117382E-3
2.896481889E0,-1.332259178E-2,-9.436625987E-4,1.737976074E-2,2.191889674E-2
2.901230535E0,-8.512794971E-3,1.802126318E-2,6.170272827E-4,1.994026899E-2
2.905979181E0,-3.743052483E-3,8.366957307E-3,5.360603333E-3,1.061849728E-2
2.910727827E0,-3.789812326E-3,-8.387427777E-3,2.943038940E-3,9.662975752E-3
2.915476420E0,1.049433649E-2,1.171523705E-3,-1.132678986E-2,1.548546850E-2
2.920225066E0,-1.456275582E-3,-2.736367658E-2,-6.483078003E-3,2.815886778E-2
2.924973712E0,5.685910583E-3,-1.027096063E-3,-4.055023193E-3,7.058875163E-3
2.929722358E0,1.511418819E-2,-1.052266546E-2,5.475044250E-3,1.921304980E-2
2.934470952E0,-1.651734114E-3,-8.011193946E-3,3.055572510E-3,8.731779738E-3
2.939219597E0,-1.658827066E-3,-2.457146533E-2,5.403518677E-3,2.521322331E-2
2.943968243E0,7.859259844E-3,4.144122824E-3,-6.511688232E-3,1.101561632E-2
2.948716889E0,7.772982121E-3,-1.008658111E-2,-6.457328796E-3,1.427779621E-2
2.953465483E0,5.341738462E-3,-7.607327774E-3,7.190704346E-4,9.323232699E-3
2.958214129E0,-8.911550045E-3,-1.707572676E-2,2.207851410E-2,2.929943606E-2
2.962962775E0,-8.829623461E-3,1.154880971E-2,5.273818970E-4,1.454700614E-2
2.967711420E0,1.496459544E-2,4.293544218E-3,5.226135254E-4,1.557712308E-2
2.972460066E0,7.667884231E-3,1.377586275E-2,1.713848114E-2,2.328730081E-2
2.977208660E0,-1.610130072E-2,-7.684754208E-3,1.224517822E-2,2.163912479E-2
2.981957306E0,-1.771673560E-3,-1.944227703E-2,-2.099990845E-3,1.963545072E-2
2.986705952E0,5.373284221E-3,-2.643928491E-2,2.666473389E-3,2.711121631E-2
2.991454545E0,7.681727409E-3,-1.198160648E-2,-9.226799011E-3,1.696177025E-2
2.996203191E0,-1.139637828E-2,2.375151031E-2,7.468223572E-3,2.738222130E-2
3.000951837E0,-4.199907184E-3,1.167530566E-2,1.215457916E-2,1.736910410E-2
3.005700483E0,5.625337362E-4,1.154142991E-2,-1.881027222E-2,2.207594595E-2
3.010449129E0,2.882570028E-3,1.883491874E-3,-4.406929016E-3,5.592653660E-3
3.015197722E0,2.809122205E-3,-5.291232839E-3,-1.995086670E-3,6.314165292E-3
3.019946368E0,-1.150859892E-2,1.373804733E-2,1.226711273E-2,2.171782329E-2
3.024695014E0,9.905204177E-3,1.601830497E-2,2.669334412E-3,1.902168526E-2
3.029443660E0,-2.068936825E-3,6.380228326E-3,2.647399902E-3,7.210862592E-3
3.034192254E0,3.014653921E-4,1.341383904E-2,-9.245872498E-3,1.629441983E-2
3.038940900E0,-2.346344292E-2,1.094896346E-2,-4.420280457E-3,2.626693423E-2
3.043689545E0,4.813820124E-4,-3.338450566E-3,-4.383087158E-3,5.530681139E-3
3.048438191E0,-2.331353724E-2,-1.038389839E-2,-1.384258270E-2,2.903383303E-2
3.053186785E0,-1.772850752E-3,-5.499435589E-3,1.476192474E-2,1.585248289E-2
3.057935431E0,6.238073111E-4,-7.133055478E-4,-1.979827881E-3,2.194916582E-3
3.062684077E0,5.977600813E-4,-7.439441979E-4,-1.383399963E-2,1.386687838E-2
3.067432722E0,-4.205018282E-3,-7.738675922E-4,-8.969306946E-3,9.936272787E-3
3.072181316E0,2.902910113E-3,-5.494207144E-3,2.977371216E-3,6.890423690E-3
3.076929962E0,2.886325121E-3,-6.786137819E-4,7.699966431E-3,8.251113404E-3
3.081678608E0,2.423727512E-2,1.124741696E-2,1.475811005E-2,3.052460820E-2
3.086427254E0,-1.156909764E-2,1.589352638E-2,1.463508606E-2,2.450783436E-2
3.091175847E0,2.779856324E-3,-8.045107126E-3,1.213932037E-2,1.482614073E-2
3.095924493E0,3.617554903E-4,8.689688519E-3,1.678752899E-2,1.890668356E-2
3.100673139E0,3.664046526E-4,1.573218219E-2,4.776000977E-3,1.644524230E-2
3.105421785E0,-2.577312291E-2,1.796723157E-2,-2.386093140E-3,3.150823250E-2
3.110170431E0,-1.848532259E-2,1.219060272E-3,1.187896729E-2,2.200688808E-2
3.114919025E0,-1.122960448E-2,-8.296145126E-3,1.652908325E-2,2.163655781E-2
3.119667670E0,7.137656212E-4,5.981750786E-3,-2.279281616E-4,6.028495258E-3
3.124416316E0,-1.715898514E-3,-8.320059627E-3,6.896018982E-3,1.094179043E-2
3.129164962E0,-8.844971657E-3,-1.107230783E-3,1.158714294E-2,1.461921220E-2
3.133913556E0,-1.351179183E-2,5.959266797E-3,9.117126465E-3,1.735521173E-2
3.138662202E0,5.601719022E-3,1.124728471E-3,6.666183472E-3,8.779651030E-3
3.143410847E0,1.265643537E-2,5.885619670E-3,-5.102157593E-4,1.396732599E-2
3.148159493E0,3.061965108E-3,1.052612439E-3,1.136398315E-2,1.181624883E-2
3.152908087E0,1.494352520E-2,-2.507978305E-2,1.771926880E-3,2.924797750E-2
3.157656733E0,1.954637468E-2,-1.063343324E-2,4.131317139E-3,2.263180167E-2
3.162405379E0,-4.407495260E-3,6.066676229E-3,-6.494522095E-4,7.526776409E-3
3.167154025E0,5.104899406E-3,1.078546979E-2,-5.392074585E-3,1.309430505E-2
3.171902618E0,2.403461933E-2,1.071664318E-2,6.523132324E-3,2.711200145E-2
3.176651264E0,-7.050529122E-3,3.525946289E-3,-6.523132324E-4,7.909979184E-3
3.181399910E0,-4.609942436E-3,-6.036156788E-3,4.100799561E-3,8.631530286E-3
3.186148556E0,-2.355711162E-2,8.251959458E-3,6.440162659E-3,2.577805342E-2
3.190897150E0,9.884938598E-3,2.485186979E-2,8.761405945E-3,2.814408779E-2
3.195645795E0,-1.395961642E-2,-3.882512450E-3,-8.077621460E-4,1.451197000E-2
3.200394441E0,1.228015125E-2,1.982568204E-2,-3.175735474E-3,2.353603788E-2
3.205143087E0,1.453110576E-2,1.724973693E-2,1.109504700E-2,2.513576191E-2
3.209891733E0,2.154012024E-2,9.976008907E-3,8.628845215E-3,2.525776125E-2
3.214640327E0,-2.401858568E-3,1.700824499E-2,-1.043605804E-2,2.009877185E-2
3.219388972E0,-4.805430770E-3,1.451295428E-2,-1.272296906E-2,1.988949342E-2
3.224137618E0,-6.660819054E-5,1.675862446E-2,1.629829407E-3,1.683782274E-2
3.228886264E0,2.287179232E-3,2.616520412E-2,1.348590851E-2,2.952488482E-2
3.233634858E0,1.174387336E-2,1.409701258E-2,6.251335144E-3,1.938358884E-2
3.238383504E0,-9.713664651E-3,1.872029342E-2,-8.044242859E-3,2.257242809E-2
3.243132150E0,-4.905253649E-3,2.095903456E-2,2.288627625E-2,3.141853408E-2
3.247880795E0,-2.539664507E-3,2.315052599E-2,1.794815063E-2,2.940293966E-2
3.252629389E0,-1.365989447E-4,1.105027087E-2,1.179695129E-3,1.111390238E-2
3.257378035E0,-1.563876867E-4,-3.294236958E-3,1.303958893E-2,1.345017969E-2
3.262126681E0,1.169483364E-2,-1.277137734E-2,2.242851257E-2,2.833576167E-2
3.266875327E0,9.230986238E-3,1.571938396E-3,1.986694336E-2,2.196309486E-2
3.271623920E0,1.147869229E-2,6.328189746E-3,3.083229065E-3,1.346523909E-2
3.276372566E0,-2.882778645E-3,1.491028816E-3,5.431175232E-3,6.327024897E-3
3.281121212E0,8.991077542E-3,1.328461990E-2,2.912807465E-2,3.325304999E-2
3.285869858E0,6.578102708E-3,-9.918026626E-4,2.888393402E-2,2.964012065E-2
3.290618452E0,1.837311685E-2,1.559936628E-2,-2.219200134E-3,2.420405958E-2
3.295367097E0,1.345087588E-2,1.068447717E-2,-9.323120117E-3,1.954494008E-2
3.300115743E0,-9.269416332E-4,1.290440373E-2,-2.121925354E-3,1.311050814E-2
3.304864389E0,1.462697983E-3,2.225686423E-2,2.698898315E-4,2.230650872E-2
3.309612983E0,1.092617214E-2,1.016451605E-2,5.015373230E-3,1.574333486E-2
3.314361629E0,-5.776405334E-3,-4.228867590E-3,-1.164436340E-2,1.366899333E-2
3.319110275E0,-1.058086753E-3,2.835497260E-3,5.072593689E-3,5.906843406E-3
3.323858920E0,-2.246616781E-2,-1.943498850E-3,9.779930115E-3,2.457952231E-2
3.328607514E0,-3.335297108E-3,2.420938015E-2,1.207351685E-2,2.725780811E-2
3.333356160E0,-1.997604966E-2,2.162594907E-2,-1.176643372E-2,3.170446649E-2
3.338104806E0,-3.211483359E-3,2.381234244E-2,9.698867798E-3,2.591156719E-2
3.342853452E0,-8.027255535E-4,1.416603848E-2,1.911544800E-2,2.380591033E-2
3.347602045E0,-1.031346619E-2,1.169443130E-2,7.085800171E-3,1.712705090E-2
3.352350691E0,-1.265099645E-2,1.627961546E-2,-4.842758179E-3,2.117843000E-2
3.357099337E0,-5.443975329E-3,2.800669335E-2,7.068634033E-3,2.939349123E-2
3.361847983E0,4.105836153E-3,1.111720875E-2,1.650714874E-2,2.032083120E-2
3.366596629E0,-7.762864232E-3,1.101702638E-2,-2.508163452E-4,1.347960831E-2
3.371345222E0,6.468608975E-3,1.566597261E-2,-4.996299744E-3,1.766999182E-2
3.376093868E0,1.616984606E-3,2.030431665E-2,1.641368866E-2,2.615891988E-2
3.380842514E0,1.585598290E-2,2.247359231E-2,9.153366089E-3,2.898721539E-2
3.385591108E0,-5.635827780E-3,1.518492214E-2,1.955032349E-3,1.631461206E-2
3.390339754E0,1.512661576E-3,1.739639975E-2,-5.183219910E-3,1.821506624E-2
3.395088400E0,8.601576090E-3,7.661510259E-3,1.622867584E-2,1.990114997E-2
3.399837045E0,3.817766905E-3,1.228169911E-2,1.609325409E-2,2.060117240E-2
3.404585691E0,-8.077040315E-3,5.048906431E-3,8.835792542E-3,1.299235414E-2
3.409334285E0,8.588314056E-3,-4.496831447E-3,-7.856369019E-3,1.247810745E-2
3.414082931E0,-1.029372215E-3,9.749393910E-3,6.454467773E-3,1.173756546E-2
3.418831577E0,6.109327078E-3,1.440890320E-2,3.014183044E-2,3.396277832E-2
3.423580222E0,-5.833148956E-3,9.561132640E-3,8.522987366E-3,1.407416775E-2
3.428328816E0,1.553337276E-2,4.753755406E-3,-1.291370392E-2,2.075205071E-2
3.433077462E0,-1.264557242E-3,1.420272887E-2,1.331138611E-2,1.950665559E-2
3.437826108E0,-1.314567029E-2,1.410543546E-2,1.082515717E-2,2.211234914E-2
3.442574754E0,8.338779211E-3,1.638356969E-2,1.548480988E-2,2.403613803E-2
3.447323347E0,1.097232103E-3,1.149167493E-2,-1.788139343E-2,2.128395504E-2
3.452071993E0,5.815640092E-3,1.610714197E-2,2.262878418E-2,2.837822344E-2
3.456820639E0,8.177682757E-3,4.094175994E-3,1.294326782E-2,1.584818457E-2
3.461569285E0,5.800157785E-3,-1.022050157E-2,1.995658875E-2,2.315957506E-2
3.466317879E0,9.825229645E-4,-6.172154099E-4,-1.577377319E-3,1.958168901E-3
3.471066525E0,5.673006177E-3,-2.993289381E-3,1.268196106E-2,1.421178795E-2
3.475815170E0,1.518720388E-2,4.203759134E-3,3.077507019E-3,1.605595846E-2
3.480563816E0,1.744237542E-2,1.365824416E-2,1.492404938E-2,2.671163312E-2
3.485312410E0,-4.119768739E-3,4.011236131E-3,-4.192352295E-3,7.116061237E-3
3.490061056E0,-8.940264583E-3,-7.930003107E-3,2.965927124E-3,1.231300141E-2
3.494809702E0,-1.764148474E-3,-3.095027059E-3,7.689476013E-3,8.474635903E-3
3.499558347E0,-1.770377159E-3,4.045672715E-3,5.251884460E-3,6.861777713E-3
3.504306941E0,-6.610736251E-3,1.822117344E-2,4.615783691E-4,1.938881249E-2
3.509055587E0,-1.610176265E-2,2.040734142E-2,2.420043945E-2,3.551601912E-2
3.513804233E0,3.004744649E-3,3.207142279E-2,7.379531860E-3,3.304636350E-2
3.518552879E0,-1.789420843E-3,1.760846376E-2,1.955032349E-4,1.770023290E-2
3.523301472E0,-1.838585734E-2,5.583446473E-3,-1.879882812E-2,2.688141670E-2
3.528050118E0,6.825178862E-4,3.126170486E-3,1.222324371E-2,1.263512800E-2
3.532798764E0,5.432888865E-3,3.034915775E-3,1.449489594E-2,1.577431467E-2
3.537547410E0,-1.362638175E-2,-1.689473167E-3,1.287460327E-4,1.373132094E-2
3.542296004E0,-1.831047237E-2,-1.683866605E-3,2.502441406E-3,1.855723627E-2
3.547044650E0,5.562767386E-3,1.491260156E-2,1.910209656E-2,2.486403345E-2
3.551793295E0,-3.943800926E-3,5.255129188E-3,2.131652832E-2,2.230615001E-2
3.556541941E0,-1.577398181E-2,-4.235588014E-3,-4.976272583E-3,1.707401525E-2
3.561290535E0,-1.475885510E-3,-1.370395534E-2,2.187728882E-3,1.395574389E-2
3.566039181E0,8.609443903E-4,6.766654551E-4,2.353858948E-2,2.356404668E-2
3.570787827E0,-6.289690733E-3,-1.681594178E-3,4.349708557E-3,7.829938252E-3
3.575536472E0,-3.855362535E-3,3.072712570E-3,-4.348754883E-4,4.949191803E-3
3.580285066E0,9.329319000E-4,-1.738263294E-3,1.942634583E-3,2.768709145E-3
3.585033712E0,-3.844067454E-3,6.428323686E-4,2.092075348E-2,2.128069581E-2
3.589782358E0,2.231127024E-2,-6.463903934E-3,1.837253571E-2,2.961629453E-2
3.594531004E0,1.026247442E-2,5.480829626E-3,6.347656250E-3,1.325332466E-2
3.599279597E0,-8.837059140E-3,2.676588669E-2,-2.219390869E-2,3.587583989E-2
3.604028243E0,-1.593545079E-2,-6.673704833E-3,1.360416412E-2,2.198977512E-2
3.608776889E0,-6.280913949E-3,2.193293348E-2,1.586341858E-2,2.778761415E-2
3.613525535E0,-3.857672215E-3,2.178187296E-2,-5.635261536E-3,2.282734757E-2
3.618274129E0,-1.483231783E-3,2.160346881E-2,-1.270961761E-2,2.510864833E-2
3.623022775E0,1.039673388E-2,1.673500240E-2,1.113796234E-2,2.263198148E-2
3.627771420E0,-1.106040180E-2,1.900094002E-2,3.921508789E-3,2.233263175E-2
3.632520066E0,-1.803679764E-2,-1.442050003E-2,-7.983207703E-3,2.443375729E-2
3.637268660E0,-1.076729596E-2,-1.195167005E-2,-5.541801453E-3,1.701436577E-2
3.642017306E0,-5.961209536E-3,2.367790788E-3,1.349830627E-2,1.494478921E-2
3.646765952E0,-8.260443807E-3,4.725780338E-3,3.475379944E-2,3.603324170E-2
3.651514597E0,-1.291452348E-2,9.466413409E-3,3.598213196E-3,1.641173476E-2
3.656263191E0,8.557185531E-3,-1.678219438E-2,-2.492141724E-2,3.124011058E-2
3.661011837E0,1.323083043E-2,1.659930497E-2,2.989196777E-2,3.666226312E-2
3.665760483E0,-5.875840783E-3,2.598928660E-2,4.388809204E-2,5.134328725E-2
3.670509129E0,-1.767225564E-2,-3.398023546E-4,2.215480804E-2,2.834183488E-2
3.675257722E0,-3.311946988E-3,-3.338567913E-4,6.036758423E-4,3.383027894E-3
3.680006368E0,-3.316402435E-3,1.151509583E-2,1.247119904E-2,1.729528151E-2
3.684755014E0,-1.044316590E-2,4.328876734E-3,1.236724854E-2,1.675552816E-2
3.689503660E0,-1.273371279E-2,4.354055971E-3,2.413368225E-2,2.763222510E-2
3.694252254E0,-1.737913489E-2,-2.416888624E-2,4.939079285E-3,3.017555130E-2
3.699000900E0,-5.366802216E-3,-7.345329970E-3,9.647369385E-3,1.326002166E-2
3.703749545E0,6.516709924E-3,-1.446020044E-2,3.093338013E-2,3.476260795E-2
3.708498191E0,-2.203059196E-2,-9.588286281E-3,4.560470581E-3,2.445567640E-2
3.713246785E0,1.919731498E-3,-4.727900028E-3,-4.974365234E-3,7.126199351E-3
3.717995431E0,-2.819195390E-3,-4.713993520E-3,2.355575562E-2,2.418766670E-2
3.722744077E0,6.754964590E-3,9.515609592E-3,3.048038483E-2,3.263786500E-2
3.727492722E0,-9.894996881E-3,-4.834070802E-3,-1.488113403E-2,1.851289696E-2
3.732241316E0,-1.218990982E-2,-2.375524864E-2,1.610660553E-2,3.118218210E-2
3.736989962E0,-9.746059775E-3,-6.906531751E-3,1.122379303E-2,1.639083256E-2
3.741738608E0,4.576906562E-3,5.053021014E-3,3.249835968E-2,3.320578981E-2
3.746487254E0,6.938278675E-3,-2.079805359E-3,8.484840393E-3,1.115606641E-2
3.751235847E0,-2.155531943E-2,7.465843111E-3,-1.058101654E-2,2.514614324E-2
3.755984493E0,-2.378171682E-2,-9.240906686E-3,-1.049232483E-2,2.758719434E-2
3.760733139E0,1.545995474E-4,2.710416913E-3,3.839492798E-3,4.702336207E-3
3.765481785E0,-1.403757930E-2,2.633724362E-3,8.556365967E-3,1.664937041E-2
3.770230379E0,-6.744310260E-3,-1.400368474E-2,-5.761146545E-3,1.657648083E-2
3.774979025E0,-1.149694622E-2,-2.097724378E-2,6.157875061E-3,2.470109217E-2
3.779727670E0,2.783268690E-3,-8.928574622E-3,6.107330322E-3,1.116984839E-2
3.784476316E0,-9.085401893E-3,-1.125335321E-2,1.792812347E-2,2.303475846E-2
3.789224910E0,-6.667405367E-3,-8.753698319E-3,5.907058716E-3,1.248899000E-2
3.793973556E0,-2.091728151E-2,-1.585684344E-2,2.722644806E-2,3.781866766E-2
3.798722202E0,2.995252609E-3,3.214370459E-3,1.750373840E-2,1.804673305E-2
3.803470795E0,1.246362925E-2,-2.529907227E-2,5.534458160E-2,6.211608346E-2
3.808219441E0,-1.378773153E-2,1.087725163E-3,3.114223480E-2,3.407526192E-2
3.812968087E0,-2.082715929E-2,1.532666758E-2,4.275321960E-2,4.996513874E-2
3.817716733E0,3.027290106E-3,-1.574724913E-2,5.426979065E-2,5.658931452E-2
3.822465327E0,-1.362031698E-2,-1.338945702E-3,5.856513977E-2,6.014300796E-2
3.827213972E0,-1.667961478E-3,-8.389871567E-3,8.419227600E-2,8.462571346E-2
3.831962618E0,-1.830504835E-2,-5.970850587E-3,9.536266327E-2,9.728701556E-2
3.836711264E0,-1.109066606E-2,-3.209039196E-2,1.586713791E-1,1.622633744E-1
3.841459858E0,-1.577843726E-2,-5.790106952E-3,2.190790176E-1,2.197227808E-1
3.846208504E0,-1.811014116E-2,1.791638881E-2,3.122205734E-1,3.132581374E-1
3.850957150E0,-4.181861877E-2,8.102234453E-3,4.948043823E-1,4.966344932E-1
3.855705795E0,-2.983194590E-2,2.920506150E-2,6.473808289E-1,6.487255338E-1
3.860454389E0,-1.313938200E-2,2.410093322E-2,8.200492859E-1,8.205085799E-1
3.865203035E0,1.774471998E-2,2.147169039E-2,9.105577469E-1,9.109837095E-1
3.869951681E0,5.077403784E-2,-3.330859542E-2,9.267120361E-1,9.286994473E-1
3.874700327E0,6.931200624E-2,-4.249529541E-2,8.762550354E-1,8.800186881E-1
3.879448920E0,8.534999192E-2,-5.869864672E-2,8.831987381E-1,8.892525869E-1
3.884197566E0,7.759916782E-2,-7.954399288E-2,8.615913391E-1,8.687281009E-1
3.888946212E0,6.985569000E-2,-5.513697118E-2,8.449153900E-1,8.495892651E-1
3.893694858E0,6.924155354E-2,-1.671727747E-2,8.521203995E-1,8.550924133E-1
3.898443452E0,3.064613044E-2,1.179913431E-2,9.162435532E-1,9.168318568E-1
3.903192097E0,1.379729807E-2,3.544542938E-2,9.679622650E-1,9.687092910E-1
3.907940743E0,-5.256503820E-3,3.034759685E-2,9.765138626E-1,9.769994531E-1
3.912689337E0,-1.946087182E-2,3.722029552E-2,9.826211929E-1,9.835184211E-1
3.917437983E0,4.439473152E-3,3.675200045E-3,9.744329453E-1,9.744499889E-1
3.922186629E0,2.588231862E-2,-3.184868768E-2,8.855905533E-1,8.865409530E-1
3.926935275E0,1.859892905E-2,-4.819963500E-2,7.951145172E-1,7.967912025E-1
3.931683868E0,2.324692905E-2,-5.011097714E-2,6.745281219E-1,6.767863156E-1
3.936432514E0,3.503668308E-2,-2.591974288E-2,6.119251251E-1,6.134751511E-1
3.941181160E0,8.712932467E-3,-5.656497926E-2,5.925798416E-1,5.953371992E-1
3.945929806E0,-8.594840765E-4,-5.606187880E-2,5.544033051E-1,5.572312784E-1
3.950678400E0,-1.987786591E-2,-4.846908897E-2,5.640296936E-1,5.664573041E-1
3.955427045E0,4.025861621E-3,-4.565833509E-2,6.044378281E-1,6.061732253E-1
3.960175691E0,-2.681666613E-2,-3.328809142E-2,6.397609711E-1,6.411874381E-1
3.964924337E0,-7.574141026E-3,1.925235614E-2,5.275917053E-1,5.279971859E-1
3.969672931E0,2.806894481E-2,7.194301113E-3,5.065765381E-1,5.074045847E-1
3.974421577E0,2.539940178E-2,1.185622253E-2,4.430027008E-1,4.438886038E-1
3.979170222E0,2.521364391E-2,3.550160676E-2,3.775825500E-1,3.800850879E-1
3.983918868E0,3.632783890E-3,1.624535024E-2,2.984638214E-1,2.989276856E-1
3.988667462E0,-2.017150819E-2,-5.345623940E-4,3.030996323E-1,3.037705756E-1
3.993416108E0,-8.136093616E-3,-1.477135159E-2,2.293500900E-1,2.299692428E-1
3.998164754E0,1.424968243E-3,-2.176752687E-2,2.393083572E-1,2.403005318E-1
4.002913400E0,-4.616059363E-2,-5.959895998E-2,1.684656143E-1,1.845629964E-1
4.007661993E0,-4.818256199E-2,-5.197668076E-2,1.670627594E-1,1.814747922E-1
4.012410639E0,-2.647536993E-2,-2.307976410E-2,1.395559311E-1,1.439078824E-1
4.017159285E0,-1.204235852E-2,8.572246879E-4,1.170272827E-1,1.176483665E-1
4.021907879E0,-4.280924052E-2,1.037902758E-2,3.533077240E-2,5.646785604E-2
4.026656525E0,-3.064335883E-2,5.294236913E-2,6.590080261E-2,8.991565867E-2
4.031405170E0,-4.275709391E-3,5.484932289E-2,6.060409546E-2,8.185100059E-2
4.036153816E0,-6.646737456E-3,6.864031404E-2,5.535125732E-2,8.842756085E-2
4.040902410E0,-2.086873353E-2,1.818519831E-2,1.690387726E-2,3.243372539E-2
4.045651056E0,-1.363416016E-2,1.085648499E-2,3.575801849E-2,3.977925937E-2
4.050399702E0,3.633314371E-2,-1.062685996E-2,3.071117401E-2,4.874631980E-2
4.055148347E0,3.599794209E-2,-1.522550918E-2,2.333164215E-2,4.551959457E-2
4.059896941E0,5.234293640E-2,-3.165657818E-2,-6.233215332E-2,8.733395256E-2
4.064645587E0,3.762935102E-2,-4.563448206E-2,-3.569602966E-2,6.908458978E-2
4.069394233E0,3.019000590E-2,-2.860279568E-2,-4.252052307E-2,5.947731718E-2
4.074142879E0,2.764850855E-2,-9.280525148E-3,-3.979396820E-2,4.933688354E-2
4.078891472E0,1.082500815E-2,-1.629373990E-2,-7.744979858E-2,7.988202590E-2
4.083640118E0,-5.916818976E-3,-6.628537551E-3,-8.392620087E-2,8.439522172E-2
4.088388764E0,-2.014489472E-2,1.479720883E-2,-4.761409760E-2,5.377617002E-2
4.093137358E0,-1.048368216E-2,2.747505903E-3,9.762763977E-3,1.458656713E-2
4.097886004E0,-4.363761097E-2,-4.424307495E-3,4.934310913E-3,4.413799964E-2
4.102634650E0,-1.719082892E-2,9.802263230E-3,5.949878693E-2,6.270338595E-2
4.107383295E0,-4.610568285E-4,2.162368037E-2,6.612491608E-2,6.957226928E-2
4.112131889E0,1.146855950E-2,3.577909991E-2,7.507133484E-2,8.394865789E-2
4.116880535E0,1.902341843E-3,4.648905247E-3,6.019973755E-2,6.040893664E-2
4.121629181E0,1.140885055E-2,6.958773360E-3,6.682014465E-2,6.814336453E-2
4.126377827E0,2.564290166E-2,9.336479008E-3,2.827548981E-2,3.929671194E-2
4.131126420E0,4.441899061E-2,-9.730858728E-3,7.789707184E-2,9.019806062E-2
4.135875066E0,2.505230904E-2,9.288212284E-3,5.825519562E-2,6.409022462E-2
4.140623712E0,-3.649652004E-3,-1.215286925E-2,1.408643723E-1,1.414347325E-1
4.145372358E0,-3.651857376E-3,-3.338608146E-2,1.444396973E-1,1.482929285E-1
4.150120952E0,-3.208531439E-2,-2.123394795E-2,1.764736176E-1,1.806191730E-1
4.154869597E0,-1.042482257E-2,-1.870840415E-2,1.465129852E-1,1.480700380E-1
4.159618243E0,-1.992562413E-2,-4.944150895E-2,2.236404419E-1,2.299055035E-1
4.164366837E0,-7.892161608E-3,-4.193308204E-2,2.051572800E-1,2.095475581E-1
4.169115483E0,-1.970037818E-2,-2.021359839E-2,2.248153687E-1,2.265803267E-1
4.173864129E0,-1.482062042E-2,-2.241517790E-2,1.968269348E-1,1.986527957E-1
4.178612775E0,8.982568979E-3,-1.750613376E-2,1.999359131E-1,2.009017685E-1
4.183361368E0,-1.249225438E-2,-1.263752952E-2,1.555366516E-1,1.565484384E-1
4.188110014E0,-1.951397955E-2,4.090471193E-3,1.613626480E-1,1.625897645E-1
4.192858660E0,-2.735823393E-3,-7.170252502E-4,1.576433182E-1,1.576686862E-1
4.197607306E0,-2.176807821E-2,-7.951240987E-4,2.061872482E-1,2.073346637E-1
4.202355900E0,-2.227425575E-4,-7.555950433E-4,2.234630585E-1,2.234644469E-1
4.207104545E0,-2.396568656E-2,2.777291276E-2,2.192268372E-1,2.222748185E-1
4.211853191E0,-4.279176146E-2,1.329977624E-2,2.150249481E-1,2.196445929E-1
4.216601785E0,-3.777807206E-2,1.785310172E-2,2.322292328E-1,2.359583280E-1
4.221350431E0,-1.615785062E-2,1.293041930E-2,2.255468369E-1,2.264942549E-1
4.226099077E0,-1.368173957E-2,9.263083339E-4,2.307901382E-1,2.311971798E-1
4.230847722E0,-1.362963021E-2,2.228911221E-2,1.813850403E-1,1.832569349E-1
4.235596316E0,7.759928703E-3,2.201963961E-2,2.154874802E-1,2.167485528E-1
4.240344962E0,2.662651241E-2,1.468760148E-2,2.184410095E-1,2.205474358E-1
4.245093608E0,2.159449458E-2,3.833870590E-2,2.189950943E-1,2.233719541E-1
4.249842254E0,1.666282117E-2,7.158949971E-3,1.696872711E-1,1.706536556E-1
4.254590847E0,1.649123430E-2,-4.767784849E-3,1.943902969E-1,1.951468168E-1
4.259339493E0,-2.393424511E-4,7.175657898E-3,1.903944016E-1,1.905297234E-1
4.264088139E0,-4.959762096E-3,-1.181503199E-2,2.244205475E-1,2.247860680E-1
4.268836785E0,-7.325321436E-3,-1.165427268E-2,1.845636368E-1,1.850762503E-1
4.273585379E0,-9.700506926E-3,-1.161213778E-2,1.996459961E-1,2.002185439E-1
4.278334025E0,6.966710091E-3,2.410004474E-2,2.074794769E-1,2.089906231E-1
4.283082670E0,6.875976920E-3,1.915411092E-2,2.318677902E-1,2.327591699E-1
4.287831264E0,-2.710610628E-3,-4.714451730E-3,2.014455795E-1,2.015189693E-1
4.292579910E0,3.051745892E-2,-1.885863766E-2,2.258825302E-1,2.287135347E-1
4.297328556E0,3.263394535E-2,-2.104308270E-2,1.931362152E-1,1.970009730E-1
4.302077202E0,5.132240057E-2,-5.401406437E-2,2.105207443E-1,2.233170207E-1
4.306825795E0,3.905005753E-2,-5.109899864E-2,1.541595459E-1,1.670364638E-1
4.311574441E0,2.210234106E-2,-7.206714153E-2,1.243848801E-1,1.454434074E-1
4.316323087E0,2.666312456E-2,-5.959264934E-2,1.660842896E-1,1.784550288E-1
4.321071733E0,1.702901721E-2,7.383769378E-3,1.765689850E-1,1.775418653E-1
4.325820327E0,-4.424974322E-3,1.216279902E-2,1.299896240E-1,1.306323713E-1
4.330568972E0,7.449850440E-3,2.628062852E-2,1.455259323E-1,1.480674464E-1
4.335317618E0,-9.205311537E-3,3.078421019E-2,1.965436935E-1,1.991527776E-1
4.340066264E0,-4.295513034E-3,4.474637657E-2,2.091503143E-1,2.139264912E-1
4.344814858E0,-1.370103657E-2,3.488104045E-2,1.670455933E-1,1.711976507E-1
4.349563504E0,-2.074228227E-2,3.453619778E-2,2.036418915E-1,2.075885623E-1
4.354312150E0,-2.060234547E-2,3.329820931E-3,1.687078476E-1,1.699937710E-1
4.359060743E0,-1.806001365E-2,3.306219354E-3,1.934175491E-1,1.942870132E-1
4.363809389E0,-5.983486772E-3,-3.948125616E-2,1.324501038E-1,1.383387209E-1
4.368558035E0,1.214727759E-3,-3.202565387E-2,1.313467026E-1,1.352001270E-1
4.373306681E0,-1.538842916E-2,-4.599998519E-2,9.938907623E-2,1.105938102E-1
4.378055275E0,6.103619933E-3,-3.371234983E-2,9.143829346E-2,9.764598414E-2
4.382803920E0,-8.195728064E-3,-1.440419070E-2,1.001720428E-1,1.015336833E-1
4.387552566E0,3.681033850E-3,-2.146176808E-2,7.084846497E-2,7.411924505E-2
4.392301160E0,3.617584705E-3,-3.315045685E-2,1.034965515E-1,1.087362676E-1
4.397049806E0,-5.883142352E-3,-4.439601675E-3,1.073827744E-1,1.076354108E-1
4.401798452E0,1.315572858E-2,-1.861485839E-2,1.088619232E-1,1.112227696E-1
4.406547097E0,-1.550589502E-2,4.483610392E-4,1.269493103E-1,1.278935542E-1
4.411295691E0,8.302494884E-3,1.703790389E-2,1.425113678E-1,1.437661697E-1
4.416044337E0,8.229956031E-3,9.776683524E-3,9.858798981E-2,9.941281332E-2
4.420792983E0,-1.792831719E-2,2.027694136E-4,6.215476990E-2,6.468911109E-2
4.425541629E0,-3.446026146E-2,-3.300387040E-2,-1.671028137E-2,5.055688464E-2
4.430290222E0,-5.557329953E-2,-2.328744903E-2,-1.419448853E-2,6.190460732E-2
4.435038868E0,-4.796172678E-2,5.400063470E-3,4.916191101E-3,4.851450151E-2
4.439787514E0,-6.652915478E-2,1.728789508E-2,1.912021637E-2,7.134831761E-2
4.444536108E0,-7.078535855E-2,1.236976497E-2,1.421356201E-2,7.325027928E-2
4.449284754E0,-3.699020296E-2,4.075967520E-2,2.596664429E-2,6.085961595E-2
4.454033400E0,-3.190755844E-2,7.603543997E-2,5.186557770E-2,9.741415999E-2
4.458782045E0,-2.692633867E-2,5.166446418E-2,2.294445038E-2,6.261543241E-2
4.463530639E0,1.353743672E-2,3.696281463E-2,2.987766266E-2,4.941848424E-2
4.468279285E0,1.814019680E-2,1.291605644E-2,6.761646271E-2,7.118902502E-2
4.473027931E0,3.460462391E-2,9.119119495E-4,1.097879410E-1,1.151160439E-1
4.477776577E0,4.858700931E-2,-2.514781058E-2,6.613731384E-2,8.583271016E-2
4.482525170E0,5.527181923E-2,-3.446154296E-2,5.134201050E-2,8.293716891E-2
4.487273816E0,6.667844951E-2,-6.028584391E-2,6.278610229E-2,1.096471306E-1
4.492022462E0,6.145951152E-2,-7.634037733E-2,5.276393890E-2,1.113065947E-1
4.496771056E0,5.156506598E-2,-7.086339593E-2,2.620601654E-2,9.147312291E-2
4.501519702E0,8.397266269E-3,-8.448462188E-2,-1.199817657E-2,8.574451386E-2
4.506268347E0,-1.538795233E-2,-4.576249421E-2,3.083610535E-2,5.728752347E-2
4.511016993E0,2.034913003E-2,-3.816711903E-2,6.856441498E-2,8.106722562E-2
4.515765587E0,-8.254736662E-3,2.397083677E-2,4.425048828E-2,5.099850396E-2
4.520514233E0,-2.480852604E-2,3.564644232E-2,2.251529694E-2,4.891901891E-2
4.525262879E0,-2.460521460E-2,2.576809935E-2,6.506252289E-2,7.417913058E-2
4.530011472E0,-6.915926933E-4,3.030533902E-2,8.826255798E-2,9.332293939E-2
4.534760118E0,1.124040782E-2,3.474584967E-2,1.207637787E-1,1.261646190E-1
4.539508764E0,6.453871727E-3,2.733800747E-2,5.803012848E-2,6.447103942E-2
4.544257410E0,-5.503624678E-3,1.524360292E-2,9.078502655E-2,9.222027087E-2
4.549006004E0,2.311706543E-2,-8.592227474E-3,8.290386200E-2,8.649436641E-2
4.553754650E0,-5.421280861E-3,-2.273330092E-2,1.098537445E-2,2.582385930E-2
4.558503295E0,-2.906198800E-2,-1.782182045E-2,-3.184127808E-2,4.664850930E-2
4.563251889E0,-7.485389709E-3,-3.906642646E-2,6.813907623E-2,7.889962259E-2
4.568000535E0,-7.396981120E-3,-2.455125004E-2,1.103057861E-1,1.132468351E-1
4.572749181E0,1.405803859E-2,-3.383956477E-2,1.117610931E-1,1.176149928E-1
4.577497827E0,-2.780258656E-4,-2.405682579E-2,7.046985626E-2,7.446347297E-2
4.582246420E0,-7.431134582E-3,-4.527848959E-2,9.124946594E-2,1.021363227E-1
4.586995066E0,2.111721039E-2,-1.403403375E-2,8.811569214E-2,9.169114395E-2
4.591743712E0,6.751880050E-3,-6.761470810E-3,8.975410461E-2,9.026131323E-2
4.596492306E0,1.144047081E-2,-9.046103805E-3,5.339527130E-2,5.535134473E-2
4.601240952E0,1.606057584E-2,-1.374529209E-2,7.906627655E-2,8.184345569E-2
4.605989597E0,1.357869804E-2,-1.122389734E-2,6.178760529E-2,6.425002007E-2
4.610738243E0,1.349171996E-2,-2.534301952E-2,7.789134979E-2,8.301420070E-2
4.615486837E0,-1.986208558E-2,-2.978890389E-2,4.163074493E-2,5.490901713E-2
4.620235483E0,-2.922594547E-2,3.759140149E-3,5.315399170E-2,6.077527340E-2
4.624984129E0,-5.549043417E-4,-1.285898220E-2,7.407951355E-2,7.518933215E-2
4.629732775E0,-5.241483450E-4,1.574116200E-2,7.583618164E-2,7.745440826E-2
4.634481368E0,-2.901291847E-2,-1.290607173E-2,-7.677078247E-4,3.176327283E-2
4.639230014E0,6.690204144E-3,1.326132566E-2,8.945941925E-2,9.068411814E-2
4.643978660E0,-7.613733411E-3,2.733944729E-2,9.583663940E-2,9.995036652E-2
4.648727254E0,1.883998513E-3,2.954751812E-2,1.092844009E-1,1.132240503E-1
4.653475900E0,-1.478360593E-2,6.966501474E-2,7.988357544E-2,1.070194137E-1
4.658224545E0,-2.178621292E-2,3.579060733E-2,1.195783615E-1,1.267067133E-1
4.662973191E0,-2.702176571E-4,3.792873770E-2,7.584762573E-2,8.480285662E-2
4.667721785E0,9.166240692E-3,5.657955259E-2,8.946132660E-2,1.062477985E-1
4.672470431E0,1.383478940E-2,3.943321481E-2,7.921886444E-2,8.956566480E-2
4.677219077E0,8.997276425E-3,5.332365632E-2,1.023006439E-1,1.157142388E-1
4.681967722E0,2.556747198E-2,4.819325358E-2,1.835250854E-2,5.755953339E-2
4.686716316E0,6.416767836E-3,-1.152838022E-2,3.244400024E-2,3.502415754E-2
4.691464962E0,4.044592381E-3,-3.513964266E-2,-1.293659210E-2,3.766309372E-2
4.696213608E0,-1.498565078E-2,-4.068231210E-3,3.228092194E-2,3.582147618E-2
4.700962202E0,-7.771149278E-3,-4.673672467E-2,3.675937653E-2,5.996635688E-2
4.705710847E0,-5.873888731E-4,-5.346600711E-2,7.681274414E-2,9.359036598E-2
4.710459493E0,-1.477177441E-2,-3.405310959E-2,1.444530487E-2,3.983072212E-2
4.715208139E0,-5.214735866E-3,-4.806864262E-2,8.080196381E-2,9.416339643E-2
4.719956733E0,-2.741515636E-3,-4.054193944E-2,7.537841797E-2,8.563335014E-2
4.724705379E0,2.085328102E-3,-6.153867021E-2,6.287956238E-2,8.800679456E-2
4.729454025E0,1.639799774E-2,-4.677727446E-2,7.749557495E-3,5.017034360E-2
4.734202618E0,4.712188244E-2,-3.697624058E-2,5.041980743E-2,7.829349368E-2
4.738951264E0,4.197765887E-2,1.261478290E-3,7.265090942E-3,4.262037914E-2
4.743699910E0,4.874697328E-2,4.395884648E-2,3.331947327E-2,7.361273590E-2
4.748448556E0,3.415142000E-2,3.172594309E-2,-1.444244385E-2,4.879999116E-2
4.753197150E0,1.481118798E-2,4.559154809E-2,5.453014374E-2,7.260507642E-2
4.757945795E0,4.548931122E-2,5.468141288E-2,8.256530762E-2,1.089787336E-1
4.762694441E0,6.656286120E-2,7.565487921E-2,1.412296295E-1,1.734937564E-1
4.767443035E0,3.757396340E-2,3.466807306E-2,5.458259583E-2,7.478594642E-2
4.772191681E0,3.247964382E-2,1.535966620E-2,7.787036896E-2,8.575920341E-2
4.776940327E0,8.493661880E-3,1.760903187E-2,5.822849274E-2,6.142294084E-2
4.781688972E0,2.741262317E-2,3.414410353E-2,1.052265167E-1,1.139732053E-1
4.786437566E0,8.246719837E-3,2.205113508E-2,3.549766541E-2,4.259513112E-2
4.791186212E0,-1.319278777E-2,2.421567217E-2,-1.465511322E-2,3.122852496E-2
4.795934858E0,-5.963772535E-3,2.401708998E-2,-9.784698486E-3,2.661066550E-2
4.800683504E0,-2.250683308E-2,2.381968498E-2,1.641178131E-2,3.665080482E-2
4.805432097E0,-3.897130489E-2,2.362488210E-2,-2.717018127E-3,4.565391382E-2
4.810180743E0,-3.864984214E-2,1.161909476E-2,-1.931381226E-2,4.474189317E-2
4.814929389E0,-3.123828769E-2,-9.841365740E-3,-5.476379395E-2,6.381031441E-2
4.819677983E0,-1.908110082E-2,-2.590697259E-4,1.454257965E-2,2.399254360E-2
4.824426629E0,-2.601835132E-2,-2.871392481E-2,-4.018402100E-2,5.582293101E-2
4.829175275E0,-3.061228991E-2,-4.749415070E-2,7.635116577E-3,5.701843254E-2
4.833923920E0,-1.368258893E-2,-6.605784595E-2,-1.379680634E-2,6.885640215E-2
4.838672514E0,-4.197321832E-2,-5.128785223E-2,3.380012512E-2,7.439518332E-2
4.843421160E0,-3.913470358E-2,-8.160156757E-2,-6.844520569E-3,9.075895722E-2
4.848169806E0,-6.249440461E-2,-8.088831604E-2,1.457881927E-2,1.032521779E-1
4.852918400E0,-9.031898528E-2,-7.062627375E-2,-4.014968872E-2,1.214808098E-1
4.857667045E0,-8.241777122E-2,-2.252153307E-2,-1.844882965E-2,8.740862532E-2
4.862415691E0,-7.461194694E-2,6.218694150E-3,-5.390739441E-2,9.225845194E-2
4.867164337E0,-1.463985443E-2,6.783885509E-2,-3.921222687E-2,7.971219689E-2
4.871912931E0,4.008409381E-2,8.389625698E-2,-3.273963928E-3,9.303781678E-2
4.876661577E0,9.910030663E-2,1.235022545E-1,1.012163162E-1,1.879319566E-1
4.881410222E0,1.457540691E-1,1.201021448E-1,4.101943970E-2,1.932650208E-1
4.886158816E0,1.539735049E-1,7.393707335E-2,9.528446198E-2,1.955854282E-1
4.890907462E0,1.622131169E-1,7.089138031E-2,1.039867401E-1,2.053093403E-1
4.895656108E0,1.087154895E-1,-8.014453575E-3,8.887290955E-2,1.406473717E-1
4.900404754E0,3.195172548E-2,-5.302418768E-2,2.165508270E-2,6.558521059E-2
4.905153347E0,-3.001613915E-2,-1.143369824E-1,-9.389877319E-3,1.185836580E-1
4.909901993E0,-6.766708195E-2,-1.727051139E-1,-6.629276276E-2,1.969787317E-1
4.914650639E0,-9.081847966E-2,-1.689476371E-1,-4.437351227E-2,1.968763798E-1
4.919399233E0,-9.238002449E-2,-1.104983389E-1,-7.486724854E-2,1.623239253E-1
4.924147879E0,-1.035432816E-1,-7.390393317E-2,-9.323596954E-2,1.577211099E-1
4.928896525E0,-7.903101295E-2,-9.300557896E-3,-1.185722351E-1,1.427997770E-1
4.933645170E0,-4.282272607E-2,4.770110548E-2,-1.074695587E-2,6.499752605E-2
4.938393764E0,-1.863920689E-2,1.042572856E-1,-3.677368164E-2,1.121129131E-1
4.943142410E0,5.106449127E-3,8.436944336E-2,2.288913727E-2,8.756820998E-2
4.947891056E0,3.352060914E-2,8.370006084E-2,2.982044220E-2,9.496625819E-2
4.952639702E0,4.279352725E-2,9.728068113E-2,8.892440796E-2,1.385726063E-1
4.957388295E0,4.961484671E-2,7.985559851E-2,3.120326996E-2,9.905651762E-2
4.962136941E0,6.100960076E-2,6.251570582E-2,4.756355286E-2,9.946193453E-2
4.966885587E0,3.916004300E-2,6.437209994E-2,5.903720856E-2,9.572182725E-2
4.971634181E0,3.414106369E-2,3.066038527E-2,3.005504608E-2,5.485414524E-2
4.976382827E0,-2.775654197E-2,-3.131927177E-2,-1.768016815E-2,4.543028453E-2
4.981131472E0,-3.702534735E-2,-7.625156641E-2,-6.976413727E-2,1.097825695E-1
4.985880066E0,-6.280631572E-2,-6.611585617E-2,-4.069232941E-2,9.985892751E-2
4.990628712E0,-5.273069441E-2,-4.647938162E-2,-8.783721924E-2,1.124999384E-1
4.995377358E0,-8.318817616E-2,-8.407472819E-2,-6.811141968E-2,1.364844243E-1
5.000126004E0,-6.593835354E-2,-2.170211822E-2,-6.991672516E-2,9.852510776E-2
5.004874597E0,-3.933568299E-2,-2.495322376E-3,-6.695938110E-2,7.769865705E-2
5.009623243E0,-2.473691106E-2,6.966674700E-3,3.331279755E-2,4.207364740E-2
5.014371889E0,-1.717537642E-2,3.543115780E-2,-3.344535828E-2,5.166190558E-2
5.019120483E0,1.614332199E-2,4.935493693E-2,-3.316593170E-2,6.161570960E-2
5.023869129E0,5.396224558E-2,3.464290500E-2,7.632255554E-2,9.968544176E-2
5.028617775E0,3.223040700E-2,-1.781427860E-2,2.107810974E-2,4.243152564E-2
5.033366420E0,2.726922929E-2,-2.950380370E-2,4.282951355E-3,4.040332872E-2
5.038115014E0,7.986366749E-3,-6.246324629E-2,-5.006790161E-4,6.297372365E-2
5.042863660E0,7.908172905E-2,-2.395266667E-2,2.087116241E-2,8.522473544E-2
5.047612306E0,1.163761020E-1,1.186284795E-2,5.393695831E-2,1.288150602E-1
5.052360900E0,9.640981257E-2,2.240605652E-3,4.161643982E-2,1.050323776E-1
5.057109545E0,1.192263216E-1,3.543367982E-2,2.227878571E-2,1.263598263E-1
5.061858191E0,1.038957387E-1,3.514257073E-2,9.094524384E-2,1.424793395E-1
5.066606837E0,8.400373161E-2,4.675417393E-2,6.644630432E-2,1.168661245E-1
5.071355431E0,3.822100163E-2,-5.863005295E-3,4.215145111E-2,5.720108939E-2
5.076104077E0,-2.382880449E-2,-4.373771697E-2,-1.053962708E-1,1.165726113E-1
5.080852722E0,-6.405335665E-2,-6.951422989E-2,-1.667308807E-2,9.598464732E-2
5.085601316E0,-8.960918337E-2,-6.418247521E-2,-5.214691162E-2,1.219364435E-1
5.090349962E0,-1.600015610E-1,-3.040681407E-2,-1.609992981E-2,1.636590407E-1
5.095098608E0,-1.657644808E-1,-6.379183382E-3,-1.204290390E-1,2.049919767E-1
5.099847254E0,-1.928172559E-1,2.454159036E-2,-7.906627655E-2,2.098386521E-1
5.104595847E0,-1.555425972E-1,5.995298177E-2,-8.790493011E-2,1.884546001E-1
5.109344493E0,-1.138301864E-1,4.524125159E-2,-1.180362701E-1,1.701077401E-1
5.114093139E0,-8.196190745E-2,2.584428899E-2,-1.669111252E-1,1.877365315E-1
5.118841733E0,-3.860671073E-2,6.521301344E-3,-1.394033432E-1,1.447974364E-1
5.123590379E0,3.531007469E-2,-2.207773179E-2,-4.090213776E-2,5.837133276E-2
5.128339025E0,8.967696130E-2,-6.934441626E-2,-3.106594086E-2,1.175401980E-1
5.133087670E0,1.055452526E-1,-4.030261189E-2,-7.354164124E-2,1.348053184E-1
5.137836264E0,1.259999722E-1,-4.479901120E-2,1.027603149E-1,1.686494196E-1
5.142584910E0,1.511507332E-1,3.060957417E-3,5.679416656E-2,1.614976501E-1
5.147333556E0,1.071824878E-1,7.846947759E-3,8.718395233E-2,1.383860608E-1
5.152082150E0,6.835857034E-2,4.342699423E-2,9.860992432E-4,8.099240926E-2
5.156830795E0,3.214380145E-2,2.619219944E-3,1.047611237E-2,3.390919072E-2
5.161579441E0,3.190203011E-2,7.378904149E-3,-3.472042084E-2,4.772520691E-2
5.166328087E0,3.231629729E-3,-3.298082575E-2,-5.817413330E-2,6.695078852E-2
5.171076681E0,-3.710006177E-2,-3.032909520E-2,-1.122951508E-1,1.220920533E-1
5.175825327E0,-5.819113553E-2,3.164935857E-3,-8.286952972E-2,1.013093482E-1
5.180573972E0,-3.399766982E-2,2.210590802E-2,-1.035451889E-1,1.112030524E-1
5.185322566E0,-2.896964550E-2,6.694656610E-2,-3.383255005E-2,8.040972899E-2
5.190071212E0,-3.579507768E-2,7.829263806E-2,-8.340835571E-2,1.198665031E-1
5.194819858E0,-4.742990434E-2,3.985794261E-3,9.880065918E-3,4.861170728E-2
5.199568452E0,-1.142582297E-2,1.820068434E-2,-8.279418945E-2,8.553766509E-2
5.204317097E0,-1.133389771E-2,-1.996411756E-2,8.113861084E-3,2.434867489E-2
5.209065743E0,-1.118385792E-2,-4.110236838E-2,-5.843067169E-2,7.230924394E-2
5.213814337E0,-2.777214348E-2,-8.586496860E-2,-5.556869507E-2,1.059809637E-1
5.218562983E0,2.700228989E-2,-1.635494642E-2,-5.747890472E-2,6.557768233E-2
5.223311629E0,1.730677485E-2,-7.319451869E-2,3.084278107E-2,8.129107679E-2
5.228060275E0,2.884760499E-3,-4.406206310E-2,-4.063892365E-2,6.001091036E-2
5.232808868E0,2.653972805E-2,-1.282727066E-2,-9.434700012E-3,3.095011473E-2
5.237557514E0,3.349660337E-2,7.272312790E-2,-4.022216797E-2,8.960188929E-2
5.242306160E0,1.653599739E-2,5.312759429E-2,-9.021759033E-3,5.636818802E-2
5.247054806E0,1.639468968E-2,4.081828892E-2,-9.204196930E-2,1.020129535E-1
5.251803400E0,1.980304718E-3,1.899599284E-2,-3.192043304E-2,3.719789505E-2
5.256552045E0,6.767675281E-3,-2.108160406E-4,-2.453327179E-2,2.545048716E-2
5.261300691E0,-3.362309933E-2,-6.433734298E-2,-1.720619202E-2,7.460468855E-2
5.266049285E0,-5.940295756E-2,-4.714897275E-2,-1.120300293E-1,1.352866012E-1
5.270797931E0,-5.894081295E-2,-5.158964917E-2,-4.699325562E-2,9.134482692E-2
5.275546577E0,-7.260946184E-2,-6.777508557E-2,-8.458995819E-2,1.304647738E-1
5.280295222E0,-7.200787216E-2,-5.773905665E-2,-6.489086151E-2,1.128262213E-1
5.285043816E0,-5.710741878E-2,-3.116762266E-2,-1.142091751E-1,1.314397720E-1
5.289792462E0,-2.105216682E-2,-4.758270085E-2,-4.440593719E-2,6.840463731E-2
5.294541108E0,5.506312847E-2,-3.059341758E-2,-1.223821640E-1,1.376419245E-1
5.299289702E0,1.067436337E-1,-4.337124527E-3,4.469871521E-3,1.069251783E-1
5.304038347E0,1.343403459E-1,6.209129468E-2,2.058982849E-3,1.480097862E-1
5.308786993E0,1.403397769E-1,4.492949694E-2,4.477596283E-2,1.540090891E-1
5.313535587E0,1.248629093E-1,9.444583207E-2,8.791923523E-3,1.568058010E-1
5.318284233E0,1.118597686E-1,1.173154861E-1,1.131839752E-1,1.977021582E-1
5.323032879E0,7.540042698E-2,1.377973557E-1,6.238079071E-2,1.690109424E-1
5.327781525E0,5.812005699E-2,6.783241034E-2,-2.598285675E-2,9.302841373E-2
5.332530118E0,2.670939267E-2,4.821866006E-2,-2.023696899E-3,5.515909883E-2
5.337278764E0,-2.557097375E-2,7.519479841E-3,1.460933685E-2,3.039490087E-2
5.342027410E0,-4.189180583E-2,-3.269401938E-2,-1.564531326E-1,1.652313681E-1
5.346776004E0,-1.341380477E-1,-1.440018713E-1,-1.290330887E-1,2.353276286E-1
5.351524650E0,-1.898263544E-1,-1.475165039E-1,-1.920633316E-1,3.077068200E-1
5.356273295E0,-2.285199463E-1,-1.106123328E-1,-1.952123642E-1,3.202566489E-1
5.361021889E0,-2.218117714E-1,-8.585696667E-2,-2.030839920E-1,3.127538784E-1
5.365770535E0,-1.725132465E-1,-3.525169194E-2,-1.823987961E-1,2.535208528E-1
5.370519181E0,-4.293395579E-2,3.629920259E-2,-1.357688904E-1,1.469494752E-1
5.375267827E0,6.900539994E-2,1.238728836E-1,2.205562592E-2,1.435015232E-1
5.380016420E0,1.349620670E-1,1.916940957E-1,-3.035926819E-2,2.363960047E-1
5.384765066E0,1.243079603E-1,1.520840526E-1,1.527032852E-1,2.487977519E-1
5.389513712E0,1.162937731E-1,1.199845225E-1,6.606101990E-3,1.672249020E-1
5.394262306E0,8.689042926E-2,7.384957373E-2,4.453659058E-2,1.224222779E-1
5.399010952E0,5.063919723E-2,9.076433256E-3,2.754592896E-2,5.835656037E-2
5.403759597E0,3.840214014E-2,-3.141591698E-2,4.393386841E-2,6.627117775E-2
5.408508243E0,3.579303622E-2,-9.044566005E-2,-9.413433075E-2,1.353618524E-1
5.413256837E0,-2.623637021E-2,-1.111449450E-1,-7.910537720E-2,1.389215845E-1
5.418005483E0,-1.403246820E-2,-1.600726247E-1,-1.164340973E-1,1.984365247E-1
5.422754129E0,-6.855458021E-3,-1.374266148E-1,-1.059665680E-1,1.736720625E-1
5.427502722E0,2.165849507E-2,-1.457443684E-1,-1.145792007E-1,1.866518272E-1
5.432251368E0,2.628172934E-2,-1.089134738E-1,-4.002666473E-2,1.189748207E-1
5.437000014E0,-2.680718899E-5,-7.473511249E-2,-6.456375122E-3,7.501348237E-2
5.441748608E0,9.378254414E-3,4.149394110E-3,-1.651763916E-3,1.038736980E-2
5.446497254E0,1.638977230E-2,4.213338345E-2,-3.250217438E-2,5.567978068E-2
5.451245900E0,9.097903967E-3,1.058874726E-1,2.949810028E-2,1.102953609E-1
5.455994545E0,-1.703798771E-2,1.192531884E-1,1.500606537E-2,1.213952139E-1
5.460743139E0,-7.147538662E-2,1.491270065E-1,-6.346607208E-2,1.771314124E-1
5.465491785E0,-5.429361761E-2,1.120989844E-1,-4.631805420E-2,1.328884546E-1
5.470240431E0,-8.936852962E-2,1.039876267E-1,-2.931404114E-2,1.402122449E-1
5.474989025E0,-9.809437394E-2,4.374157637E-2,-1.074161530E-1,1.519014866E-1
5.479737670E0,-9.496510029E-2,-2.080962062E-2,-1.492557526E-1,1.781254902E-1
5.484486316E0,-6.809084117E-2,-4.689633101E-2,-1.242694855E-1,1.492599529E-1
5.489234910E0,1.791304350E-2,-6.552448869E-2,-7.812404633E-2,1.035263365E-1
5.493983556E0,3.906871378E-2,-4.835528135E-2,-1.012134552E-1,1.187803062E-1
5.498732202E0,6.013633311E-2,-9.314487875E-2,-2.914524078E-2,1.146376555E-1
5.503480847E0,1.142371595E-1,-7.337181270E-2,-9.909629822E-3,1.361313787E-1
5.508229441E0,1.156265140E-1,-4.186333716E-2,-4.543972015E-2,1.310984283E-1
5.512978087E0,1.264712960E-1,-1.545359008E-2,-1.657104492E-2,1.284850251E-1
5.517726733E0,8.983117342E-2,-1.294698473E-2,-3.305149078E-2,9.659019192E-2
5.522475327E0,9.848737717E-2,6.128802896E-3,4.794692993E-2,1.097097706E-1
5.527223972E0,9.523011744E-2,5.831313878E-2,-3.317260742E-2,1.164887089E-1
5.531972618E0,5.416083336E-2,9.822131693E-2,4.307460785E-2,1.201509251E-1
5.536721264E0,3.002348542E-2,1.069914028E-1,-4.987716675E-2,1.218043584E-1
5.541469858E0,-4.379914701E-2,1.133427396E-1,-1.373062134E-1,1.833519516E-1
5.546218504E0,-1.027912945E-1,1.147466004E-1,-9.817504883E-2,1.826777839E-1
5.550967150E0,-1.350289434E-1,7.824023068E-2,-1.305971146E-1,2.034943626E-1
5.555715743E0,-1.623674035E-1,2.785205282E-2,-2.126064301E-1,2.689617160E-1
5.560464389E0,-1.421422809E-1,-5.643866956E-3,-1.989612579E-1,2.445850842E-1
5.565213035E0,-1.005419195E-1,-4.607089609E-2,-1.023378372E-1,1.506792553E-1
5.569961629E0,-9.003431350E-2,-7.654768974E-2,-4.688358307E-2,1.271369214E-1
5.574710275E0,-7.738729566E-2,-9.727345407E-2,-1.675739288E-1,2.086430924E-1
5.579458920E0,-2.460287511E-2,-8.467622101E-2,-7.120990753E-2,1.133411435E-1
5.584207566E0,1.604746282E-2,-4.123225063E-2,-1.363849640E-2,4.629933195E-2
5.588956160E0,1.130914688E-2,-1.705572382E-2,-2.539730072E-2,3.261621379E-2
5.593704806E0,3.976008296E-2,-2.878066339E-2,-9.878540039E-2,1.103075071E-1
5.598453452E0,8.934123814E-2,-2.616300806E-2,-4.335880280E-2,1.026954021E-1
5.603202045E0,1.052710712E-1,-2.199374139E-3,-8.098411560E-2,1.328354721E-1
5.607950691E0,1.115717143E-1,7.348159328E-3,-1.858234406E-2,1.133470175E-1
5.612699337E0,7.036623359E-2,2.153548039E-2,-8.015632629E-2,1.088127768E-1
5.617447983E0,6.734354794E-2,3.311235458E-2,6.533527374E-2,9.950014809E-2
5.622196577E0,8.342736959E-2,7.557475567E-2,-1.684188843E-3,1.125811094E-1
5.626945222E0,6.136144698E-2,3.753134981E-3,7.038116455E-4,6.148014759E-2
5.631693868E0,5.844312906E-2,2.022694610E-2,-4.441070557E-2,7.613829163E-2
5.636442462E0,7.932001352E-2,-2.029844932E-2,-1.792526245E-2,8.381531259E-2
5.641191108E0,1.461239159E-2,-8.654294908E-2,-4.389190674E-2,9.813105268E-2
5.645939754E0,-2.073034644E-3,-1.143666655E-1,-4.590129852E-2,1.232516160E-1
5.650688347E0,-2.574178576E-2,-9.447602928E-2,-1.191177368E-1,1.541992051E-1
5.655436993E0,-3.737197816E-2,-1.388237327E-1,-9.913253784E-2,1.746309067E-1
5.660185639E0,-9.166925400E-2,-6.649849564E-2,-1.291704178E-1,1.717856190E-1
5.664934233E0,-6.716723740E-2,-5.644455552E-2,-7.348823547E-2,1.144462598E-1
5.669682879E0,-8.554529399E-2,1.056394540E-2,-1.868352890E-1,2.057596158E-1
5.674431525E0,-7.062026858E-2,2.469461411E-2,-1.425437927E-1,1.609837853E-1
5.679180118E0,-7.478347421E-2,6.713901460E-2,-1.650972366E-1,1.932803995E-1
5.683928764E0,-3.852203488E-2,6.183442473E-2,-2.127265930E-2,7.589446151E-2
5.688677410E0,-6.898009777E-2,8.268921822E-2,-1.255588531E-1,1.654109619E-1
5.693426056E0,-8.265350014E-2,8.197396994E-2,-8.652591705E-2,1.450450522E-1
5.698174650E0,-5.585256219E-2,6.221367419E-2,-5.256748199E-2,9.875925335E-2
5.702923295E0,1.823733747E-2,3.795786574E-2,-2.364063263E-2,4.829368034E-2
5.707671941E0,3.235618770E-2,4.957470298E-2,-6.142997742E-2,8.531246206E-2
5.712420535E0,8.428515494E-2,4.438666254E-2,-2.530574799E-2,9.856238652E-2
5.717169181E0,1.381553859E-1,4.879810661E-2,-6.101608276E-3,1.466471802E-1
5.721917827E0,1.300249547E-1,-3.211940080E-2,-4.403972626E-2,1.409880925E-1
5.726666472E0,9.804460406E-2,-3.299094737E-3,-2.074899673E-1,2.295119059E-1
5.731415066E0,8.766877651E-2,-3.178660572E-2,1.741123199E-2,9.486492333E-2
5.736163712E0,7.992978394E-2,1.133407094E-2,-1.584234238E-1,1.778066723E-1
5.740912358E0,2.934443951E-2,4.091484472E-3,-5.156517029E-3,3.007367691E-2
5.745660952E0,-1.355011761E-2,3.017668240E-2,-1.190738678E-1,1.235832668E-1
5.750409597E0,-5.852013826E-2,3.901800141E-3,-6.822586060E-2,8.996998767E-2
5.755158243E0,-6.993605942E-2,6.088232994E-2,-7.477951050E-2,1.191204672E-1
5.759906837E0,-7.876528054E-2,5.803061649E-3,-7.890605927E-2,1.116414400E-1
5.764655483E0,-1.018538773E-1,-1.304903999E-3,-1.708412170E-1,1.989035860E-1
5.769404129E0,-5.842056870E-2,-7.726310194E-2,-1.076869965E-1,1.448414270E-1
5.774152722E0,1.569086313E-2,-9.786599874E-2,-1.708917618E-1,1.975549320E-1
5.778901368E0,4.642061889E-2,-6.615351886E-2,-4.601287842E-2,9.299648862E-2
5.783650014E0,4.374429584E-2,4.132564366E-2,-1.690864563E-1,1.794759091E-1
5.788398660E0,1.729017496E-2,7.187724859E-2,-5.134677887E-2,9.000989232E-2
5.793147254E0,-1.131750643E-2,9.267672896E-2,-1.055240631E-1,1.408985094E-1
5.797895900E0,-3.485061228E-2,9.425197542E-2,-5.478954315E-2,1.144547687E-1
5.802644545E0,-1.008930951E-1,7.450634986E-2,-2.062797546E-1,2.414165487E-1
5.807393139E0,-8.824364096E-2,-1.163885184E-2,-1.000976562E-1,1.339475413E-1
5.812141785E0,-5.427354574E-2,-1.394213364E-2,-1.657390594E-1,1.749555277E-1
5.816890431E0,-1.108986139E-2,-6.851656735E-2,1.370239258E-2,7.074786632E-2
5.821639025E0,1.279924810E-2,-4.654528946E-2,-1.526031494E-1,1.600562587E-1
5.826387670E0,-1.672983170E-3,-1.412076205E-1,-2.787399292E-2,1.439421774E-1
5.831136316E0,4.819458723E-2,-4.980915040E-2,-1.036138535E-1,1.246575322E-1
5.835884910E0,2.885504067E-2,-8.025480062E-2,6.818675995E-2,1.091919440E-1
5.840633556E0,6.196650863E-2,-3.492360935E-3,-1.674242020E-1,1.785578567E-1
5.845382202E0,4.005013406E-2,-6.996551156E-2,-6.156539917E-2,1.014370959E-1
5.850130847E0,2.315248549E-2,-3.136266768E-2,-1.227817535E-1,1.288216345E-1
5.854879441E0,1.345954835E-2,-7.386162132E-2,-1.383781433E-1,1.574331893E-1
5.859628087E0,1.331466436E-2,-9.228363633E-3,-1.324748993E-1,1.334617620E-1
5.864376733E0,-8.137688041E-3,-2.825864777E-2,-6.726932526E-2,7.341617847E-2
5.869125327E0,-8.922517300E-4,8.353615552E-2,-7.383155823E-2,1.114907368E-1
5.873873972E0,1.456588507E-3,1.089304835E-1,-9.458351135E-2,1.442706224E-1
5.878622618E0,-2.230057120E-2,1.008755639E-1,-1.365299225E-1,1.712121918E-1
5.883371212E0,-3.642182797E-2,6.196575239E-2,-9.503078461E-2,1.191518109E-1
5.888119858E0,3.266999125E-2,4.474613070E-2,-1.393470764E-1,1.499571680E-1
5.892868504E0,3.717191517E-2,-1.269050501E-2,-9.545040131E-2,1.032161775E-1
5.897617150E0,4.401040077E-2,1.113156788E-2,-1.255187988E-1,1.334758257E-1
5.902365743E0,9.097678959E-2,-1.035414822E-2,-1.315927505E-1,1.603141810E-1
5.907114389E0,8.789967000E-2,-7.914377004E-2,-1.376190186E-1,1.814637225E-1
5.911863035E0,9.431548417E-2,-6.892544031E-2,-9.848594666E-2,1.527926980E-1
5.916611629E0,6.743966043E-2,-3.982789069E-2,-2.519865036E-1,2.638779390E-1
5.921360275E0,2.173610032E-2,-6.094697863E-2,-9.556579590E-2,1.154114969E-1
5.926108920E0,-2.346952260E-2,1.313436776E-2,-1.968593597E-1,1.986880410E-1
5.930857514E0,-7.553785294E-2,-3.648979589E-3,-9.550285339E-2,1.218198559E-1
5.935606160E0,-9.144305438E-2,3.202655911E-2,-1.967973709E-1,2.193552778E-1
5.940354806E0,-1.404831260E-1,2.936040051E-2,-1.832876205E-1,2.327915240E-1
5.945103400E0,-1.370003223E-1,8.135157079E-2,-2.648544312E-1,3.090874247E-1
5.949852045E0,-1.192723364E-1,3.313631937E-2,-9.645557404E-2,1.569317802E-1
5.954600691E0,-8.976285905E-2,4.007445276E-2,-2.191085815E-1,2.401497515E-1
5.959349285E0,-8.676102012E-2,4.044227302E-3,-1.579256058E-1,1.802340904E-1
5.964097931E0,-6.452795118E-2,1.345230453E-2,-1.471157074E-1,1.612074823E-1
5.968846577E0,-1.645213366E-2,5.132975429E-2,-1.791286469E-1,1.870627929E-1
5.973595222E0,5.078107119E-3,6.512132287E-2,-2.037534714E-1,2.139674063E-1
5.978343816E0,-9.037211537E-3,2.899928577E-2,-1.973085403E-1,1.996328877E-1
5.983092462E0,1.946604252E-2,9.738879278E-3,-2.550172806E-1,2.559444978E-1
5.987841108E0,6.669583917E-2,-3.799727559E-2,-5.821037292E-2,9.633574327E-2
5.992589702E0,8.530505002E-2,2.683527768E-3,-1.313266754E-1,1.566232695E-1
5.997338347E0,4.651688039E-2,-1.641643047E-2,-4.713535309E-2,6.822800643E-2
6.002086993E0,1.054209769E-1,-1.390091889E-2,-7.048320770E-2,1.275723343E-1
6.006835587E0,1.140356511E-1,-2.330722101E-2,1.082515717E-2,1.168954246E-1
6.011584233E0,1.321042925E-1,-1.838978380E-2,-8.185672760E-2,1.564936168E-1
6.016332879E0,8.114284277E-2,-9.898264706E-2,-1.144132614E-1,1.716744586E-1
6.021081525E0,9.459130466E-2,-1.101119891E-1,-1.680622101E-1,2.220744729E-1
6.025830118E0,1.316400766E-1,-1.115940809E-1,-1.429176331E-1,2.240709676E-1
6.030578764E0,8.786341548E-2,-8.914769441E-2,-1.583471298E-1,2.018442586E-1
6.035327410E0,6.793043017E-2,-6.228599697E-2,-2.329969406E-1,2.505626929E-1
6.040076004E0,6.730264425E-2,-3.564814851E-2,-1.906948090E-1,2.053410494E-1
6.044824650E0,5.068942904E-3,-3.528957069E-2,-2.199707031E-1,2.228411053E-1
6.049573295E0,-1.396977901E-2,-4.070546478E-3,-2.679948807E-1,2.683896051E-1
6.054321889E0,-6.374295056E-2,-1.124337595E-2,-2.776308060E-1,2.850762033E-1
6.059070535E0,-7.039572299E-2,7.758256048E-3,-1.945953369E-1,2.070823351E-1
6.063819181E0,-1.409785151E-1,3.618606925E-2,-2.000970840E-1,2.474332564E-1
6.068567827E0,-1.729286015E-1,5.253634602E-2,-2.672824860E-1,3.226519738E-1
6.073316420E0,-1.834197938E-1,6.863286346E-2,-2.365636826E-1,3.071085584E-1
6.078065066E0,-9.173532575E-2,8.230945468E-2,-2.108497620E-1,2.442290696E-1
6.082813660E0,-5.770693719E-2,1.410090774E-1,-2.684488297E-1,3.086720341E-1
6.087562306E0,-3.589122742E-2,6.612256914E-2,-1.759929657E-1,1.913998389E-1
6.092310952E0,-4.025647789E-2,4.892704636E-2,-1.887712479E-1,1.991206265E-1
6.097059597E0,-6.715372205E-3,-1.305505633E-3,-2.655458450E-1,2.656339519E-1
6.101808191E0,7.631590962E-2,5.744600669E-3,-2.253437042E-1,2.379850910E-1
6.106556837E0,5.210950971E-2,1.282372884E-2,-1.213808060E-1,1.327145398E-1
6.111305431E0,-7.710933685E-3,3.414602578E-2,-2.390756607E-1,2.416248769E-1
6.116054077E0,1.609122753E-2,5.285967514E-2,-1.753559113E-1,1.838552922E-1
6.120802722E0,-2.194559574E-2,3.574699536E-2,-2.095079422E-1,2.136657078E-1
6.125551368E0,-2.411134541E-2,2.830213681E-2,-1.531553268E-1,1.576036867E-1
6.130299962E0,-2.394312620E-2,2.100701258E-2,-2.658386230E-1,2.677400631E-1
6.135048608E0,1.884210110E-2,-7.647402585E-2,-1.923980713E-1,2.078949717E-1
6.139797254E0,4.239402711E-2,-4.499779269E-2,-5.309200287E-2,8.149119984E-2
6.144545847E0,3.508915007E-2,-5.396953225E-2,-9.776210785E-2,1.170529307E-1
6.149294493E0,1.090642810E-2,-5.916021764E-3,-2.393951416E-1,2.397164644E-1
6.154043139E0,5.586285889E-2,-2.004986629E-2,-9.020233154E-2,1.079773900E-1
6.158791785E0,2.224303782E-2,3.478435799E-2,-3.268671036E-1,3.294644255E-1
6.163540066E0,-2.314156294E-2,8.294893429E-3,-1.650724411E-1,1.668929238E-1
6.168289025E0,-1.826174557E-2,-5.987379700E-3,-2.729072571E-1,2.735830971E-1
6.173037670E0,-1.099030674E-2,-8.396506310E-3,-1.899127960E-1,1.904157511E-1
6.177786264E0,-1.805335283E-2,-6.008218974E-3,-2.310628891E-1,2.318449503E-1
6.182534910E0,-8.438587189E-3,-1.553911995E-2,-6.769561768E-2,6.996692544E-2
6.187283556E0,-5.576744676E-2,-1.300329342E-2,-2.167043686E-1,2.241425375E-1
6.192032150E0,-5.058667064E-2,-5.565591156E-2,-1.009378433E-1,1.258770827E-1
6.196780795E0,-4.785224050E-2,-2.441253886E-2,-2.093076706E-1,2.160914388E-1
6.201529441E0,-3.796018660E-2,-9.560444206E-2,-4.849529266E-2,1.137232541E-1
6.206278035E0,-4.233737290E-2,-4.257377982E-2,-1.715478897E-1,1.817516392E-1
6.211026681E0,-1.109492779E-2,-4.690612108E-2,-1.273841858E-1,1.361984303E-1
6.215775327E0,-2.281859517E-2,-1.558968984E-2,-2.307863235E-1,2.324350530E-1
6.220523920E0,-1.542244852E-2,-6.293866038E-2,-1.149053574E-1,1.319180353E-1
6.225272566E0,-2.957125008E-2,-1.967542619E-2,-2.516479492E-1,2.541422271E-1
6.230021212E0,-4.357308149E-2,-2.906241082E-2,-1.260957718E-1,1.365407661E-1
6.234769806E0,-6.220646203E-2,2.819147520E-2,-1.487865448E-1,1.637126724E-1
6.239518452E0,-5.937533081E-2,5.642140657E-2,-6.445026398E-2,1.042239970E-1
6.244267097E0,-6.623744965E-3,6.548088044E-2,-1.042747498E-1,1.233079200E-1
6.249015691E0,3.375963867E-2,5.063597858E-2,-2.030849457E-2,6.415723249E-2
6.253764337E0,5.715838075E-2,9.292376041E-2,-1.340970993E-1,1.728697133E-1
6.258512983E0,3.768536448E-2,7.078659534E-2,-1.427268982E-2,8.145329000E-2
6.263261629E0,1.359735429E-2,7.017226517E-2,-1.399822235E-1,1.571752453E-1
6.268010222E0,4.182545841E-2,3.028975800E-3,-7.233810425E-2,8.361426309E-2
6.272758868E0,6.043766439E-2,-4.114635289E-3,-1.287136078E-1,1.422562277E-1
6.277507514E0,5.993057787E-2,-9.194871038E-2,1.026515961E-1,1.502783740E-1
6.282256108E0,7.610470057E-2,3.961326554E-3,-2.472057343E-1,2.586857024E-1
6.287004754E0,3.258770704E-2,-7.444436848E-2,-1.722335815E-2,8.306964978E-2
6.291753400E0,4.896090925E-2,2.120252326E-2,-1.951427460E-1,2.023052370E-1
6.296501993E0,2.000182867E-2,-5.057215691E-3,-2.020263672E-2,2.887551058E-2
6.301250639E0,3.170253336E-2,3.303282708E-2,-1.719799042E-1,1.779699574E-1
6.305999285E0,5.421787500E-4,-2.427674830E-2,-6.608390808E-2,7.040410054E-2
6.310747879E0,3.849178553E-2,8.508160710E-2,-2.079811096E-1,2.279838577E-1
6.315496525E0,1.205216348E-2,-1.067746431E-2,2.404499054E-2,2.893828707E-2
6.320245170E0,-4.019598663E-2,3.229405731E-2,-1.209802628E-1,1.315098759E-1
6.324993764E0,-5.422504246E-2,-1.785749383E-2,-1.057243347E-1,1.201535695E-1
6.329742410E0,-3.235131502E-2,3.924555331E-2,-1.380825043E-1,1.471516192E-1
6.334491056E0,-8.428750187E-2,4.839023948E-2,1.501369476E-2,9.834332351E-2
6.339239702E0,-7.637929171E-2,9.553189576E-2,-2.249011993E-1,2.560091576E-1
6.343988295E0,-8.521375060E-2,-2.399737947E-2,-1.707963943E-1,1.923763651E-1
6.348736941E0,-3.942706436E-2,1.879577525E-2,-2.002372742E-1,2.049457014E-1
6.353485535E0,1.287549734E-3,-7.530715317E-3,-6.798934937E-2,6.841725721E-2
6.358234181E0,-1.071706414E-3,1.164405979E-2,-2.454862595E-1,2.457645952E-1
6.362982827E0,-8.275419474E-3,-3.839275241E-2,4.620838165E-2,6.064404785E-2
6.367731472E0,-9.138882160E-4,4.276749492E-2,-1.417369843E-1,1.480515671E-1
6.372480066E0,-2.948623896E-2,-5.973102152E-2,6.837081909E-2,9.545576003E-2
6.377228712E0,-6.964504719E-4,-1.409101486E-2,-8.651924133E-2,8.766196931E-2
6.381977358E0,-5.524165928E-2,-9.471946955E-2,-6.917953491E-2,1.296504026E-1
6.386725952E0,-1.222346723E-2,-3.228541464E-2,-6.622600555E-2,7.468363248E-2
6.391474597E0,2.345824242E-2,-7.005648315E-2,4.828643799E-2,8.825973069E-2
6.396223243E0,3.052645922E-2,-7.539313287E-3,-1.491737366E-1,1.524516633E-1
6.400971837E0,1.828244328E-2,-5.498519540E-2,-2.684688568E-2,6.386215402E-2
6.405720483E0,7.047367096E-2,2.860024758E-2,-1.239652634E-1,1.454369244E-1
6.410469129E0,2.005481720E-2,-3.098817728E-2,-1.086864471E-1,1.147833029E-1
6.415217722E0,3.401359916E-2,4.885885864E-3,-1.505146027E-1,1.543873130E-1
6.419966368E0,1.713666320E-2,-8.062054962E-2,-1.088991165E-1,1.365736279E-1
6.424715014E0,1.218441129E-2,3.121186048E-3,-1.554737091E-1,1.559816525E-1
6.429463608E0,2.380593121E-2,-3.734932095E-2,-4.733848572E-2,6.482766667E-2
6.434212254E0,4.033890367E-2,1.759890094E-2,-1.798982620E-1,1.852034912E-1
6.438960900E0,-3.128275275E-2,2.923947759E-2,-7.631015778E-2,8.750313051E-2
6.443709545E0,4.615738988E-3,7.402112335E-2,-8.279609680E-2,1.111558608E-1
6.448458139E0,-2.151268721E-2,8.290355653E-2,-6.548786163E-2,1.078167678E-1
6.453206785E0,3.060698509E-5,7.031622529E-2,-1.694040298E-1,1.834178230E-1
6.457955431E0,-2.318203449E-3,3.199508414E-3,-1.110134125E-1,1.110837012E-1
6.462704025E0,-1.179875433E-2,2.688859962E-2,-1.528215408E-1,1.556169359E-1
6.467452670E0,-4.552423954E-3,5.753159523E-2,-1.230592728E-1,1.359198059E-1
6.472201316E0,-1.627312601E-2,5.004878342E-2,-2.336206436E-1,2.394750519E-1
6.476949910E0,-5.896203965E-2,2.036465332E-3,-1.414537430E-1,1.532639250E-1
6.481698556E0,-1.407936215E-3,5.179363489E-2,-1.901330948E-1,1.970663762E-1
6.486447202E0,-2.273812890E-2,3.002760559E-2,-8.883571625E-2,9.649074611E-2
6.491195795E0,-2.724276483E-2,1.327825710E-2,-1.332054138E-1,1.366095261E-1
6.495944441E0,-3.393173218E-3,3.675529733E-3,-1.914463043E-1,1.915116461E-1
6.500693087E0,3.215743601E-2,-1.062522456E-2,-4.027748108E-2,5.262386882E-2
6.505441681E0,2.716670930E-2,-8.101709187E-3,6.451892853E-2,7.047240541E-2
6.510190327E0,2.934002876E-2,2.775422111E-2,-9.271335602E-2,1.011281388E-1
6.514938972E0,4.325054586E-2,-1.529464312E-2,-4.208183289E-2,6.225284318E-2
6.519687566E0,5.962121487E-2,1.332573034E-2,-1.324272156E-2,6.251107122E-2
6.524436212E0,-2.860708535E-2,8.498828858E-3,-1.270933151E-1,1.305500141E-1
6.529184858E0,-4.973939061E-2,8.402772248E-3,-1.284093857E-1,1.379622553E-1
6.533933452E0,-7.541496307E-2,-7.001098990E-2,-1.676998138E-1,1.967541179E-1
6.538682097E0,-4.395484924E-2,-1.493342035E-2,-1.449337006E-1,1.521867713E-1
6.543430743E0,-2.940461040E-2,1.831693389E-2,-1.199836731E-1,1.248848389E-1
6.548179337E0,-1.014092565E-2,-7.388219237E-4,-5.013465881E-2,5.115533447E-2
6.552927983E0,-8.368727565E-2,-2.690188214E-2,-7.820510864E-2,1.176575981E-1
6.557676629E0,-2.129429579E-2,-2.435713820E-2,-5.855941772E-2,6.690233642E-2
6.562425222E0,2.182275057E-4,-5.026573688E-2,-1.055536270E-1,1.169113344E-1
6.567173868E0,3.110578656E-2,-7.123940438E-2,-1.208209991E-2,7.866765430E-2
6.571922514E0,2.623900771E-2,-5.631081387E-2,-1.069507599E-1,1.236845113E-1
6.576671108E0,4.620850086E-3,-1.056662574E-1,-9.181499481E-2,1.400596426E-1
6.581419754E0,-3.586795926E-2,-6.682455540E-2,-9.817028046E-2,1.240541643E-1
6.586168400E0,-6.996229291E-3,-8.279669285E-2,-1.044759750E-1,1.334895836E-1
6.590916993E0,-4.023683071E-2,-8.213284612E-2,-1.178503036E-1,1.491760739E-1
6.595665639E0,-3.753066808E-2,-5.764617771E-2,-1.192417145E-1,1.376597956E-1
6.600414285E0,-5.375383794E-2,-2.624112554E-2,-1.301193237E-1,1.432100212E-1
6.605162879E0,-1.538033783E-2,2.152079344E-2,-5.068778992E-2,5.717474433E-2
6.609911525E0,1.792514324E-2,8.781982958E-2,-9.537315369E-2,1.308803716E-1
6.614660170E0,5.573000014E-2,3.008325398E-2,-4.234695435E-2,7.618464168E-2
6.619408764E0,6.710417569E-2,2.746200748E-2,-4.006385803E-3,7.261668800E-2
6.624157410E0,4.998031259E-2,6.287685037E-2,-4.908370972E-2,9.413150651E-2
6.628906056E0,5.430874228E-2,1.027457789E-1,-8.315086365E-3,1.165129831E-1
6.633654650E0,6.097532809E-2,6.387755275E-2,1.549530029E-2,8.965732938E-2
6.638403295E0,4.859319329E-2,9.896057844E-2,-4.398632050E-2,1.186983189E-1
6.643151941E0,4.109138250E-2,3.881368786E-2,7.033824921E-2,9.023565472E-2
6.647900535E0,3.840026259E-2,7.176069915E-2,-8.456897736E-2,1.173715896E-1
6.652649181E0,2.852272987E-2,1.644572988E-2,-1.501369476E-2,3.618589755E-2
6.657397827E0,2.596519887E-2,3.773673251E-2,-4.100513458E-2,6.147905005E-2
6.662146420E0,-4.782433063E-2,1.142537221E-2,-1.217460632E-2,5.065497774E-2
6.666895066E0,-3.086766601E-2,6.834210455E-2,-1.687660217E-1,1.846765447E-1
6.671643712E0,-1.874314249E-2,3.645859659E-3,-5.102539062E-2,5.448108086E-2
6.676392306E0,1.459020376E-2,1.786395721E-2,-1.075792313E-1,1.100240247E-1
6.681140952E0,2.680778503E-3,-1.331591979E-3,2.527236938E-3,3.917478414E-3
6.685889597E0,-5.180642009E-2,-1.790715754E-2,-6.397151947E-2,8.424325941E-2
6.690638191E0,-3.490290791E-2,-5.104996264E-2,1.965904236E-2,6.489059726E-2
6.695386837E0,-1.799635589E-2,3.719374910E-2,-1.110820770E-1,1.185178115E-1
6.700135483E0,-2.734632790E-2,1.546250843E-2,6.315612793E-2,7.053798488E-2
6.704884077E0,-5.074825883E-2,5.100747570E-2,-1.097106934E-2,7.278401414E-2
6.709632722E0,-3.614136577E-2,-4.194820672E-2,-1.177148819E-1,1.300870623E-1
6.714381368E0,-2.888739109E-4,8.290836588E-3,-1.286039352E-1,1.288712287E-1
6.719129962E0,-7.297188044E-3,-6.537324190E-2,-1.357460022E-2,6.716531457E-2
6.723878608E0,-2.380129695E-2,-2.675174363E-2,-2.223873138E-1,2.252515813E-1
6.728627254E0,9.545296431E-3,-8.115847409E-2,-4.484176636E-3,8.184081158E-2
6.733375847E0,8.086860180E-5,1.214196160E-2,-1.184072495E-1,1.190281920E-1
6.738124493E0,-2.143421769E-2,-2.130920440E-2,6.064319611E-2,6.775769413E-2
6.742873139E0,7.345810533E-3,-1.394760981E-2,-4.670143127E-2,4.929016570E-2
6.747621785E0,-2.349637449E-2,-8.027516305E-2,-8.192443848E-2,1.170802931E-1
6.752370379E0,2.397769690E-2,-2.039272338E-2,-3.612899780E-2,4.791761260E-2
6.757119025E0,7.843747735E-2,-1.222212687E-1,8.762645721E-2,1.696138921E-1
6.761867618E0,2.088722587E-2,-4.267971590E-2,-1.528949738E-1,1.601084237E-1
6.766616264E0,2.771714330E-2,-6.388864666E-2,2.406787872E-2,7.368352591E-2
6.771364910E0,1.821637154E-2,-6.086391956E-2,-6.999969482E-3,6.391597976E-2
6.776113556E0,-3.419887275E-2,-5.085608363E-2,-1.137762070E-1,1.292320758E-1
6.780862150E0,3.247269988E-2,-1.012614369E-2,-7.246589661E-2,8.005199057E-2
6.785610795E0,1.801151037E-2,-2.428396977E-2,-7.898521423E-2,8.457416722E-2
6.790359389E0,3.441964090E-2,3.284357488E-2,-1.068162918E-1,1.169321696E-1
6.795108035E0,4.837454855E-2,-1.963040978E-2,4.127120972E-2,6.654894956E-2
6.799856681E0,2.657204866E-2,6.374648958E-2,-1.703729630E-1,1.838386119E-1
6.804605275E0,5.226173997E-2,2.980784886E-2,-1.700401306E-2,6.252146654E-2
6.809353920E0,4.249876738E-2,5.808156729E-2,4.502296448E-3,7.211022369E-2
6.814102566E0,-1.964400709E-2,5.997482687E-2,-8.100318909E-2,1.026858487E-1
6.818851160E0,1.833038032E-2,1.021261364E-1,-2.809333801E-2,1.074941218E-1
6.823599806E0,1.119554043E-2,7.290387154E-2,-1.124286652E-2,7.461043263E-2
6.828348452E0,4.891294241E-2,7.229901105E-2,-5.625534058E-2,1.038474183E-1
6.833097045E0,5.090510845E-2,2.902153693E-2,-3.442001343E-2,6.795820036E-2
6.837845691E0,-1.552373171E-3,5.269628018E-2,-2.121982574E-1,2.186490528E-1
6.842594337E0,-2.545659244E-2,4.742577672E-2,-5.848121643E-2,7.948141337E-2
6.847342931E0,-2.744962275E-2,4.474667087E-2,-1.458406448E-1,1.550007743E-1
6.852091577E0,-6.049112231E-2,6.814804673E-2,-1.208839417E-1,1.513811729E-1
6.856840222E0,-7.230341434E-4,3.903743625E-2,-3.440666199E-2,5.204097036E-2
6.861588816E0,6.373211741E-3,-1.348588616E-2,-1.077184677E-1,1.087462884E-1
6.866337462E0,1.396030188E-3,-5.616156384E-2,-2.609634399E-2,6.194424367E-2
6.871086108E0,2.758274972E-2,-6.035161763E-2,9.045314789E-2,1.121824309E-1
6.875834702E0,3.636807203E-3,-2.180127427E-2,-7.649230957E-2,7.962157591E-2
6.880583347E0,3.194931149E-2,-1.932803169E-2,-2.124691010E-2,4.296233819E-2
6.885331993E0,1.285880804E-2,2.362920344E-2,3.115749359E-2,4.116403292E-2
6.890080587E0,-4.895090312E-2,2.578177303E-2,-7.118988037E-2,9.016035605E-2
6.894829233E0,-4.857505113E-2,1.598775573E-2,-5.397605896E-2,7.435427941E-2
6.899577879E0,-5.049030483E-2,-1.257421635E-2,-1.247520447E-1,1.351682450E-1
6.904326472E0,-4.066246003E-2,2.065735497E-2,-9.752273560E-3,4.663977712E-2
6.909075118E0,-4.255767167E-2,-2.699323744E-2,-4.765892029E-2,6.936254730E-2
6.913823764E0,-8.971812576E-2,-2.667809278E-2,-1.042413712E-1,1.400975595E-1
6.918572358E0,-6.780751050E-2,-5.508553609E-2,-4.164028168E-2,9.677906708E-2
6.923321004E0,-3.115072846E-3,-2.381640859E-2,1.331233978E-2,2.746167124E-2
6.928069650E0,-1.021488011E-2,-1.019325107E-1,-7.226753235E-2,1.253681648E-1
6.932818243E0,4.083067179E-3,-6.317926198E-2,7.315826416E-2,9.674927492E-2
6.937566889E0,-2.189764380E-2,-7.443378121E-2,-1.102638245E-1,1.348258342E-1
6.942315535E0,-7.674530149E-3,-6.445733458E-2,-2.387142181E-2,6.916278749E-2
6.947064129E0,-5.210980773E-3,-4.263585806E-2,9.266090393E-2,1.021323349E-1
6.951812775E0,-3.823655099E-2,-1.364454348E-2,-9.804534912E-2,1.061183202E-1
6.956561420E0,-4.993541539E-2,-5.640637875E-2,-5.449199677E-2,9.297635713E-2
6.961310014E0,-4.937902093E-2,-2.037839592E-2,-6.590938568E-2,8.483875205E-2
6.966058660E0,-2.045238018E-2,-3.679531813E-2,-1.247158051E-1,1.316291279E-1
6.970807306E0,-1.234754920E-3,-2.939091809E-2,-5.720043182E-2,6.432138126E-2
6.975555900E0,-2.004872262E-2,1.124635711E-2,-1.208276749E-1,1.229949545E-1
6.980304545E0,1.367539167E-3,2.542980760E-2,-6.996250153E-2,7.445332026E-2
6.985053191E0,2.028866112E-2,6.199140102E-3,6.832122803E-2,7.153914528E-2
6.989801785E0,1.551143825E-2,1.805050299E-2,-1.103105545E-1,1.128487652E-1
6.994550431E0,3.663143516E-2,7.007706910E-2,-6.902885437E-2,1.049649484E-1
6.999299025E0,4.098497331E-2,2.913661860E-2,6.449890137E-2,8.178519951E-2
7.004047670E0,3.829470277E-2,5.741541833E-2,4.607200623E-3,6.916820671E-2
7.008796316E0,5.233199894E-2,3.800429404E-2,6.154632568E-2,8.927997919E-2
7.013544910E0,1.871182024E-2,1.869845018E-2,5.628395081E-2,6.219041224E-2
7.018293556E0,4.307582974E-3,6.675926968E-3,-5.339527130E-2,5.398312949E-2
7.023042202E0,-2.796858549E-3,3.514326364E-2,-6.244754791E-2,7.171169805E-2
7.027790795E0,4.374250770E-3,4.669602960E-2,1.404476166E-2,4.895823302E-2
7.032539441E0,7.089662552E-2,9.385129064E-2,-1.665086746E-1,2.038615584E-1
7.037288087E0,1.329416037E-2,1.238089800E-2,-5.591106415E-2,5.878833583E-2
7.042036681E0,1.787087321E-2,9.821543470E-3,2.527618408E-2,3.247639616E-2
7.046785327E0,4.157492518E-2,7.147067040E-2,-1.766967773E-2,8.455027287E-2
7.051533972E0,-1.100604236E-2,9.150363505E-3,1.571559906E-2,2.125657956E-2
7.056282566E0,2.226299047E-2,1.376860403E-2,7.494068146E-2,7.938086003E-2
7.061031212E0,-1.345190406E-2,4.226155579E-2,-7.288455963E-2,8.531794567E-2
7.065779858E0,-3.875270486E-3,-9.077880532E-4,1.556777954E-2,1.606852701E-2
7.070528452E0,2.238407731E-2,-2.704096027E-2,-2.492427826E-2,4.305206262E-2
7.075277097E0,1.973390579E-2,-7.533337921E-4,-7.457160950E-2,7.714220306E-2
7.080025743E0,2.947077155E-3,-5.520459265E-3,7.562255859E-2,7.588103915E-2
7.084774337E0,3.091484308E-3,-2.901241556E-2,-5.796337128E-2,6.489244903E-2
7.089522983E0,-3.257854283E-2,-5.731421709E-2,-6.460189819E-2,9.230214615E-2
7.094271577E0,1.048150659E-2,-9.722130746E-2,-1.658153534E-2,9.918060253E-2
7.099020222E0,-2.991223335E-2,-6.314123422E-2,-1.280298233E-1,1.458533264E-1
7.103768868E0,2.247886360E-2,-8.166203648E-2,-2.487277985E-2,8.827594626E-2
7.108517462E0,2.240286767E-2,-7.374028862E-2,-8.048057556E-3,7.748735300E-2
7.113266108E0,-1.820510626E-2,-2.558141015E-2,-1.219396591E-1,1.259170954E-1
7.118014754E0,2.690865099E-2,-1.123449393E-2,9.512710571E-2,9.949600793E-2
7.122763347E0,-6.327465177E-3,-6.562840939E-2,-1.250648499E-2,6.710839814E-2
7.127511993E0,-3.725659847E-2,-3.192682564E-2,-5.276107788E-2,7.204934187E-2
7.132260639E0,-2.988438308E-2,-7.919751108E-2,6.163883209E-2,1.047123094E-1
7.137009233E0,-3.494381905E-3,-5.227489397E-2,-3.858947754E-2,6.506937084E-2
7.141757879E0,1.535247266E-2,-3.521665186E-2,6.844520569E-3,3.902253768E-2
7.146506525E0,2.251578867E-2,-3.723683208E-2,-2.882862091E-2,5.219800558E-2
7.151255118E0,-3.790616989E-3,-2.508226223E-2,-1.188058853E-1,1.214838551E-1
7.156003764E0,5.648180842E-3,-1.156864688E-3,-7.507896423E-2,7.530000766E-2
7.160752410E0,-6.129458547E-3,3.698520735E-2,-1.290607452E-1,1.343955051E-1
7.165501004E0,-3.949183971E-2,6.030735373E-2,-6.387996674E-2,9.631839112E-2
7.170249650E0,-8.388131857E-3,3.832588717E-2,1.500034332E-2,4.200291280E-2
7.174998295E0,-4.862467945E-2,4.527544975E-2,-7.534313202E-2,1.004530405E-1
7.179746889E0,-3.655271232E-2,6.140561774E-2,7.485961914E-2,1.034925758E-1
7.184495535E0,4.226748645E-2,8.226482570E-2,2.912330627E-2,9.696498815E-2
7.189244181E0,-2.696698904E-2,9.353917092E-2,-4.946613312E-2,1.091956653E-1
7.193992775E0,-7.733553648E-4,4.988523200E-2,3.641891479E-2,6.176950546E-2
7.198741420E0,2.082648873E-2,7.332927734E-2,-7.072544098E-2,1.039856411E-1
7.203490014E0,-1.027166843E-2,8.619790897E-3,-7.488346100E-2,7.607457327E-2
7.208238660E0,-6.640851498E-4,3.463803977E-2,-6.476306915E-2,7.344719147E-2
7.212987306E0,-3.844747692E-2,2.256778441E-2,-1.805591583E-1,1.859815126E-1
7.217735900E0,-2.162611485E-2,2.467190474E-2,-3.185558319E-2,4.572931125E-2
7.222484545E0,5.466689169E-2,1.274201274E-2,-1.972293854E-2,5.949640528E-2
7.227233191E0,-2.173621953E-2,-3.718812019E-2,-8.840942383E-2,9.834452574E-2
7.231981785E0,1.868744195E-2,-2.749269642E-2,4.765605927E-2,5.810480899E-2
7.236730431E0,2.113182843E-2,1.321515627E-2,-3.109169006E-2,3.984830886E-2
7.241479025E0,1.852099597E-2,1.070534810E-2,2.614784241E-2,3.378374509E-2
7.246227670E0,5.162997544E-2,-1.312130503E-2,-1.443099976E-2,5.519127434E-2
7.250976316E0,-1.510784030E-2,5.349688232E-2,-2.855777740E-2,6.249567910E-2
7.255724962E0,-4.593519121E-2,7.859857753E-3,1.441764832E-2,4.878204320E-2
7.260473556E0,3.988477588E-2,6.474973261E-2,-3.318500519E-2,8.297329564E-2
7.265222202E0,-1.740188897E-2,4.803167656E-3,2.407073975E-2,3.008814835E-2
7.269970795E0,-1.013784111E-2,3.076815791E-2,9.984207153E-2,1.049661594E-1
7.274719441E0,-2.412952483E-2,4.513911903E-3,-7.066726685E-4,2.455827264E-2
7.279468087E0,-1.918341219E-2,-5.241413414E-2,-1.004152298E-1,1.148845644E-1
7.284216681E0,1.180836558E-2,-7.814672589E-2,1.373291016E-4,7.903396184E-2
7.288965327E0,1.182141900E-2,1.040797122E-2,-1.351928711E-1,1.361072526E-1
7.293713972E0,9.230837226E-3,-2.534517646E-2,3.212642670E-2,4.194870222E-2
7.298462566E0,3.538084030E-2,-3.763057292E-3,-3.224468231E-2,4.801753844E-2
7.303211212E0,-2.432827652E-2,-5.593116581E-2,-6.046581268E-2,8.588524234E-2
7.307959806E0,-4.446506500E-4,-7.219561934E-2,6.349563599E-2,9.614624775E-2
7.312708452E0,-3.119343519E-2,-9.536145627E-2,5.983352661E-3,1.005118811E-1
7.317457097E0,-4.515304416E-2,-4.710890353E-2,-2.730369568E-2,7.073569104E-2
7.322205691E0,5.077064037E-3,-5.620979518E-2,6.551647186E-2,8.647384424E-2
7.326954337E0,-2.004981041E-3,-3.909055889E-2,-3.474521637E-2,5.233853077E-2
7.331702983E0,-2.095612884E-2,-2.219950780E-2,-4.395294189E-2,5.351484452E-2
7.336451577E0,2.446720004E-2,-4.566598684E-2,-6.258296967E-2,8.124441103E-2
7.341200222E0,-1.369772851E-2,1.410049945E-2,-1.807689667E-1,1.818347359E-1
7.345948868E0,-4.176363349E-3,9.095463902E-3,-7.479763031E-2,7.546426290E-2
7.350697462E0,1.490566134E-2,-2.790644765E-3,-3.144073486E-2,3.490682236E-2
7.355446108E0,-3.985582292E-2,-5.196165293E-3,-2.880287170E-2,4.944787329E-2
7.360194754E0,1.033012569E-2,-1.696317829E-2,-6.417655945E-2,6.717954821E-2
7.364943347E0,-2.299736440E-2,-4.293386638E-2,6.931114197E-2,8.471263219E-2
7.369691993E0,-1.090960205E-2,4.286772013E-2,5.686187744E-2,7.204119621E-2
7.374440587E0,-1.542706788E-2,4.972245544E-2,2.314758301E-2,5.697479792E-2
7.379189233E0,-3.429503739E-2,4.690888152E-2,2.770328522E-2,6.437441080E-2
7.383937879E0,2.534103394E-2,4.889614508E-2,8.478164673E-3,5.572145260E-2
7.388686472E0,3.244934976E-2,6.760139018E-2,-5.807209015E-2,9.484342839E-2
7.393435118E0,4.873734713E-2,3.377490491E-2,2.076053619E-2,6.282573573E-2
7.398183764E0,5.550760031E-2,6.676374376E-2,-9.812068939E-2,1.310196965E-1
7.402932358E0,2.174633741E-2,2.108965069E-3,-3.794860840E-2,4.378867210E-2
7.407681004E0,1.684212685E-2,9.188763797E-3,7.395172119E-2,7.639991940E-2
7.412429597E0,1.653581858E-4,4.482071847E-3,-7.861042023E-2,7.873826566E-2
7.417178243E0,-2.129262686E-2,1.959556714E-3,7.514953613E-3,2.266473800E-2
7.421926889E0,2.633571625E-2,5.412121117E-2,3.119468689E-2,6.779221149E-2
7.426675483E0,2.619884908E-2,7.738661766E-2,2.444267273E-3,8.173764572E-2
7.431424129E0,4.259614646E-2,3.163694590E-2,4.753208160E-2,7.123641499E-2
7.436172775E0,8.999764919E-3,1.006685384E-2,1.389789581E-2,1.937753397E-2
7.440921368E0,-1.247446239E-2,1.942537352E-2,1.913070679E-3,2.316499920E-2
7.445670014E0,3.513774276E-2,1.217328012E-2,1.538400650E-1,1.582707026E-1
7.450418660E0,4.120945930E-3,2.883772366E-2,-9.910392761E-2,1.032965874E-1
7.455167254E0,-4.111151397E-2,9.493201971E-3,-8.059501648E-3,4.295617571E-2
7.459915900E0,2.341575921E-2,-1.195011660E-2,-3.885650635E-2,4.691408266E-2
7.464664493E0,1.612357795E-2,-4.753615707E-3,-1.026344299E-1,1.040018886E-1
7.469413139E0,4.207286239E-2,-4.984788224E-2,-6.814002991E-3,6.558481341E-2
7.474161785E0,-3.303959966E-3,-2.334192395E-2,-6.373691559E-2,6.795701563E-2
7.478910379E0,-2.235881984E-2,-6.697133183E-3,-2.521705627E-2,3.436085483E-2
7.483659025E0,1.346510649E-2,-2.091173455E-2,7.233333588E-2,7.649000728E-2
7.488407670E0,-1.980264485E-2,-2.064749040E-2,-1.374149323E-2,3.173786758E-2
7.493156264E0,-3.391457349E-2,5.586937070E-3,-3.736686707E-2,5.077100467E-2
7.497904910E0,4.351153970E-3,-7.291796803E-2,9.114933014E-2,1.168082317E-1
7.502653556E0,1.621094346E-2,-3.191757202E-2,-4.256439209E-2,5.561702586E-2
7.507402150E0,1.604387164E-2,-6.254058331E-2,7.412433624E-2,9.830131027E-2
7.512150795E0,6.610929966E-3,-5.003141239E-2,-4.757881165E-2,6.935841649E-2
7.516899389E0,-4.098761082E-2,-4.969776422E-2,-3.531074524E-2,7.346224022E-2
7.521648035E0,1.395615935E-2,-4.919500649E-2,-7.062911987E-2,8.719745192E-2
7.526396681E0,-1.219315827E-2,-9.620714188E-2,-1.578865051E-1,1.852906791E-1
7.531145275E0,-1.687176526E-2,-5.515633896E-2,-1.043386459E-1,1.192200957E-1
7.535893920E0,-1.441240311E-4,-6.421835721E-2,-8.502006531E-3,6.477887224E-2
7.540642514E0,-2.626170218E-2,-1.139246207E-2,-5.116462708E-2,5.862835711E-2
7.545391160E0,4.731982946E-3,-5.165582523E-2,6.559467316E-2,8.362641382E-2
7.550139806E0,3.106270730E-2,-3.211495280E-2,-6.790924072E-2,8.128915644E-2
7.554888400E0,-4.997767508E-2,-5.843583494E-3,-5.072212219E-2,7.144682746E-2
7.559637045E0,1.453752816E-2,-3.532165661E-3,2.804660797E-2,3.178723231E-2
7.564385691E0,-1.387621462E-2,1.563676260E-2,-5.053710938E-2,5.469055770E-2
