"Time (s)","Linear Acceleration x (m/s^2)","Linear Acceleration y (m/s^2)","Linear Acceleration z (m/s^2)","Absolute acceleration (m/s^2)"
3.977000000E-3,2.226233804E-1,-2.543684989E-2,2.268269438E-1,3.188395604E-1
1.403200000E-2,1.933221057E-1,3.114344001E-2,1.179781008E-1,2.286092358E-1
2.408700000E-2,3.025612503E-2,9.358702540E-2,-2.654694378E-2,1.018759277E-1
3.414200000E-2,-4.035835952E-2,2.516305402E-1,-2.529686755E-1,3.590819916E-1
4.419600000E-2,-1.064146471E-1,3.739844048E-1,-3.540372133E-1,5.258619216E-1
5.425100000E-2,-2.047373325E-1,4.267365226E-1,-3.764881825E-1,6.047849094E-1
6.430600000E-2,-1.609123050E-1,4.638900232E-1,-4.025924921E-1,6.349546742E-1
7.436000000E-2,-1.241574383E-1,4.662502518E-1,-3.596762681E-1,6.018067669E-1
8.441500000E-2,-1.044515906E-1,3.761253628E-1,-3.808969831E-1,5.454016273E-1
9.447000000E-2,-1.324920595E-1,2.095431590E-1,-2.531125170E-1,3.542999119E-1
1.045250000E-1,-1.525879164E-1,4.872981817E-2,6.612850070E-2,1.732935256E-1
1.145790000E-1,-1.371169147E-1,-6.433749855E-2,4.994662374E-1,5.219261292E-1
1.246340000E-1,-8.232499570E-2,-1.720753706E-1,8.132787001E-1,8.353499758E-1
1.346890000E-1,-7.971655279E-2,-2.581513551E-1,9.808762729E-1,1.017406071E0
1.447430000E-1,-1.393356407E-1,-2.987222609E-1,1.020584130E0,1.072493066E0
1.547980000E-1,-2.352102430E-1,-2.426471704E-1,9.148360652E-1,9.752571629E-1
1.648530000E-1,-3.135586935E-1,-1.502100000E-1,6.477756000E-1,7.351838724E-1
1.749080000E-1,-3.342807873E-1,-5.026208103E-2,3.713367856E-1,5.021562803E-1
1.849620000E-1,-3.422365089E-1,4.300217807E-2,1.297269112E-1,3.685160605E-1
1.950170000E-1,-2.596078965E-1,1.142402682E-1,-1.486444080E-1,3.202222023E-1
2.050720000E-1,-1.435748720E-1,1.606624827E-1,-2.918380415E-1,3.627611056E-1
2.151260000E-1,-8.528017849E-2,1.986758164E-1,-3.240000665E-1,3.895135838E-1
2.251810000E-1,-1.367327526E-2,1.593483210E-1,-2.635041887E-1,3.082422802E-1
2.352360000E-1,5.177037030E-2,3.145743549E-2,-1.524328190E-1,1.640289785E-1
2.452910000E-1,1.114767279E-1,-9.564992309E-2,2.510969818E-2,1.490183398E-1
2.553450000E-1,6.385524943E-2,-1.225009221E-1,1.695388484E-1,2.186947414E-1
2.654000000E-1,2.309065461E-3,-1.435349648E-1,2.378132772E-1,2.777818798E-1
2.754550000E-1,-2.604028255E-2,-1.920466818E-1,2.437441081E-1,3.114020143E-1
2.855090000E-1,-5.048500612E-2,-2.610176602E-1,1.905385387E-1,3.270839181E-1
2.955640000E-1,-1.015133648E-1,-3.075688058E-1,1.082378089E-1,3.414951783E-1
3.056190000E-1,-1.402257331E-1,-2.988602552E-1,7.687743723E-2,3.389555261E-1
3.156740000E-1,-1.378652121E-1,-2.242886674E-1,4.885114789E-2,2.677660503E-1
3.257280000E-1,-1.219352040E-1,-1.483216417E-1,-1.686921716E-2,1.927487324E-1
3.357830000E-1,-8.351812005E-2,-1.379051194E-1,-1.021046644E-1,1.908362147E-1
3.458380000E-1,-6.553325415E-2,-1.270687670E-1,-1.649645716E-1,2.182988521E-1
3.558920000E-1,-7.436430395E-2,7.747268379E-3,-2.136555058E-1,2.263597690E-1
3.659470000E-1,-5.951266855E-2,1.127942517E-1,-2.761025995E-1,3.041331064E-1
3.760020000E-1,-2.236530751E-2,9.691175222E-2,-3.029804957E-1,3.188875593E-1
3.860570000E-1,-8.080077276E-2,7.401230156E-2,-2.112745196E-1,2.379989670E-1
3.961110000E-1,-8.384395614E-2,1.113584679E-1,-1.926564002E-1,2.377961436E-1
4.061660000E-1,-4.454101905E-2,1.264372677E-1,-2.298522931E-1,2.660871318E-1
4.162210000E-1,-5.368182510E-2,1.212488870E-1,-1.840802890E-1,2.268668855E-1
4.262750000E-1,-8.624072984E-2,8.838636562E-2,-1.316483063E-1,1.805017719E-1
4.363300000E-1,-9.315652415E-2,4.940429449E-2,-1.203883231E-2,1.061313139E-1
4.463850000E-1,-9.460853398E-2,4.577492774E-2,1.204526424E-2,1.057885017E-1
4.564400000E-1,-7.776811436E-2,5.733808905E-2,-3.489150524E-2,1.027275679E-1
4.664940000E-1,-5.840359792E-2,1.183511531E-1,-1.192136174E-1,1.778478627E-1
4.765490000E-1,-1.474021670E-1,2.451081173E-1,-2.766346961E-1,3.979097173E-1
4.866040000E-1,-4.043890491E-1,2.622613630E-1,-3.607936710E-1,6.020661082E-1
4.966580000E-1,-1.151325679E0,1.931466892E-1,-5.567087245E-1,1.293360378E0
5.067130000E-1,-6.366068333E-2,8.352137987E-1,-6.119380152E-1,1.037353800E0
5.167680000E-1,6.188215037E-1,2.090699731E-1,-4.992726946E-1,8.221456870E-1
5.268230000E-1,4.289960329E-1,-3.088049072E-1,-2.863211936E-1,6.011471474E-1
5.368770000E-1,3.892487074E-1,1.435174231E-1,-1.165467024E-2,4.150272742E-1
5.469320000E-1,3.416148037E-1,2.650512157E-1,1.451495272E-1,4.560934184E-1
5.569870000E-1,2.093145329E-1,2.772238031E-2,3.011701977E-1,3.678105382E-1
5.670410000E-1,6.271358058E-2,-7.018369094E-2,5.564415067E-1,5.643455449E-1
5.770960000E-1,4.161609560E-3,-4.823148921E-2,6.590285665E-1,6.608042426E-1
5.871510000E-1,2.023370504E-2,-5.760691479E-2,8.190972644E-1,8.213697633E-1
5.972060000E-1,-1.449491139E-1,-7.426738635E-2,9.373601246E-1,9.514041693E-1
6.072600000E-1,-3.183753374E-1,-2.444077671E-2,9.427372241E-1,9.953460106E-1
6.173150000E-1,-4.795724018E-1,1.015338300E-1,9.527394712E-1,1.071452895E0
6.273700000E-1,-5.960890641E-1,1.885781135E-1,9.955118537E-1,1.175554222E0
6.374253333E-1,-5.886986952E-1,1.834701321E-1,1.003671058E0,1.177957145E0
6.474793333E-1,-5.720437784E-1,1.166998994E-1,1.108475967E0,1.252825575E0
6.575343333E-1,-5.573535993E-1,8.440265760E-2,1.380469728E0,1.491128269E0
6.675893333E-1,-5.114533950E-1,1.386817758E-1,1.724320507E0,1.803911977E0
6.776433333E-1,-3.950025869E-1,1.935997754E-1,1.939351863E0,1.988615992E0
6.876983333E-1,-2.589517658E-1,6.822765112E-2,1.896402310E0,1.915216110E0
6.977533333E-1,-1.676268089E-1,-7.133018374E-2,1.855169499E0,1.864092437E0
7.078083333E-1,-2.032090165E-1,-7.828581221E-2,1.875064065E0,1.887667297E0
7.178623333E-1,-3.230053090E-1,5.066173822E-2,1.890626430E0,1.918688964E0
7.279173333E-1,-3.992036652E-1,1.073906205E-1,1.724868391E0,1.773715670E0
7.379723333E-1,-5.657727858E-1,2.353611012E-1,8.268372238E-1,1.029151829E0
7.480263333E-1,-4.465950557E-1,2.397355494E-1,1.191654949E0,1.294975596E0
7.580813333E-1,-2.786993480E-1,8.836385384E-3,1.173314572E0,1.205992742E0
7.681363333E-1,-3.798239460E-1,4.277790812E-1,5.875779301E-1,8.200664584E-1
7.781913333E-1,-3.555677951E-1,9.237209094E-1,3.927972364E-1,1.064884240E0
7.882453333E-1,1.092375366E-1,6.569200605E-1,9.301475841E-1,1.143962995E0
7.983003333E-1,-5.427758329E-2,2.300073905E-1,1.370925318E0,1.391145457E0
8.083553333E-1,-2.351094516E-1,1.356140341E-1,1.404029329E0,1.430023069E0
8.184093333E-1,-4.819128229E-1,3.754823153E-1,1.286383350E0,1.424081831E0
8.284643333E-1,-5.463040428E-1,5.695129573E-1,1.430220762E0,1.633500703E0
8.385193333E-1,-4.052214734E-1,4.739538123E-1,1.362989477E0,1.498858557E0
8.485743333E-1,-1.341255523E-1,1.289363676E-1,1.432691211E0,1.444720858E0
8.586283333E-1,8.309266202E-2,-1.976553310E-1,1.405781740E0,1.422038790E0
8.686833333E-1,1.542409974E-1,-3.116753785E-1,1.186804683E0,1.236704161E0
8.787383333E-1,6.502812780E-2,-2.161913701E-1,9.668429554E-1,9.928507774E-1
8.887923333E-1,6.837726675E-2,-1.339828802E-1,7.736240530E-1,7.881123259E-1
8.988473333E-1,-1.426299620E-1,1.959699442E-1,5.209231800E-1,5.745506806E-1
9.089023333E-1,-2.901652993E-1,3.809881997E-1,6.091179031E-1,7.748370985E-1
9.189573333E-1,-3.941437040E-1,4.081561178E-1,4.098985881E-1,6.999696625E-1
9.290113333E-1,-3.615242806E-1,3.699599855E-1,2.793314320E-1,5.878743448E-1
9.390663333E-1,-3.574171963E-1,2.834930415E-1,2.899540687E-1,5.405448351E-1
9.491213333E-1,-2.596140361E-1,8.511017069E-2,2.465250438E-1,3.679915571E-1
9.591753333E-1,-7.829842027E-2,-1.185803640E-1,3.094311440E-1,3.404990135E-1
9.692303333E-1,1.683039165E-1,-3.891045005E-1,4.724187720E-1,6.347503578E-1
9.792853333E-1,1.838641248E-1,-4.292844468E-1,5.409124714E-1,7.146169984E-1
9.893403333E-1,1.793016703E-1,-3.343172593E-1,5.929427505E-1,7.039163474E-1
9.993943333E-1,3.016342108E-1,-6.106878074E-1,7.398587215E-1,1.005640951E0
1.009449333E0,2.011566803E-1,-7.290730206E-1,7.426788336E-1,1.059992136E0
1.019504333E0,1.561636532E-1,-5.356448610E-1,7.678703928E-1,9.491719780E-1
1.029558333E0,2.628696196E-1,-5.627812772E-1,7.587183309E-1,9.805491872E-1
1.039613333E0,-1.015632123E-2,-2.127063565E-1,6.573311198E-1,6.909640700E-1
1.049668333E0,-7.348246160E-3,-6.992465928E-3,7.963071567E-1,7.963717593E-1
1.059723333E0,6.727267290E-4,-1.429562366E-1,6.833535683E-1,6.981468595E-1
1.069777333E0,-3.825983036E-2,7.176996745E-2,7.729253107E-1,7.771925622E-1
1.079832333E0,-1.477528355E-1,1.357523207E-1,6.428668624E-1,6.734518511E-1
1.089887333E0,-2.031824482E-1,2.990352331E-1,7.212183827E-1,8.067596504E-1
1.099941333E0,-1.244754903E-1,1.737251624E-2,6.543811995E-1,6.663412836E-1
1.109996333E0,-5.793699468E-2,-8.302359179E-2,5.256664413E-1,5.353268344E-1
1.120051333E0,3.951825167E-2,-8.745446563E-2,4.765428132E-1,4.861100992E-1
1.130106333E0,1.361904782E-1,-1.246373850E-1,4.881659085E-1,5.219083045E-1
1.140160333E0,4.054704186E-2,1.949183956E-2,3.974732548E-1,4.000112282E-1
1.150215333E0,5.094083313E-2,1.926729186E-1,4.871964401E-1,5.263821742E-1
1.160270333E0,9.389259724E-2,-1.661185561E-1,5.317282498E-1,5.649301958E-1
1.170324333E0,-1.919838242E-1,2.605849662E-1,4.340370637E-1,5.414337319E-1
1.180379333E0,3.520916437E-2,-2.554253832E-2,5.888169551E-1,5.904214707E-1
1.190434333E0,-7.680898827E-2,5.981189981E-3,5.577460206E-1,5.630417558E-1
1.200489333E0,-3.108450647E-2,1.714388646E-1,5.015987170E-1,5.309979319E-1
1.210543333E0,-1.587429057E-2,1.919456711E-1,4.199815267E-1,4.620385445E-1
1.220598333E0,4.525017668E-2,1.647015931E-1,3.329708648E-1,3.742242510E-1
1.230653333E0,-1.649277524E-2,3.130395704E-1,3.051123905E-1,4.374464026E-1
1.240707333E0,8.541369600E-2,5.449012958E-2,3.958442205E-1,4.086041123E-1
1.250762333E0,5.969856433E-2,-4.546491567E-2,2.608390278E-1,2.714184510E-1
1.260817333E0,8.194494495E-2,-2.673756301E-2,1.994941342E-1,2.173195363E-1
1.270872333E0,6.890671385E-2,-7.227889448E-4,2.650092620E-1,2.738221440E-1
1.280926333E0,5.142119103E-2,1.635857251E-2,3.435280126E-1,3.477401864E-1
1.290981333E0,3.965377460E-2,-1.184729945E-2,4.128397375E-1,4.149089409E-1
1.301036333E0,4.189747915E-2,-7.307170384E-2,5.042814195E-1,5.112676625E-1
1.311091333E0,3.597728568E-1,-3.278863453E-1,2.922683966E-1,5.677735284E-1
1.321145333E0,3.328842529E-1,-2.066061391E-1,2.234571934E-1,4.510334132E-1
1.331200333E0,-3.804772262E-2,8.919013850E-2,6.457261509E-1,6.529661338E-1
1.341255333E0,-3.579033649E-2,1.927494440E-2,7.249062216E-1,7.260451100E-1
1.351309333E0,1.916342338E-1,-9.245178849E-2,4.152441126E-1,4.665819176E-1
1.361364333E0,1.895399987E-1,-1.237563193E-3,2.630621392E-1,3.242354572E-1
1.371419333E0,1.226659872E-1,8.795045570E-2,2.701723534E-1,3.094758918E-1
1.381474333E0,6.914239319E-2,7.272006691E-2,2.785081440E-1,2.960332160E-1
1.391528333E0,4.242430871E-2,3.778346501E-2,3.241251969E-1,3.290661871E-1
1.401583333E0,-1.964225004E-2,1.083258095E-1,4.736677372E-1,4.862935577E-1
1.411638333E0,-6.759280795E-2,1.671510648E-1,6.103364629E-1,6.364109239E-1
1.421692333E0,-7.263938447E-2,1.333627099E-1,6.758615309E-1,6.927127121E-1
1.431747333E0,-1.108829066E-1,6.247326002E-2,7.611671448E-1,7.717339888E-1
1.441802333E0,-1.236035790E-1,-3.715320826E-3,8.246269763E-1,8.338472872E-1
1.451857333E0,-1.556989458E-1,-6.625019588E-2,7.097876608E-1,7.296778561E-1
1.461911333E0,-1.845900200E-1,-1.337929188E-1,6.011370385E-1,6.429150485E-1
1.471966333E0,-1.712867822E-1,-1.713903692E-1,6.188254505E-1,6.645741182E-1
1.482021333E0,-1.740866666E-1,-1.280729531E-1,5.507872492E-1,5.916717356E-1
1.492075333E0,-1.225807183E-1,-9.270782344E-2,4.075988781E-1,4.356117750E-1
1.502130333E0,-8.202603852E-2,-5.743588373E-2,2.779158211E-1,2.954054084E-1
1.512185333E0,-1.114831415E-1,-2.455691703E-2,2.492808366E-1,2.741759809E-1
1.522240333E0,-1.666539784E-1,-2.430270933E-2,3.191708511E-1,3.608797617E-1
1.532294333E0,-1.906622621E-1,-3.588721298E-2,3.219441855E-1,3.758830255E-1
1.542349333E0,-1.665608615E-1,-8.633479692E-2,2.359047461E-1,3.014088037E-1
1.552404333E0,-1.993802231E-1,-9.555585600E-2,3.105485469E-1,3.812135818E-1
1.562458333E0,-2.272354449E-1,-5.689625882E-2,3.204969996E-1,3.969779067E-1
1.572513333E0,-1.903238545E-1,-7.376708396E-2,2.979934055E-1,3.611991445E-1
1.582568333E0,-1.636872108E-1,-3.852160290E-2,2.835361648E-1,3.296515943E-1
1.592623333E0,-1.351252434E-1,-2.498449467E-2,1.435052902E-1,1.986877567E-1
1.602677333E0,-1.133185825E-1,-7.895049445E-2,6.804638743E-2,1.539629584E-1
1.612732333E0,-1.512342860E-1,-5.949658871E-2,4.548256695E-2,1.687611247E-1
1.622787333E0,-1.787984808E-1,-3.304458909E-2,-5.261909366E-2,1.892871116E-1
1.632840458E0,-1.504025926E-1,-3.803833053E-2,-8.717029095E-2,1.779508755E-1
1.642895458E0,-9.747995540E-2,-3.668623500E-2,-8.689488709E-2,1.356427033E-1
1.652950458E0,-9.990373593E-2,2.373859920E-2,-1.002218610E-1,1.434876265E-1
1.663005458E0,-1.871429144E-1,1.021980006E-1,-5.258284092E-2,2.196175241E-1
1.673059458E0,-1.451525239E-1,9.437347591E-2,-8.212414384E-2,1.916245891E-1
1.683114458E0,-2.105571393E-2,7.079962201E-2,-2.455643463E-1,2.564327938E-1
1.693169458E0,1.266495947E-2,8.353917003E-2,-2.522132152E-1,2.659900375E-1
1.703223458E0,3.166804489E-2,7.562467128E-2,-2.389435440E-1,2.526182361E-1
1.713278458E0,4.957908969E-2,1.913537867E-2,-2.645508403E-1,2.698358685E-1
1.723333458E0,8.499633271E-2,-3.530570738E-2,-2.815194601E-1,2.961825045E-1
1.733388458E0,4.836813133E-2,-2.051451758E-2,-3.199877071E-1,3.242721917E-1
1.743442458E0,1.118692953E-2,-1.093400091E-2,-3.859747052E-1,3.862915645E-1
1.753497458E0,3.098728281E-2,-1.314380988E-3,-4.788963175E-1,4.798995959E-1
1.763552458E0,3.158633005E-2,9.772012979E-3,-5.316048735E-1,5.326320776E-1
1.773606458E0,5.901609376E-2,6.425468735E-2,-5.644434214E-1,5.711461635E-1
1.783661458E0,8.392958131E-2,1.219617357E-1,-4.899177343E-1,5.117990093E-1
1.793716458E0,3.503724709E-2,2.675764820E-1,-4.684643000E-1,5.406325765E-1
1.803771458E0,3.142125584E-2,2.820173505E-1,-4.662686706E-1,5.458274035E-1
1.813825458E0,1.212358039E-2,2.264169078E-1,-4.570055115E-1,5.101623613E-1
1.823880458E0,-3.630846832E-2,1.442665245E-1,-4.286997253E-1,4.537781280E-1
1.833935458E0,-1.130663300E-1,9.794948682E-2,-4.385154462E-1,4.633291416E-1
1.843990458E0,-1.396299018E-1,7.870973535E-2,-3.764566076E-1,4.091592713E-1
1.854044458E0,-1.844389426E-1,9.538285151E-2,-2.945341927E-1,3.603692586E-1
1.864099458E0,-1.952631255E-1,3.868832164E-2,-2.028849345E-1,2.842301375E-1
1.874154458E0,-2.065045072E-1,2.712589122E-2,-1.686336994E-2,2.089600410E-1
1.884208458E0,-1.718421763E-1,-1.156148024E-2,4.322963476E-2,1.775730911E-1
1.894263458E0,-1.199945496E-1,-6.452555962E-2,1.286937082E-1,1.874148081E-1
1.904318458E0,-1.344041355E-1,-5.786302283E-2,2.468133116E-1,2.869310228E-1
1.914372458E0,-1.483816853E-1,-3.084954433E-2,3.624466789E-1,3.928567346E-1
1.924427458E0,-1.884677838E-1,6.219317839E-3,3.941350794E-1,4.369224717E-1
1.934482458E0,-2.158625373E-1,2.409199029E-2,3.810186052E-1,4.385797950E-1
1.944537458E0,-2.355980596E-1,2.502045505E-2,4.030088139E-1,4.674917891E-1
1.954591458E0,-2.374342680E-1,5.281146705E-2,3.748737663E-1,4.468718198E-1
1.964646458E0,-2.601091856E-1,1.002899811E-1,4.147313118E-1,4.997168496E-1
1.974701458E0,-3.008238233E-1,2.202026331E-1,3.991712862E-1,5.461885096E-1
1.984756458E0,-2.694989734E-1,2.812342621E-1,3.506598616E-1,5.241037544E-1
1.994810458E0,-1.813452539E-1,2.735668083E-1,2.754564822E-1,4.284870748E-1
2.004865458E0,-1.220668029E-1,2.825984541E-1,2.061599600E-1,3.704917270E-1
2.014920458E0,-8.761899166E-2,3.120296101E-1,3.000235587E-1,4.416488436E-1
2.024974458E0,-6.817502618E-2,3.481169075E-1,5.287450004E-1,6.367138218E-1
2.035029458E0,-4.411420885E-2,3.548762157E-1,4.701868898E-1,5.907274356E-1
2.045084458E0,-9.206733406E-3,2.971457419E-1,4.622720987E-1,5.496142730E-1
2.055139458E0,2.850495704E-2,1.880581864E-1,4.387206835E-1,4.781780548E-1
2.065193458E0,7.081281479E-2,7.668513693E-2,2.880835444E-1,3.064101720E-1
2.075248458E0,1.053025067E-1,-9.770368449E-3,1.419487613E-1,1.770127929E-1
2.085303458E0,1.073206001E-1,-2.491008885E-2,5.938899994E-2,1.251610045E-1
2.095357458E0,7.354024854E-2,-5.763892829E-4,-6.628345191E-2,9.900503208E-2
2.105412458E0,7.333844651E-2,-1.729862206E-3,-1.744037318E-1,1.892040746E-1
2.115467458E0,1.116407423E-1,-3.187697321E-2,-3.049071532E-1,3.262639558E-1
2.125522458E0,9.434771162E-2,-2.026542619E-2,-4.061744964E-1,4.174804184E-1
2.135576458E0,3.712101202E-2,3.667008206E-3,-4.611184430E-1,4.626247237E-1
2.145631458E0,-9.870794378E-3,8.107456863E-3,-5.049743146E-1,5.051358449E-1
2.155686458E0,-1.961156130E-2,-1.792719774E-2,-5.032797915E-1,5.039807003E-1
2.165740458E0,-4.923494451E-2,-4.854789667E-2,-4.857299584E-1,4.906267120E-1
2.175795458E0,-6.728190053E-2,-3.758067627E-2,-4.748740178E-1,4.810867845E-1
2.185850458E0,-8.439966090E-2,-4.103181258E-2,-4.143588442E-1,4.248531089E-1
2.195905458E0,-1.207092621E-1,-5.546592023E-2,-3.159180450E-1,3.427118403E-1
2.205959458E0,-1.514755567E-1,-6.365151051E-2,-2.107564563E-1,2.672351828E-1
2.216014458E0,-1.621985097E-1,-4.294608135E-2,-6.738038957E-2,1.808116129E-1
2.226069458E0,-1.434629344E-1,-3.242624603E-2,3.941783488E-2,1.522722584E-1
2.236123458E0,-1.132065535E-1,-4.047139350E-2,1.304718465E-1,1.774163470E-1
2.246178458E0,-9.051445976E-2,-6.497480851E-2,1.913109559E-1,2.213921295E-1
2.256233458E0,-1.069715944E-1,-7.764020652E-2,2.473208499E-1,2.804256166E-1
2.266288458E0,-9.582559537E-2,-7.055908218E-2,3.367943591E-1,3.571996208E-1
2.276342458E0,-8.392333210E-2,-3.417858347E-2,3.601534009E-1,3.713782081E-1
2.286397458E0,-1.071881606E-1,1.403755680E-2,3.405582118E-1,3.573041427E-1
2.296452458E0,-8.223180570E-2,2.122097086E-2,3.414241844E-1,3.518279028E-1
2.306506458E0,-4.767454192E-2,-5.521233380E-4,3.069887620E-1,3.106690631E-1
2.316561458E0,-3.363574259E-2,3.962175652E-2,3.142749774E-1,3.185435735E-1
2.326616458E0,-2.319221344E-2,5.446381710E-2,3.632664585E-1,3.680580199E-1
2.336671458E0,-1.177592687E-3,6.370574344E-2,3.950624478E-1,4.001676475E-1
2.346725458E0,4.234546266E-2,5.448344182E-2,3.961237174E-1,4.020890239E-1
2.356780458E0,6.823623922E-2,7.172231264E-2,3.791708851E-1,3.918811485E-1
2.366835458E0,1.220376764E-1,5.975558382E-2,2.555092907E-1,2.893940599E-1
2.376889458E0,1.644082821E-1,1.534210715E-2,8.730360746E-2,1.867816462E-1
2.386944458E0,1.753785723E-1,-9.932043962E-3,-3.233919561E-2,1.786116253E-1
2.396999458E0,1.716096398E-1,1.321938515E-2,-1.433824986E-1,2.240159850E-1
2.407054458E0,1.561970372E-1,2.638567027E-2,-2.211112905E-1,2.719998544E-1
2.417108458E0,7.743917193E-2,4.428933296E-2,-2.664815909E-1,2.810174525E-1
2.427163458E0,2.835691284E-2,3.919052437E-2,-2.839460546E-1,2.880371046E-1
2.437218458E0,4.088296439E-2,-2.892215587E-3,-2.723609662E-1,2.754274453E-1
2.447272458E0,3.062066238E-2,-7.311022237E-2,-2.279852772E-1,2.413711171E-1
2.457327458E0,-1.646795198E-3,-8.812788215E-2,-1.933802855E-1,2.125209881E-1
2.467382458E0,-3.179620855E-2,-1.064523616E-1,-2.155640370E-1,2.425097075E-1
2.477437458E0,-3.470486943E-2,-1.780070785E-1,-2.240787524E-1,2.882745830E-1
2.487491458E0,-7.086445302E-2,-2.359602581E-1,-2.296359462E-1,3.367962023E-1
2.497546458E0,-9.041710362E-2,-2.416198512E-1,-2.327332163E-1,3.474480610E-1
2.507601458E0,-5.624082249E-2,-2.167189351E-1,-1.808216357E-1,2.877960926E-1
2.517656458E0,-3.001671810E-2,-1.967996276E-1,-1.166577995E-1,2.307382477E-1
2.527710458E0,-2.344229154E-2,-1.594699430E-1,-9.927285790E-2,1.893021502E-1
2.537765458E0,-1.159027778E-2,-1.140554962E-1,-8.293339849E-2,1.414953686E-1
2.547820458E0,3.442285091E-2,-1.123538833E-1,-1.260507667E-1,1.723285338E-1
2.557874458E0,4.280059531E-2,-1.487689537E-1,-1.694341832E-1,2.295038888E-1
2.567929458E0,4.912501685E-3,-1.274817631E-1,-1.866805458E-1,2.261091745E-1
2.577984458E0,-6.221547090E-3,-9.225864764E-2,-2.128830886E-1,2.320982015E-1
2.588039458E0,-8.194872737E-4,-1.022923966E-1,-2.005133039E-1,2.250999578E-1
2.598093458E0,4.429594763E-3,-9.355362318E-2,-1.167659730E-1,1.496869873E-1
2.608148458E0,8.942731619E-3,-5.154733557E-2,-1.647102177E-2,5.484883601E-2
2.618203458E0,6.244131960E-3,-2.013532564E-2,5.722494543E-2,6.098454642E-2
2.628257458E0,3.818779998E-3,-2.742154106E-2,1.109275281E-1,1.143304006E-1
2.638313375E0,1.200970586E-2,-4.139689811E-2,1.979340971E-1,2.025730559E-1
2.648368375E0,1.155058980E-2,-6.351187170E-2,2.491176993E-1,2.573456859E-1
2.658423375E0,-1.106391873E-2,-2.438171983E-2,2.900622422E-1,2.912953533E-1
2.668477375E0,-8.857983537E-3,-1.255605508E-2,3.065835500E-1,3.069683884E-1
2.678532375E0,1.212577309E-2,-7.639423795E-3,2.726381242E-1,2.730145453E-1
2.688587375E0,1.132982086E-2,4.606692307E-3,2.209423059E-1,2.212805663E-1
2.698641375E0,1.597422771E-3,2.998386405E-2,1.977925944E-1,2.000587271E-1
2.708696375E0,-7.105792277E-3,7.231525686E-2,2.168878466E-1,2.287363693E-1
2.718751375E0,-1.647222776E-2,1.183133290E-1,2.489142162E-1,2.760935803E-1
2.728806375E0,2.095028132E-2,1.184183961E-1,2.716680712E-1,2.970948867E-1
2.738860375E0,8.852315392E-2,1.004658726E-1,2.689292353E-1,3.004208281E-1
2.748915375E0,1.116035028E-1,6.373055756E-2,2.735426885E-1,3.022292644E-1
2.758970375E0,1.098542717E-1,3.400740623E-2,2.569365960E-1,2.814975650E-1
2.769025375E0,6.154347964E-2,5.332024790E-2,1.897240216E-1,2.064602942E-1
2.779079375E0,6.348629013E-2,-1.303103171E-2,1.258893836E-1,1.415925624E-1
2.789134375E0,1.000024442E-1,-8.969095252E-2,-1.723115981E-2,1.354321553E-1
2.799189375E0,8.076276585E-2,-9.595156632E-2,-1.673923355E-1,2.091638626E-1
2.809243375E0,6.326102614E-2,-7.801066417E-2,-2.817293751E-1,2.990970778E-1
2.819298375E0,7.476147607E-2,-6.198187463E-2,-3.565743202E-1,3.695622774E-1
2.829353375E0,7.082428996E-2,-5.786324210E-2,-4.015440863E-1,4.118274980E-1
2.839408375E0,5.511326004E-2,-4.548655037E-2,-4.082414871E-1,4.144485608E-1
2.849462375E0,3.976928908E-2,-3.270241734E-2,-3.954571348E-1,3.987949222E-1
2.859517375E0,7.864907049E-3,-1.387478493E-2,-3.612222719E-1,3.615741918E-1
2.869572375E0,3.313942362E-2,-1.586864892E-2,-3.164548194E-1,3.185807404E-1
2.879626375E0,3.443238918E-2,-6.122506220E-2,-2.226491082E-1,2.334667493E-1
2.889681375E0,-3.381024543E-2,-6.338710673E-2,-1.053405136E-1,1.275056148E-1
2.899736375E0,-1.096393865E-1,-5.244250774E-2,-1.863799989E-2,1.229568491E-1
2.909791375E0,-1.369598804E-1,-8.591778081E-2,3.467808187E-2,1.653555057E-1
2.919845375E0,-1.299441718E-1,-1.386875499E-1,7.791765690E-2,2.054042004E-1
2.929900375E0,-1.459929515E-1,-1.528193200E-1,1.349841428E-1,2.507756074E-1
2.939955375E0,-1.609768436E-1,-8.987689398E-2,1.793399513E-1,2.572046235E-1
2.950009375E0,-1.400437019E-1,-5.095621862E-2,2.018388677E-1,2.508938085E-1
2.960064375E0,-1.398890796E-1,-3.443523970E-2,2.243442160E-1,2.666178306E-1
2.970119375E0,-1.289229921E-1,1.337499417E-2,2.200541139E-1,2.553895875E-1
2.980174375E0,-1.146694173E-1,2.786380984E-2,2.146822768E-1,2.449774421E-1
2.990228375E0,-9.740715757E-2,3.530183360E-3,2.466718090E-1,2.652312159E-1
3.000283375E0,-1.003086191E-1,3.748328358E-2,2.822252190E-1,3.018573999E-1
3.010338375E0,-9.855949759E-2,5.726196561E-2,3.127354056E-1,3.328608435E-1
3.020392375E0,-8.552429974E-2,4.548242077E-2,3.072922325E-1,3.221980332E-1
3.030447375E0,-8.276949372E-2,3.784475114E-2,2.754728544E-1,2.901177481E-1
3.040502375E0,-8.842126619E-2,2.529593199E-2,2.069464105E-1,2.264619644E-1
3.050557375E0,-6.803067304E-2,2.254766755E-2,1.007533729E-1,1.236438916E-1
3.060611375E0,-1.054190855E-2,1.916709982E-2,-1.056825757E-2,2.429398320E-2
3.070666375E0,4.543326762E-2,-2.599014267E-3,-4.713382065E-2,6.551743074E-2
3.080721375E0,5.977520853E-2,3.607172918E-2,-5.127247989E-2,8.662050794E-2
3.090775375E0,5.218391463E-2,9.106091861E-2,-4.851844132E-2,1.156256502E-1
3.100830375E0,5.071611732E-2,8.535929862E-2,-8.642301679E-2,1.316330971E-1
3.110885375E0,5.627181273E-2,5.440603931E-2,-1.323809624E-1,1.537896395E-1
3.120940375E0,4.091676861E-2,2.043492235E-2,-1.521761262E-1,1.589004135E-1
3.130994375E0,4.144579545E-3,-1.245460588E-2,-1.588787895E-1,1.594200882E-1
3.141049375E0,-2.361555185E-2,-3.552611087E-2,-1.346911973E-1,1.412852344E-1
3.151104375E0,-4.235226005E-2,-2.146567684E-2,-1.223904097E-1,1.312779555E-1
3.161159375E0,-4.114393294E-2,-1.957918234E-2,-1.169817352E-1,1.255423991E-1
3.171213375E0,-1.222663756E-2,-3.378375024E-2,-1.057065493E-1,1.116454523E-1
3.181268375E0,1.971567828E-2,-3.756415788E-2,-1.283966696E-1,1.352238097E-1
3.191323375E0,-1.726536602E-3,-2.684970165E-2,-1.436900622E-1,1.461872818E-1
3.201377375E0,2.500821244E-2,-5.735493634E-2,-1.795440191E-1,1.901343057E-1
3.211432375E0,1.540997140E-2,-8.879691325E-2,-1.838885003E-1,2.047860825E-1
3.221487375E0,-1.765871552E-1,5.324227894E-2,-7.998932540E-2,2.010374488E-1
3.231542375E0,-1.406970552E-1,2.776497362E-2,-1.248064792E-1,1.901136827E-1
3.241596375E0,-1.360528311E-1,-1.688752625E-2,-1.852526557E-1,2.304649818E-1
3.251651375E0,-1.361844300E-1,2.898916131E-2,-1.255578464E-1,1.874869148E-1
3.261706375E0,-1.397991056E-1,5.640454452E-2,-9.796132743E-2,1.797823246E-1
3.271760375E0,-1.290808669E-1,6.133385696E-2,-4.078082085E-2,1.486162426E-1
3.281815375E0,-8.570987575E-2,5.229395192E-2,3.271341741E-2,1.055983328E-1
3.291870375E0,-5.274597824E-2,3.302421520E-2,5.840198994E-2,8.534359635E-2
3.301925375E0,-5.716153968E-2,5.496656802E-3,6.731782436E-2,8.848358227E-2
3.311979375E0,-7.686727770E-2,-5.024823043E-3,9.996809185E-2,1.262039881E-1
3.322034375E0,-1.027103994E-1,-2.512866508E-2,1.234060711E-1,1.625113360E-1
3.332089375E0,-1.135838086E-1,-3.452353265E-2,1.070900005E-1,1.598794048E-1
3.342144375E0,-7.543098226E-2,-4.004198860E-2,5.891245186E-2,1.037490767E-1
3.352198375E0,-3.725659434E-2,-5.647768954E-2,4.497795224E-2,8.124530402E-2
3.362253375E0,-2.491235465E-2,-6.758906208E-2,4.176373780E-2,8.326533806E-2
3.372308375E0,-4.407821193E-2,-2.105388667E-2,4.274840891E-2,6.491210500E-2
3.382362375E0,-4.903423883E-2,2.264518814E-2,2.895716608E-2,6.128359153E-2
3.392417375E0,-4.181256205E-2,2.506301181E-2,6.814345121E-3,4.922276105E-2
3.402472375E0,-6.097041596E-2,3.238526070E-2,-9.940851331E-3,6.974967568E-2
3.412527375E0,-8.123785213E-2,6.169883285E-2,-4.141115069E-2,1.100964032E-1
3.422581375E0,-7.124905363E-2,5.857949861E-2,-5.950360537E-2,1.097664081E-1
3.432636375E0,-4.039585479E-2,2.560299304E-2,-4.792904198E-2,6.770916778E-2
3.442691375E0,-8.132709526E-3,3.297017413E-2,5.858910084E-4,3.396345999E-2
3.452745375E0,2.465536952E-2,2.176090641E-2,2.340523481E-2,4.036371280E-2
3.462800375E0,-2.956132963E-3,2.818138674E-3,5.660572529E-2,5.675287449E-2
3.472855375E0,-6.753490224E-2,7.374389609E-3,1.467662823E-1,1.617271971E-1
3.482910375E0,-7.162177708E-2,-1.213533877E-2,1.447226804E-1,1.619308483E-1
3.492964375E0,-2.084177893E-2,-6.141837663E-2,4.401082277E-2,7.838079649E-2
3.503019375E0,2.329472244E-2,-8.732149629E-2,-1.609387636E-2,9.179706239E-2
3.513074375E0,5.178988539E-3,-2.312378274E-2,-5.406394064E-2,5.902915321E-2
3.523129375E0,-2.943221580E-2,5.027477131E-2,-9.615687668E-2,1.124275451E-1
3.533183375E0,-2.691593964E-2,7.748252355E-2,-1.295210892E-1,1.533092359E-1
3.543238375E0,2.400208935E-2,7.792347671E-2,-1.463505453E-1,1.675310438E-1
3.553293375E0,8.067827359E-2,6.794124719E-2,-1.773010272E-1,2.063023295E-1
3.563347375E0,9.007376242E-2,6.067557011E-2,-1.464721674E-1,1.823428181E-1
3.573402375E0,4.908339199E-2,5.878793358E-2,-7.388366282E-2,1.064142666E-1
3.583457375E0,8.414581865E-3,5.080851247E-2,-6.206819415E-3,5.187325645E-2
3.593512375E0,-5.302719276E-2,2.153937916E-2,3.965406239E-2,6.962953893E-2
3.603566375E0,-8.197653819E-2,-4.120221323E-2,9.486230314E-2,1.319720870E-1
3.613621375E0,-9.633649584E-2,-8.248372933E-2,1.236592555E-1,1.771324293E-1
3.623676375E0,-1.052710414E-1,-7.808663229E-2,1.568778723E-1,2.044264687E-1
3.633731125E0,-9.581474148E-2,-6.849937306E-2,1.675864631E-1,2.048361575E-1
3.643785125E0,-8.877264731E-2,-5.705270838E-2,1.536601496E-1,1.864055686E-1
3.653840125E0,-8.367749322E-2,-6.123739617E-2,1.093850327E-1,1.507216870E-1
3.663895125E0,-8.740819953E-2,-3.450294863E-2,5.462234974E-2,1.086933664E-1
3.673949125E0,-8.374046043E-2,-4.374841070E-3,2.121369839E-2,8.649638690E-2
3.684004125E0,-5.370079201E-2,8.682448296E-3,1.480515003E-2,5.637687858E-2
3.694059125E0,-5.050389994E-2,1.685954184E-2,3.927340865E-2,6.616108136E-2
3.704114125E0,-6.735510036E-2,2.988669978E-2,7.473384798E-2,1.049527151E-1
3.714168125E0,-7.053792257E-2,1.573869456E-2,1.127319789E-1,1.339096863E-1
3.724223125E0,-6.635138925E-2,-5.229210639E-3,1.304086965E-1,1.464113371E-1
3.734278125E0,-6.678463139E-2,-4.769870737E-2,1.500582647E-1,1.710346061E-1
3.744333125E0,-7.055045754E-2,-8.019277196E-2,1.722969800E-1,2.027177769E-1
3.754387125E0,-6.212067291E-2,-8.907250897E-2,1.927984875E-1,2.212784369E-1
3.764442125E0,-4.339485515E-2,-7.483324151E-2,2.319520283E-1,2.475578133E-1
3.774497125E0,-2.085051320E-2,-7.487863052E-2,2.023569310E-1,2.167714943E-1
3.784551125E0,-1.612545133E-2,-6.073063443E-2,1.518937057E-1,1.643774254E-1
3.794606125E0,-1.324343182E-2,-6.228198297E-2,1.120882004E-1,1.289115921E-1
3.804661125E0,-1.489311408E-2,-4.818132193E-2,4.739694536E-2,6.920776733E-2
3.814716125E0,-9.214115515E-3,-2.785288285E-2,1.899526477E-2,3.495000846E-2
3.824770125E0,-3.501170207E-2,-3.807670288E-3,3.064525723E-3,3.535122279E-2
3.834825125E0,-1.391820051E-2,-1.041051979E-2,-4.149652004E-2,4.498951437E-2
3.844880125E0,3.702369243E-2,-3.572850675E-2,-8.768426120E-2,1.016651841E-1
3.854935125E0,5.684842128E-2,-4.135625996E-2,-1.452150160E-1,1.613365554E-1
3.864989125E0,6.361781593E-2,-3.158321458E-2,-1.797065717E-1,1.932334802E-1
3.875044125E0,9.578740574E-2,-5.761873713E-2,-1.997666144E-1,2.289144954E-1
3.885099125E0,9.511102907E-2,-8.155696392E-2,-1.494390446E-1,1.950119849E-1
3.895153125E0,3.828840863E-2,-5.394750796E-2,-8.583010912E-2,1.083657856E-1
3.905208125E0,-5.816846676E-3,-4.901248536E-2,-7.739257693E-2,9.179145053E-2
3.915263125E0,-2.103901282E-4,-9.390498603E-2,-1.311694193E-1,1.613183412E-1
3.925318125E0,2.477900159E-2,-1.610946285E-1,-1.622035164E-1,2.299466437E-1
3.935372125E0,3.906670958E-3,-1.765884891E-1,-1.494261807E-1,2.313588988E-1
3.945427125E0,-3.361297499E-2,-1.534939607E-1,-1.238317484E-1,2.000613155E-1
3.955482125E0,-4.053118128E-2,-1.261519966E-1,-1.001195347E-1,1.660753568E-1
3.965536125E0,-4.048626736E-2,-1.401228769E-1,-7.093023419E-2,1.621871037E-1
3.975591125E0,-3.726945821E-2,-1.202479168E-1,-1.689494491E-2,1.270197354E-1
3.985646125E0,-2.132527057E-2,-7.661328927E-2,3.333497643E-3,7.959570003E-2
3.995701125E0,-3.684074767E-3,-5.843960398E-2,2.056114912E-2,6.206062015E-2
4.005755125E0,4.368783720E-3,-6.440824986E-2,6.501460612E-2,9.162100157E-2
4.015810125E0,2.013671435E-3,-5.958947721E-2,9.108324766E-2,1.088628434E-1
4.025865125E0,6.593247280E-3,-9.423295087E-2,9.056752324E-2,1.308655654E-1
4.035920125E0,-1.241700098E-2,-1.300824310E-1,1.296076280E-1,1.840482491E-1
4.045974125E0,-6.512223143E-2,-1.309851955E-1,1.443110365E-1,2.054840668E-1
4.056029125E0,-8.588423241E-2,-1.317559772E-1,1.394724655E-1,2.102101509E-1
4.066084125E0,-6.854559347E-2,-1.651212770E-1,1.036857516E-1,2.066743080E-1
4.076138125E0,-7.900651809E-2,-1.457471492E-1,8.664813459E-2,1.870619165E-1
4.086193125E0,-8.321468610E-2,-7.021648102E-2,5.412533641E-2,1.215919004E-1
4.096248125E0,-5.169530667E-2,-2.288035585E-2,-4.302264333E-2,7.104127853E-2
4.106303125E0,-2.704677109E-2,3.224766841E-3,-1.020853686E-1,1.056567529E-1
4.116357125E0,-2.976452038E-2,5.823627619E-2,-1.045745283E-1,1.233418928E-1
4.126412125E0,-5.344658431E-2,1.121556901E-1,-1.002160138E-1,1.596204424E-1
4.136467125E0,-5.435381636E-2,1.181596477E-1,-4.673737943E-2,1.382042775E-1
4.146522125E0,-2.518651597E-2,1.006610874E-1,2.621365249E-2,1.070241593E-1
4.156576125E0,4.874301095E-2,8.104598123E-2,5.607538283E-2,1.099489916E-1
4.166631125E0,1.132145935E-1,8.515262696E-2,7.600678682E-2,1.607654991E-1
4.176686125E0,1.514560782E-1,1.106371499E-1,3.085283339E-2,1.900826659E-1
4.186740125E0,1.676783740E-1,1.043350392E-1,-1.251713455E-2,1.978851085E-1
4.196795125E0,1.410890379E-1,8.722170990E-2,-1.426428258E-2,1.664848734E-1
4.206850125E0,7.868952591E-2,1.033499204E-1,-2.949569464E-2,1.332037670E-1
4.216905125E0,3.039645821E-2,8.502016012E-2,-3.168664634E-2,9.568916268E-2
4.226959125E0,1.461676005E-2,3.133707421E-2,-2.451562107E-2,4.238723358E-2
4.237014125E0,-2.253575385E-2,-3.231746955E-2,1.992497206E-2,4.415069140E-2
4.247069125E0,-3.370612845E-2,-4.910363797E-2,6.936610401E-2,9.142716632E-2
4.257124125E0,-4.865687415E-2,-7.230034646E-2,9.138204038E-2,1.262755273E-1
4.267178125E0,-4.746513851E-2,-1.145908270E-1,9.257253349E-2,1.547697353E-1
4.277233125E0,-2.851997707E-2,-1.170242920E-1,4.449555695E-2,1.284053293E-1
4.287288125E0,-1.040248901E-2,-1.222967812E-1,-3.480028868E-2,1.275765439E-1
4.297343125E0,-1.059537403E-2,-1.094103950E-1,-9.780988455E-2,1.471382683E-1
4.307397125E0,6.304431371E-3,-5.908280684E-2,-1.444566321E-1,1.561993678E-1
4.317452125E0,1.572034892E-2,-2.984793456E-2,-1.551558673E-1,1.587808922E-1
4.327507125E0,3.403189145E-2,1.305376276E-2,-1.567854863E-1,1.609666397E-1
4.337561125E0,1.566121895E-2,4.816073790E-2,-1.346461737E-1,1.438552138E-1
4.347616125E0,-3.029029470E-2,3.966451429E-2,-1.252508676E-1,1.348278735E-1
4.357671125E0,-7.089993831E-2,-3.937186114E-3,-9.578733265E-2,1.192372248E-1
4.367726125E0,-9.466835830E-2,-5.405524291E-2,-7.484669924E-2,1.322350019E-1
4.377780125E0,-1.206592684E-1,-7.302351912E-2,-4.685666263E-2,1.486157469E-1
4.387835125E0,-1.163733690E-1,-8.063816534E-2,-2.120492756E-2,1.431604822E-1
4.397890125E0,-1.227220565E-1,-6.204906279E-2,-1.102258623E-2,1.379575541E-1
4.407945125E0,-1.138838804E-1,-3.472931810E-2,-2.201827526E-2,1.210804203E-1
4.417999125E0,-8.455022670E-2,-2.387637421E-2,-4.468325257E-2,9.856680548E-2
4.428054125E0,-8.315347306E-2,-1.270007931E-2,-7.192601502E-2,1.106758498E-1
4.438109125E0,-9.745799180E-2,1.814202810E-2,-7.941746771E-2,1.270209728E-1
4.448163125E0,-1.339392819E-1,3.233066233E-2,-6.459009826E-2,1.521738603E-1
4.458218125E0,-1.454837321E-1,3.451841634E-2,-2.063482404E-2,1.509398335E-1
4.468273125E0,-1.296465120E-1,1.136216328E-2,1.092376828E-2,1.306010932E-1
4.478328125E0,-1.049917272E-1,-1.147692402E-2,2.942201972E-2,1.096386693E-1
4.488382125E0,-7.834534418E-2,-5.071571533E-2,5.192385972E-2,1.067996439E-1
4.498437125E0,-6.373479679E-2,-8.579085055E-2,4.112229824E-2,1.145130463E-1
4.508492125E0,-6.604382571E-2,-8.961308406E-2,3.444653213E-2,1.165283456E-1
4.518547125E0,-7.196698207E-2,-7.728682456E-2,-1.871050537E-2,1.072500945E-1
4.528601125E0,-8.026754323E-2,-3.811339416E-2,-7.946366072E-2,1.192056319E-1
4.538656125E0,-3.923072398E-2,5.946097551E-3,-1.650785923E-1,1.697802916E-1
4.548711125E0,-1.136183437E-2,2.955483374E-2,-2.617903697E-1,2.636982692E-1
4.558765125E0,-1.703070994E-2,6.913034244E-2,-2.736350745E-1,2.827458281E-1
4.568820125E0,-2.137687225E-2,9.949824066E-2,-1.920091134E-1,2.173116891E-1
4.578875125E0,2.189508174E-2,1.202968872E-1,-1.235727167E-1,1.738417441E-1
4.588930125E0,7.332284175E-2,1.189183696E-1,-7.567934275E-2,1.588873207E-1
4.598984125E0,9.869745534E-2,1.036283027E-1,-1.059515476E-2,1.435000701E-1
4.609039125E0,7.948423561E-2,7.772934001E-2,6.277278364E-2,1.276715175E-1
4.619094125E0,1.163234118E-2,7.576333252E-2,1.325300664E-1,1.531000079E-1
4.629149125E0,-5.432231449E-2,7.080741526E-2,1.680121404E-1,1.902437469E-1
4.639202583E0,-7.847255766E-2,6.593744293E-2,1.850105810E-1,2.115055644E-1
4.649257583E0,-5.834764738E-2,5.642108118E-2,1.826711100E-1,1.998912724E-1
4.659312583E0,-2.761047922E-2,6.641626594E-2,1.481052947E-1,1.646470081E-1
4.669367583E0,1.034759827E-2,8.923422103E-2,8.586811602E-2,1.242704806E-1
4.679421583E0,2.368933640E-2,1.078270146E-1,4.107785940E-2,1.177932098E-1
4.689476583E0,6.981685124E-3,1.228427192E-1,8.807076216E-3,1.233557546E-1
4.699531583E0,2.918491513E-4,1.417904937E-1,-3.471141100E-2,1.459777768E-1
4.709585583E0,1.002362598E-2,1.173900627E-1,-9.645742357E-2,1.522659991E-1
4.719640583E0,9.207281582E-3,7.491382345E-2,-1.661398619E-1,1.824809818E-1
4.729695583E0,1.112421814E-2,2.015438391E-2,-1.720133901E-1,1.735469786E-1
4.739750583E0,-2.597903296E-2,-8.269653143E-4,-1.344999933E-1,1.369884748E-1
4.749804583E0,-5.760421045E-2,6.698725568E-3,-4.502472997E-2,7.341896413E-2
4.759859583E0,-9.964740861E-2,-5.994419307E-3,4.926863909E-2,1.113235730E-1
4.769914583E0,-1.464770644E-1,-3.590991662E-2,1.055346411E-1,1.840723037E-1
4.779969583E0,-1.722433684E-1,-8.843635018E-2,1.130161536E-1,2.241905818E-1
4.790023583E0,-1.884114678E-1,-1.441403709E-1,1.236399597E-1,2.675110602E-1
4.800078583E0,-1.919644553E-1,-1.394304021E-1,1.177120525E-1,2.648533867E-1
4.810133583E0,-1.950972838E-1,-1.092265731E-1,1.032782006E-1,2.462920647E-1
4.820188583E0,-1.738285485E-1,-8.690886559E-2,5.865926743E-2,2.030035095E-1
4.830242583E0,-1.440715199E-1,-5.126722653E-2,-6.707925797E-3,1.530683757E-1
4.840297583E0,-1.380810475E-1,5.581532791E-4,-5.111635923E-2,1.472398363E-1
4.850352583E0,-1.265183612E-1,5.165183171E-2,-1.002236152E-1,1.694685236E-1
4.860407583E0,-1.285835613E-1,6.986778597E-2,-1.505465072E-1,2.099511624E-1
4.870461583E0,-1.505379922E-1,6.506355828E-2,-1.476837105E-1,2.206930721E-1
4.880516583E0,-1.636716060E-1,3.315085538E-2,-9.984646976E-2,1.945679608E-1
4.890571583E0,-1.648140423E-1,-2.757188075E-2,-1.334977806E-2,1.676367911E-1
4.900625583E0,-1.402771155E-1,-6.659398475E-2,1.004732913E-1,1.849521835E-1
4.910680583E0,-1.230687233E-1,-4.471039644E-2,1.305542922E-1,1.849036328E-1
4.920735583E0,-7.887042414E-2,-8.832510690E-2,1.987129462E-1,2.313194832E-1
4.930790583E0,-3.578729868E-2,-1.472655797E-1,2.178731024E-1,2.653988894E-1
4.940844583E0,-3.974359788E-2,-8.833012272E-2,3.075226128E-1,3.224157588E-1
4.950899583E0,-1.647124104E-3,-6.631789110E-2,3.913424492E-1,3.969252930E-1
4.960954583E0,9.997905537E-2,-8.619544133E-2,3.570233864E-1,3.806457198E-1
4.971009583E0,2.070641223E-1,-1.080973113E-1,2.830239487E-1,3.669647599E-1
4.981063583E0,2.524399045E-1,-8.682417233E-2,1.888656503E-1,3.270085261E-1
4.991118583E0,2.591064978E-1,-2.225003514E-2,7.155003905E-2,2.697232829E-1
5.001173583E0,2.326043217E-1,4.090856424E-2,-2.444019198E-2,2.374354735E-1
5.011228583E0,2.099401484E-1,9.713361751E-2,-1.091289246E-1,2.557712411E-1
5.021282583E0,1.964951338E-1,1.414042851E-1,-2.070089757E-1,3.185250783E-1
5.031337583E0,1.771771393E-1,1.536007455E-1,-3.055708122E-1,3.851732714E-1
5.041392583E0,1.486531057E-1,1.431739723E-1,-3.262617695E-1,3.860612315E-1
5.051447583E0,8.197701328E-2,1.225309073E-1,-3.277738595E-1,3.594019434E-1
5.061501583E0,1.423088036E-2,9.793923592E-2,-2.719276875E-1,2.893773991E-1
5.071556583E0,-4.052189883E-2,6.895824244E-2,-2.161657155E-1,2.304883512E-1
5.081611583E0,-5.672694538E-2,1.618668721E-2,-1.557470208E-1,1.665445576E-1
5.091665583E0,-5.140031464E-2,-1.609375531E-2,-1.173138571E-1,1.290873439E-1
5.101720583E0,-5.141358051E-2,-4.335901354E-2,-7.413041532E-2,1.000933504E-1
5.111775583E0,-6.897492528E-2,-7.203431642E-2,2.285208821E-2,1.023166702E-1
5.121830583E0,-1.075965156E-1,-8.299991056E-2,1.127518594E-1,1.765756980E-1
5.131884583E0,-1.369800533E-1,-8.516391026E-2,1.851684558E-1,2.455682871E-1
5.141939583E0,-1.245185769E-1,-7.578549712E-2,2.262773055E-1,2.691648873E-1
5.151994583E0,-1.021761832E-1,-6.217974349E-2,2.470647418E-1,2.744945893E-1
5.162049583E0,-6.315610517E-2,-4.285302839E-2,2.174117571E-1,2.304190699E-1
5.172103583E0,-4.345340040E-2,-2.571492154E-2,1.690804267E-1,1.764586237E-1
5.182158583E0,-1.660525192E-2,-3.165680727E-2,1.531514418E-1,1.572680895E-1
5.192213583E0,-2.153123874E-2,-7.604701384E-3,1.877470779E-1,1.891306189E-1
5.202268583E0,-4.775413714E-2,3.336190560E-2,2.176906693E-1,2.253501761E-1
5.212322583E0,-3.675428197E-2,5.321393821E-2,2.155733925E-1,2.250655194E-1
5.222377583E0,7.606679387E-3,4.620165571E-2,1.726279324E-1,1.788654735E-1
5.232432583E0,6.272585973E-2,1.376568868E-2,1.059310824E-1,1.238766397E-1
5.242487583E0,1.265826441E-1,-9.719981896E-3,5.081990540E-2,1.367490644E-1
5.252541583E0,1.461038659E-1,-9.345504278E-3,-1.912741184E-2,1.476466591E-1
5.262596583E0,1.415201604E-1,-1.167374678E-2,-6.796101809E-2,1.574259577E-1
5.272651583E0,1.097167160E-1,-1.613476119E-2,-9.291985810E-2,1.446796057E-1
5.282705583E0,9.364315867E-2,-3.433723488E-2,-1.543349183E-1,1.837589559E-1
5.292760583E0,8.636732206E-2,-3.669769188E-2,-2.363789552E-1,2.543246850E-1
5.302815583E0,8.296161130E-2,-3.215265116E-2,-2.662108648E-1,2.806860282E-1
5.312870583E0,7.644752070E-2,-2.609133605E-2,-2.192828661E-1,2.336877331E-1
5.322925583E0,7.017915934E-2,-1.748343062E-2,-1.965541542E-1,2.094381061E-1
5.332979583E0,4.921330981E-2,-8.500937931E-3,-1.804789889E-1,1.872615317E-1
5.343034583E0,6.369883642E-2,-4.076099513E-2,-1.224962443E-1,1.439594747E-1
5.353089583E0,7.225652888E-2,-5.755293768E-2,-1.071028644E-1,1.414368062E-1
5.363143583E0,8.400628947E-2,-6.659138091E-2,-9.238191426E-2,1.415128502E-1
5.373198583E0,8.078308493E-2,-8.446494872E-2,-4.041420043E-2,1.236670610E-1
5.383253583E0,5.357021637E-2,-8.404996086E-2,1.905432165E-2,1.014752737E-1
5.393308583E0,1.662304938E-2,-3.535602998E-2,7.293349028E-2,8.273855589E-2
5.403362583E0,1.320359766E-2,-8.933924250E-3,8.247673094E-2,8.400334006E-2
5.413417583E0,1.384562194E-2,-4.970133305E-5,6.454448998E-2,6.601283893E-2
5.423472583E0,2.059827894E-2,-4.876340311E-3,1.874441922E-2,2.827403477E-2
5.433527583E0,1.271520898E-2,-2.642265391E-2,-6.443046927E-3,3.002242549E-2
5.443581583E0,-1.124419570E-3,-1.695436724E-2,3.320282936E-2,3.729802629E-2
5.453636583E0,-5.395949475E-2,9.072832167E-3,3.302682817E-2,6.391177307E-2
5.463691583E0,-6.622980371E-2,3.069148678E-3,3.032190621E-2,7.290558668E-2
5.473746583E0,1.887612775E-2,-6.268518504E-2,7.261832535E-2,9.777096603E-2
5.483800583E0,9.855021514E-2,-6.796350315E-2,4.302088916E-2,1.272084100E-1
5.493855583E0,1.271731398E-1,-5.456687428E-2,-7.758670449E-3,1.386028434E-1
5.503910583E0,9.649119124E-2,-4.788584568E-2,-6.227284670E-4,1.077218269E-1
5.513965583E0,2.728391223E-2,-4.582108419E-2,6.090459824E-2,8.095278692E-2
5.524019583E0,-2.174871862E-2,2.568462566E-3,4.782028377E-2,5.259641909E-2
5.534074583E0,-3.907453023E-2,1.014755040E-2,-4.112346768E-3,4.057958955E-2
5.544129583E0,-7.343737409E-3,-2.180466916E-2,-5.346869409E-2,5.820889386E-2
5.554184583E0,2.204619572E-3,-4.209680982E-2,-6.277453780E-2,7.561510656E-2
5.564238583E0,-1.487714387E-2,-4.028819293E-2,-6.065199852E-2,7.431778269E-2
5.574293583E0,-2.115317971E-2,-2.267246906E-2,-6.365045071E-2,7.080167893E-2
5.584348583E0,-1.413922526E-2,-6.874132901E-3,-6.243656874E-2,6.438553028E-2
5.594403583E0,8.210952580E-4,-1.008184232E-2,-7.625704765E-2,7.692499632E-2
5.604457583E0,1.126553804E-2,-2.361781765E-2,-7.529693484E-2,7.971412707E-2
5.614512583E0,3.986894757E-2,-2.264845893E-2,-7.514198363E-2,8.802728767E-2
5.624567583E0,4.756286010E-2,-5.429823127E-2,-5.188468337E-2,8.889625385E-2
5.634622583E0,1.841061629E-2,-7.962303389E-2,-3.081599593E-2,8.734073462E-2
5.644676958E0,-4.763565794E-2,-6.847137038E-2,-5.157653511E-2,9.806948272E-2
5.654731958E0,-6.659562014E-2,-7.112889335E-2,-5.632096589E-2,1.125448679E-1
5.664786958E0,-6.754783921E-2,-5.936747488E-2,-1.613305271E-2,9.136456121E-2
5.674841958E0,-6.774247840E-2,-4.684308613E-2,1.161432445E-2,8.317578151E-2
5.684895958E0,-8.236292951E-2,-4.198224094E-2,1.344450295E-2,9.341796064E-2
5.694950958E0,-1.144430935E-1,-5.211897399E-2,1.435140610E-2,1.265684477E-1
5.705005958E0,-1.179642867E-1,-1.986611618E-2,4.046857953E-3,1.196938285E-1
5.715059958E0,-1.249695434E-1,1.351514462E-2,-2.815317392E-2,1.288124494E-1
5.725114958E0,-8.527608544E-2,3.090518424E-2,-1.630729973E-2,9.215784929E-2
5.735169958E0,-5.565365240E-2,1.435310544E-2,2.597917914E-2,6.307343665E-2
5.745224958E0,-3.658719778E-2,1.214161539E-2,2.099091947E-2,4.389374176E-2
5.755278958E0,-2.359285735E-2,1.880071694E-2,9.177789688E-3,3.153286696E-2
5.765333958E0,-3.908680938E-2,1.224655464E-2,3.305606425E-2,5.263516079E-2
5.775388958E0,-4.137701757E-2,3.369680945E-2,7.776387513E-2,9.431199725E-2
5.785443958E0,-5.554774471E-2,4.393363953E-2,7.010694623E-2,9.965290028E-2
5.795497958E0,-6.834890775E-2,3.517273804E-3,2.402854800E-2,7.253492624E-2
5.805552958E0,-5.344654776E-2,-5.992476935E-2,1.605937779E-2,8.188659880E-2
5.815607958E0,-5.792624585E-2,-8.279959775E-2,3.973358452E-2,1.085816793E-1
5.825662958E0,-1.053070383E-1,-5.018471505E-2,4.357403576E-2,1.245262002E-1
5.835716958E0,-1.251939303E-1,-9.236152209E-3,2.331635714E-2,1.276811623E-1
5.845771958E0,-1.029294142E-1,2.228456112E-3,1.009989560E-2,1.034477560E-1
5.855826958E0,-6.554553330E-2,5.935499473E-3,8.908817768E-3,6.641396031E-2
5.865881958E0,-2.219559208E-2,1.427022573E-2,1.852690279E-2,3.224173967E-2
5.875935958E0,5.377318785E-3,3.964106147E-2,7.562204003E-3,4.071260544E-2
5.885990958E0,2.443419859E-2,5.371752053E-2,-1.027940512E-3,5.902252734E-2
5.896045958E0,3.026131444E-2,4.552402280E-2,-1.134418309E-2,5.582897360E-2
5.906100958E0,3.333249137E-2,6.140135575E-2,-2.130842328E-2,7.304266131E-2
5.916154958E0,5.614986174E-2,5.725983229E-2,-7.448768020E-3,8.054178737E-2
5.926209958E0,4.756600298E-2,4.352193616E-2,4.509957433E-3,6.462989465E-2
5.936264958E0,1.304272614E-2,4.217301092E-2,2.640661061E-2,5.143913528E-2
5.946319958E0,3.972817585E-3,2.243089226E-2,3.142235219E-2,3.881098330E-2
5.956373958E0,2.624157295E-3,-1.395183570E-2,7.882631421E-3,1.623809715E-2
5.966428958E0,1.259629123E-2,-4.697960948E-2,-1.475194037E-2,5.082686302E-2
5.976483958E0,3.363947019E-2,-7.353904255E-2,-3.171295881E-2,8.686378123E-2
5.986538958E0,4.618108995E-2,-8.817130686E-2,-2.158733547E-2,1.018473636E-1
5.996592958E0,1.789036028E-2,-7.379189808E-2,2.512256205E-2,7.997782403E-2
6.006647958E0,-3.804790534E-2,-3.238038193E-2,3.986105382E-2,6.391428516E-2
6.016702958E0,-7.845932834E-2,-4.457990304E-2,1.049984515E-2,9.084866926E-2
6.026757958E0,-8.421554670E-2,-8.076634727E-2,-1.478994727E-2,1.176188918E-1
6.036811958E0,-5.996005364E-2,-8.615565285E-2,-3.808116138E-2,1.116610022E-1
6.046866958E0,-4.851244792E-2,-9.152873240E-2,-4.584217072E-2,1.132804973E-1
6.056921958E0,-5.978047103E-2,-8.387642646E-2,-1.768607318E-2,1.045072094E-1
6.066976958E0,-7.885028780E-2,-4.903418401E-2,1.811935186E-2,9.460459819E-2
6.077030958E0,-8.450352207E-2,-2.860830657E-2,8.114765882E-3,8.958308921E-2
6.087085958E0,-6.396839306E-2,-4.458651770E-2,-5.174201131E-3,7.814528283E-2
6.097140958E0,-5.605301723E-2,-7.284565413E-2,1.248380542E-2,9.275923385E-2
6.107195958E0,-3.987530641E-2,-9.489088140E-2,4.341382205E-2,1.117097998E-1
6.117249958E0,-1.355055682E-2,-1.175729984E-1,6.422523201E-2,1.346547733E-1
6.127304958E0,3.168606162E-3,-1.499074431E-1,9.243161559E-2,1.761416621E-1
6.137359958E0,-8.060679138E-3,-1.437015008E-1,1.102510053E-1,1.813019030E-1
6.147414958E0,-1.624400362E-2,-9.933443639E-2,9.105810463E-2,1.357305284E-1
6.157469958E0,-4.599756047E-2,-2.612883132E-2,2.490738451E-2,5.847109712E-2
6.167523958E0,-3.350951582E-2,-3.469028793E-2,-1.663942158E-2,5.102131004E-2
6.177578958E0,-9.179690033E-3,-5.090944089E-2,-4.795301557E-2,7.053743391E-2
6.187633958E0,4.854987010E-2,-2.731300212E-2,-1.322447222E-1,1.434982806E-1
6.197688958E0,9.760669380E-2,3.066579558E-2,-1.545161819E-1,1.853178571E-1
6.207742958E0,1.144308874E-1,7.918357909E-2,-1.017105621E-1,1.723644558E-1
6.217797958E0,7.012361079E-2,1.105478611E-1,-3.964996934E-2,1.367854907E-1
6.227852958E0,2.435950041E-2,7.197049040E-2,3.573876679E-2,8.396663743E-2
6.237907958E0,1.167542785E-3,-3.952586219E-2,7.904090703E-2,8.838055171E-2
6.247961958E0,-2.750237882E-2,-1.312099478E-1,1.222676182E-1,1.814436598E-1
6.258016958E0,-6.014431402E-2,-1.779599718E-1,1.652142477E-1,2.501656206E-1
6.268071958E0,-8.887329251E-2,-2.012612358E-1,2.085035241E-1,3.031142800E-1
6.278126958E0,-1.119016743E-1,-2.176770014E-1,2.625084078E-1,3.589093560E-1
6.288180958E0,-1.338945141E-1,-2.229183725E-1,2.598607886E-1,3.676247695E-1
6.298235958E0,-1.483252962E-1,-1.989306088E-1,1.856490970E-1,3.099021907E-1
6.308290958E0,-4.657979697E-2,-2.591077403E-1,7.742181301E-2,2.744096130E-1
6.318345958E0,2.489393592E-2,-2.651187511E-1,-4.566909313E-2,2.701727712E-1
6.328399958E0,3.728930220E-2,-2.378746730E-1,-1.052183068E-1,2.627655689E-1
6.338454958E0,1.304218528E-1,-3.368833099E-1,-1.297608250E-1,3.838464483E-1
6.348509958E0,5.573346689E-2,-8.410708085E-2,-1.897865868E-1,2.149399193E-1
6.358564958E0,-4.445623443E-2,2.237211952E-1,-2.533241862E-1,3.408821985E-1
6.368618958E0,-1.997935116E-2,1.727632224E-1,-2.233057505E-1,2.830402157E-1
6.378673958E0,-8.811753988E-3,4.073367767E-2,-1.299508595E-1,1.364701630E-1
6.388728958E0,-1.892495200E-2,-9.652291238E-3,-3.768647432E-2,4.326188717E-2
6.398783958E0,-3.169994876E-2,-1.321690008E-3,-1.995596230E-2,3.748164947E-2
6.408837958E0,-1.620424256E-2,-1.492158271E-2,-2.359526932E-2,3.227952667E-2
6.418892958E0,-2.275634006E-2,-4.805307604E-2,-3.840919018E-2,6.559127244E-2
6.428947958E0,-2.886960402E-2,-7.151400559E-2,-7.924731374E-3,7.752746867E-2
6.439002958E0,-5.425894529E-2,-3.083112560E-2,1.696745038E-2,6.467214100E-2
6.449056958E0,-2.744229868E-2,-3.405630358E-2,3.487805665E-2,5.594095463E-2
6.459111958E0,-5.806723684E-3,-7.191782892E-2,5.771201849E-3,7.238231087E-2
6.469166958E0,-1.619035542E-2,-7.980228759E-2,-1.097990155E-2,8.216502268E-2
6.479221958E0,-1.046300769E-2,-3.682415619E-2,7.000812829E-2,7.979117141E-2
6.489275958E0,-1.579639927E-2,2.590543114E-2,8.216156602E-2,8.758504737E-2
6.499330958E0,2.247099593E-2,2.990967751E-2,4.442422092E-2,5.807792929E-2
6.509385958E0,5.723371625E-2,-1.974743597E-2,5.764711440E-2,8.359933792E-2
6.519440958E0,6.871223912E-2,-6.951023787E-3,1.131196493E-1,1.325358200E-1
6.529494958E0,7.823209092E-2,2.841922224E-2,1.475422078E-1,1.694007536E-1
6.539549958E0,1.181650655E-1,3.109227687E-2,1.619526708E-1,2.028752818E-1
6.549604958E0,1.479379182E-1,1.563793972E-2,1.554651850E-1,2.151734104E-1
6.559659958E0,1.307342403E-1,1.759865731E-2,1.429767019E-1,1.945340371E-1
6.569714958E0,1.137493944E-1,6.226597622E-2,1.054516107E-1,1.671407153E-1
6.579768958E0,8.813157320E-2,1.047648552E-1,1.765800655E-2,1.380385971E-1
6.589823958E0,7.184810087E-2,1.213064821E-1,-7.569337606E-2,1.600215591E-1
6.599878958E0,4.976316735E-2,1.181644808E-1,-1.233937919E-1,1.779473102E-1
6.609933958E0,5.651246220E-2,1.309099491E-1,-1.682992387E-1,2.205803865E-1
6.619987958E0,7.171858504E-2,1.094787343E-1,-1.972341853E-1,2.367075676E-1
6.630042958E0,7.787497222E-2,5.563494131E-2,-2.235484099E-1,2.431741137E-1
6.640097708E0,6.129299954E-2,2.121077478E-3,-2.424764317E-1,2.501122762E-1
6.650152708E0,1.622368455E-2,-1.657276332E-2,-2.094846869E-1,2.107645569E-1
6.660206708E0,-1.892158985E-2,-3.907416478E-2,-1.587735397E-1,1.646021076E-1
6.670261708E0,-3.578583688E-2,-6.533167139E-2,-5.680160701E-2,9.367644296E-2
6.680316708E0,-7.049140066E-2,-8.083687931E-2,-1.390409410E-2,1.081524963E-1
6.690371708E0,-1.126911946E-1,-1.256150030E-1,5.159173787E-2,1.764656956E-1
6.700425708E0,-1.513051835E-1,-1.498667684E-1,7.888420165E-2,2.271035537E-1
6.710480708E0,-1.488566619E-1,-1.307532437E-1,4.585328043E-2,2.033647950E-1
6.720535708E0,-6.667974696E-2,-1.057509881E-1,2.617213726E-2,1.277279958E-1
6.730590708E0,-1.203766286E-2,-9.373919919E-2,-5.589938164E-3,9.467412635E-2
6.740644708E0,-2.124439627E-2,-4.674424991E-2,-6.565955400E-2,8.335182244E-2
6.750699708E0,-2.929937437E-2,-1.660287648E-2,-9.558151066E-2,1.013406830E-1
6.760754708E0,-6.773268431E-2,2.468095109E-2,-4.387984514E-2,8.439375973E-2
6.770809708E0,-6.895840690E-2,3.680939198E-2,1.715456128E-2,8.002794632E-2
6.780864708E0,-2.843515590E-2,7.538376600E-3,-4.503057718E-2,5.378789914E-2
6.790918708E0,6.849428415E-3,-1.526123285E-3,-4.195143342E-2,4.253429778E-2
6.800973708E0,3.065344334E-2,-1.046490803E-2,4.319922924E-2,5.399371533E-2
6.811028708E0,5.441872045E-2,1.599067301E-2,7.686398864E-2,9.552576358E-2
6.821083708E0,5.655865520E-2,1.442522720E-2,3.973943174E-2,7.061296689E-2
6.831137708E0,-2.581925780E-2,-4.549879298E-2,-1.265805244E-2,5.382379146E-2
6.841192708E0,-5.359046236E-2,-4.775844947E-2,9.418110251E-2,1.184182723E-1
6.851247708E0,-2.240156025E-2,-2.653144866E-2,1.433105779E-1,1.474573477E-1
6.861302708E0,-7.699175030E-3,-4.899528176E-2,9.609898925E-2,1.081426404E-1
6.871356708E0,3.970581025E-2,-7.363807976E-2,4.071708620E-2,9.304299687E-2
6.881411708E0,7.921223044E-2,-3.770547777E-2,-5.141105890E-2,1.016827295E-1
6.891466708E0,7.020079404E-2,4.156361684E-2,-1.280242020E-1,1.518087021E-1
6.901521708E0,4.557173699E-3,1.041666850E-1,-1.262542498E-1,1.637424859E-1
6.911575708E0,-2.657851875E-2,1.452974617E-1,-9.917345524E-2,1.779133055E-1
6.921630708E0,-1.967237234E-2,1.484246989E-1,-5.783539474E-2,1.605049107E-1
6.931685708E0,3.008830994E-3,1.056473462E-1,-5.702087760E-2,1.200907795E-1
6.941740708E0,1.774995402E-2,1.045192721E-1,-4.574510694E-2,1.154640807E-1
6.951795708E0,2.927437752E-2,1.537528279E-1,-4.740863979E-2,1.635374587E-1
6.961849708E0,5.142596930E-2,2.188848169E-1,-9.912609279E-2,2.457258140E-1
6.971904708E0,6.880155534E-2,2.799938484E-1,-1.440426493E-1,3.223018678E-1
6.981959708E0,9.235092402E-2,2.949834781E-1,-2.133105201E-1,3.755600132E-1
6.992014708E0,1.382229155E-1,2.475350042E-1,-2.738520062E-1,3.941751818E-1
7.002068708E0,1.568163304E-1,2.031775146E-1,-2.321192586E-1,3.460517507E-1
7.012123708E0,9.491507426E-2,2.372083828E-1,-1.503360075E-1,2.964415682E-1
7.022178708E0,3.935804710E-2,2.450956920E-1,-1.294690490E-1,2.799699783E-1
7.032233708E0,5.693360791E-2,2.554432902E-1,-1.467352921E-1,3.000399243E-1
7.042287708E0,8.250494376E-2,2.257235742E-1,-8.985708654E-2,2.565784357E-1
7.052342708E0,1.255097531E-1,1.185391411E-1,-2.780351043E-2,1.748635505E-1
7.062397708E0,1.196246767E-1,1.358001217E-2,7.233005762E-3,1.206101007E-1
7.072452708E0,6.409469292E-2,-7.500742458E-2,7.619331300E-2,1.246581901E-1
7.082506708E0,1.571950838E-2,-1.084722823E-1,8.595699370E-2,1.392908602E-1
7.092561708E0,-3.149690419E-2,-8.665653996E-2,6.324406922E-2,1.118088690E-1
7.102616708E0,-1.421772413E-1,6.176253095E-2,9.346657276E-2,1.810109897E-1
7.112671708E0,-2.582709306E-1,2.169667840E-1,1.564369923E-1,3.718211822E-1
7.122726708E0,-3.566431712E-1,2.270027988E-1,1.858666134E-1,4.618127544E-1
7.132780708E0,-3.605435564E-1,1.392738064E-1,1.883253676E-1,4.299480123E-1
7.142835708E0,-3.082826047E-1,7.776372895E-2,1.097060448E-1,3.363343250E-1
7.152890708E0,-2.538138905E-1,2.613522671E-2,5.974392593E-2,2.620570125E-1
7.162945708E0,-2.419472587E-1,2.707260847E-3,7.101501882E-2,2.521684718E-1
7.172999708E0,-2.091275682E-1,1.577710345E-2,1.010621059E-1,2.328020747E-1
7.183054708E0,-2.026020755E-1,6.579864465E-2,9.778006375E-2,2.343885737E-1
7.193109708E0,-2.380590065E-1,5.427334405E-2,4.398100197E-2,2.480967855E-1
7.203164708E0,-2.746691546E-1,2.388434105E-2,1.348718762E-1,3.069267490E-1
7.213218708E0,-2.545883542E-1,8.968415514E-2,1.948432589E-1,3.328999449E-1
7.223273708E0,-1.623651919E-1,1.054019824E-1,9.424600661E-2,2.153005880E-1
7.233328708E0,-8.192080691E-2,5.655591432E-2,6.957601905E-3,9.978977039E-2
7.243383708E0,-4.280761197E-2,2.195037447E-2,6.766748786E-2,8.302529431E-2
7.253438708E0,1.714842170E-2,3.375740122E-2,5.272726715E-2,6.491375205E-2
7.263492708E0,1.504462275E-1,3.308672559E-2,-7.054139435E-2,1.694251666E-1
7.273547708E0,1.987568003E-1,-4.570088737E-2,9.710237145E-2,2.258798515E-1
7.283602708E0,1.193964891E-1,-4.296077248E-2,3.892959237E-2,1.327277768E-1
7.293657708E0,5.984289005E-2,2.357926257E-2,-2.977986932E-3,6.438960723E-2
7.303711708E0,2.824716792E-2,4.542628750E-2,-5.315937638E-2,7.541464970E-2
7.313766708E0,2.927437752E-2,4.812718950E-2,-9.728597403E-2,1.124178646E-1
7.323821708E0,2.258209303E-2,3.302755907E-2,-1.270488864E-1,1.331998128E-1
7.333876708E0,1.084059164E-2,2.485903535E-2,-1.279440951E-1,1.307867789E-1
7.343930708E0,-1.535917372E-3,4.774668194E-2,-1.113795179E-1,1.211920034E-1
7.353985708E0,-1.387018025E-2,7.129524663E-2,-7.010109901E-2,1.009433414E-1
7.364040708E0,-4.500309527E-3,9.470479377E-2,-3.062069893E-2,9.963371895E-2
7.374095708E0,-1.851959378E-3,9.314852078E-2,1.109158337E-2,9.382483625E-2
7.384150708E0,1.278318286E-2,1.086358947E-1,5.040767670E-2,1.204412772E-1
7.394204708E0,2.623207122E-2,8.680582669E-2,5.923755705E-2,1.083164866E-1
7.404259708E0,4.680871546E-2,5.600159828E-2,6.758270323E-2,9.947188864E-2
7.414314708E0,4.945589617E-2,3.601022378E-2,7.341822445E-2,9.556598539E-2
7.424369708E0,2.328916758E-2,3.112904124E-2,5.811196804E-2,6.991711782E-2
7.434423708E0,-1.581584126E-2,2.605628930E-2,6.941931367E-2,7.581630535E-2
7.444478708E0,-5.095716879E-2,2.016649861E-2,5.431829453E-2,7.716085690E-2
7.454533708E0,-5.928535804E-2,1.509630483E-2,4.879033685E-2,7.825055314E-2
7.464588708E0,-5.155972436E-2,-3.298999071E-3,3.855186224E-2,6.446343656E-2
7.474643708E0,-5.344749793E-2,-3.068680901E-2,4.797231138E-2,7.810030692E-2
7.484697708E0,-8.237177342E-2,-3.291905668E-2,4.500367999E-2,9.946911361E-2
7.494752708E0,-1.446466666E-1,-2.528683227E-2,3.107444286E-2,1.500923151E-1
7.504807708E0,-1.937602083E-1,-1.431895405E-2,-8.534011245E-3,1.944759114E-1
7.514862708E0,-2.055524343E-1,-3.626856107E-2,-1.268027186E-2,2.091124125E-1
7.524916708E0,-1.913697204E-1,-5.050174378E-2,-1.266039133E-2,1.983256956E-1
7.534971708E0,-1.481953418E-1,-5.172187496E-2,-2.150021195E-2,1.584274938E-1
7.545026708E0,-1.108468366E-1,-4.837880250E-2,-3.279878676E-2,1.253127692E-1
7.555081708E0,-6.148741946E-2,-9.184612658E-2,-2.846541524E-2,1.141345416E-1
7.565135708E0,-3.285170406E-2,-9.047670867E-2,-3.542126298E-2,1.025667351E-1
7.575190708E0,-7.750922889E-3,-4.894693259E-2,-3.652872562E-2,6.156481797E-2
7.585245708E0,2.462569490E-2,-2.717639655E-2,-5.076084852E-2,6.262303986E-2
7.595300708E0,1.974034622E-2,-2.170460869E-2,-5.276001155E-2,6.036878437E-2
7.605355708E0,-7.145268291E-2,-1.264460385E-5,-1.637103438E-2,7.330413919E-2
7.615409708E0,-1.660122465E-1,4.376392409E-2,1.011509836E-2,1.719815753E-1
7.625464708E0,-2.003995755E-1,3.689582113E-2,-1.917360485E-2,2.046678251E-1
7.635519708E0,-1.579103445E-1,1.999937788E-2,-3.532361448E-2,1.630441957E-1
7.645575208E0,-9.888036355E-2,-1.138430960E-2,-1.632133305E-2,1.008628510E-1
7.655629208E0,-7.328710064E-2,-4.365644496E-2,1.255455673E-2,8.622355364E-2
7.665684208E0,-6.606089227E-2,-3.322757039E-2,3.171295881E-2,8.046008127E-2
7.675739208E0,-8.652899757E-2,-2.043057349E-2,7.105828822E-2,1.138154474E-1
7.685794208E0,-1.267829112E-1,-3.455967575E-2,8.501559198E-2,1.565117524E-1
7.695849208E0,-1.259463939E-1,-9.921997715E-2,5.061583757E-2,1.681340567E-1
7.705903208E0,-9.019622505E-2,-1.661539683E-1,1.273757458E-2,1.894854771E-1
7.715958208E0,-6.336474113E-2,-2.121972102E-1,-2.363386095E-2,2.227135061E-1
7.726013208E0,-6.543743290E-2,-1.980385429E-1,-8.776319861E-2,2.262823483E-1
7.736068208E0,-7.140035033E-2,-1.579983450E-1,-1.172863752E-1,2.093264935E-1
7.746122208E0,-8.037122168E-2,-1.394356281E-1,-1.180412507E-1,1.995884879E-1
7.756177208E0,-1.023023003E-1,-1.001110563E-1,-9.407292902E-2,1.712825158E-1
7.766232208E0,-1.303653540E-1,-7.411404312E-2,-8.384790301E-2,1.718094519E-1
7.776287208E0,-1.661433703E-1,-6.328134522E-2,-8.711357296E-2,1.979821273E-1
7.786342208E0,-1.572458815E-1,-4.496179931E-2,-3.920558095E-2,1.681811768E-1
7.796396208E0,-1.374815617E-1,-2.558566153E-2,-2.213931262E-2,1.415837386E-1
7.806451208E0,-1.065493523E-1,9.015383273E-3,-1.714462101E-2,1.082957970E-1
7.816506208E0,-3.516668983E-2,1.028189018E-2,1.298783541E-2,3.887283380E-2
7.826561208E0,3.031335466E-2,2.318983801E-2,2.725738049E-2,4.690024358E-2
7.836615208E0,7.929233730E-2,6.429327898E-2,3.018098831E-2,1.064508926E-1
7.846670208E0,9.100708768E-2,9.252407469E-2,9.946698546E-3,1.301611740E-1
7.856725208E0,9.136040568E-2,1.055876315E-1,-2.167972147E-2,1.412992639E-1
7.866780208E0,5.997489095E-2,1.330770003E-1,-1.372341514E-2,1.466110762E-1
7.876835208E0,3.649715066E-2,1.497674388E-1,-4.327524304E-3,1.542110736E-1
7.886889208E0,3.517904207E-2,1.336153096E-1,-6.877495050E-3,1.383398565E-1
7.896944208E0,4.979203798E-2,1.152035239E-1,-1.465019882E-2,1.263555590E-1
7.906999208E0,9.610659063E-2,1.009906237E-1,-6.002166867E-3,1.395407068E-1
7.917054208E0,1.468579374E-1,9.075532850E-2,2.970911801E-2,1.751753839E-1
7.927108208E0,1.955374695E-1,9.399461288E-2,6.177174032E-2,2.255784501E-1
7.937163208E0,2.128642313E-1,9.594279550E-2,6.203194141E-2,2.415867603E-1
7.947218208E0,1.852945364E-1,7.204635803E-2,4.479201078E-2,2.037917250E-1
7.957273208E0,1.372495003E-1,4.043119390E-2,3.812267661E-2,1.480724324E-1
7.967328208E0,9.071896613E-2,2.528412793E-2,6.403402805E-2,1.138840405E-1
7.977382208E0,5.490725532E-2,1.650723796E-2,6.329961777E-2,8.540572113E-2
7.987437208E0,1.742850333E-2,1.501601525E-2,5.058133900E-2,5.556712425E-2
7.997492208E0,-1.718211628E-2,-1.178637877E-2,4.158832133E-2,4.651593615E-2
8.007547208E0,-3.516544729E-2,-3.984446235E-2,4.327992082E-2,6.853715350E-2
8.017602208E0,-5.101132862E-2,-4.712249167E-2,3.184978366E-2,7.640087426E-2
8.027656208E0,-5.542356446E-2,-3.949567594E-2,1.846960008E-2,7.051812563E-2
8.037711208E0,-6.506357655E-2,-1.173064750E-2,2.941149473E-4,6.611326333E-2
8.047766208E0,-8.862668619E-2,-1.855617542E-2,-3.211290836E-2,9.607424230E-2
8.057821208E0,-9.884878859E-2,-6.187925600E-3,-5.619408131E-2,1.138733867E-1
8.067875208E0,-8.785748497E-2,1.216396272E-2,-1.082810783E-1,1.399703239E-1
8.077930208E0,-6.784926318E-2,2.572994158E-2,-1.275207567E-1,1.467211498E-1
8.087985208E0,-3.751449309E-2,1.131341211E-2,-9.911498308E-2,1.065791272E-1
8.098040208E0,-5.814982876E-3,-1.656158052E-2,-7.423508048E-2,7.628202376E-2
8.108095208E0,-1.867403336E-2,-3.465231758E-2,-5.243782997E-2,6.556850347E-2
8.118149208E0,-5.109136239E-2,-4.378457207E-2,-9.621008635E-3,6.797043379E-2
8.128204208E0,-8.027985893E-2,-6.265810512E-2,1.006715119E-2,1.023339700E-1
8.138259208E0,-8.217742659E-2,-8.273112137E-2,3.573350430E-2,1.219608593E-1
8.148314208E0,-5.540960424E-2,-8.832719911E-2,1.577812672E-2,1.054555244E-1
8.158368208E0,-1.495783545E-2,-9.469551131E-2,-2.543538809E-3,9.590331743E-2
8.168423208E0,-2.784151733E-3,-8.707472552E-2,7.706630230E-3,8.745942759E-2
8.178478208E0,2.022595748E-2,-5.425781239E-2,3.266605496E-2,6.648361233E-2
8.188533208E0,4.260222852E-2,-2.037012789E-2,2.025592446E-2,5.138282263E-2
8.198588208E0,6.393155560E-2,-1.047700446E-2,-1.977119029E-2,6.773412278E-2
8.208642208E0,7.680529721E-2,-1.554591917E-2,-4.476745248E-2,9.024884533E-2
8.218697208E0,6.895453312E-2,7.560340203E-3,-7.815388441E-3,6.980663778E-2
8.228752208E0,3.017346002E-2,3.847138993E-2,6.932458878E-2,8.483150442E-2
8.238807208E0,2.714672193E-2,5.172297131E-2,5.881304920E-2,8.289261142E-2
8.248862208E0,7.680500485E-2,5.236565340E-2,1.063023806E-3,9.296397391E-2
8.258916208E0,1.056906887E-1,3.066005800E-2,-1.478176117E-3,1.100579204E-1
8.268971208E0,1.059232617E-1,4.108929802E-2,3.484882057E-2,1.188381592E-1
8.279026208E0,9.647306487E-2,8.528609879E-2,3.765840769E-2,1.341600781E-1
8.289081208E0,1.363450091E-1,9.102294825E-2,3.849631369E-2,1.683956793E-1
8.299135208E0,1.210147791E-1,8.824694607E-2,5.594323575E-2,1.598804112E-1
8.309190208E0,5.482868336E-2,8.150704332E-2,6.725584388E-2,1.190501204E-1
8.319245208E0,3.308047637E-2,6.348833665E-2,3.823611259E-2,8.116087182E-2
8.329300208E0,5.833284661E-2,4.517990045E-2,7.130094767E-3,7.412680116E-2
8.339355208E0,9.657115191E-2,3.837812684E-2,-5.480595231E-3,1.040620244E-1
8.349409208E0,1.025916644E-1,3.170977939E-2,-2.639433146E-3,1.074128778E-1
8.359464208E0,7.910968490E-2,4.142562255E-2,-1.484315693E-2,9.052482398E-2
8.369519208E0,6.033983029E-2,2.716466557E-2,-2.966467917E-2,7.251763486E-2
8.379574208E0,4.902641818E-2,1.037935596E-2,-3.448453903E-2,6.083176918E-2
8.389629208E0,4.163692631E-2,-2.894390021E-2,-6.342825651E-2,8.120669132E-2
8.399683208E0,3.443951547E-2,-5.814953640E-2,-7.012975037E-2,9.739420258E-2
8.409738208E0,1.846039072E-3,-2.757609028E-2,-6.113556325E-2,6.709251605E-2
8.419793208E0,-3.360153638E-2,-2.085186537E-2,-5.405283093E-2,6.697441354E-2
8.429848208E0,-4.939515822E-2,-2.538301896E-2,-4.191693485E-2,6.957879515E-2
8.439902208E0,-5.108076431E-2,-1.301476914E-2,-6.785518348E-2,8.592412131E-2
8.449957208E0,-6.993796170E-2,-2.638969023E-2,-9.740467250E-2,1.227819387E-1
8.460012208E0,-7.100507855E-2,-1.774812676E-2,-6.725993693E-2,9.940128923E-2
8.470067208E0,-4.807003297E-2,-5.900933292E-2,-3.592236936E-2,8.416202268E-2
8.480122208E0,-7.381064571E-2,-5.452221617E-2,-1.526941895E-2,9.302601051E-2
8.490176208E0,-9.841156304E-2,-2.203994650E-2,-8.877242804E-3,1.012393225E-1
8.500231208E0,-5.847990409E-2,-4.068306271E-2,-1.613831520E-4,7.123929265E-2
8.510286208E0,-2.076382823E-2,-6.809977982E-2,4.393013120E-3,7.133032412E-2
8.520341208E0,9.243717045E-3,-6.840588156E-2,1.061854362E-3,6.903577675E-2
8.530395208E0,2.060193345E-2,-2.679011486E-2,-5.080060959E-3,3.417538494E-2
8.540450208E0,1.683289133E-2,-3.737843569E-2,1.750071645E-2,4.457318433E-2
8.550505208E0,6.078326851E-3,-2.004319545E-2,2.778421462E-2,3.479422830E-2
8.560560208E0,-7.086386830E-3,3.413147684E-2,4.355006218E-2,5.578335330E-2
8.570615208E0,-4.313929528E-3,3.152939279E-2,6.420944452E-2,7.166285902E-2
8.580669208E0,1.319840826E-2,2.785825498E-2,7.254114211E-2,7.881939894E-2
8.590724208E0,1.807330504E-2,3.454699460E-2,9.497047663E-2,1.026622161E-1
8.600779208E0,1.161666334E-2,3.493828297E-2,1.178365982E-1,1.234548272E-1
8.610834208E0,1.999667354E-2,5.359484777E-2,1.015667206E-1,1.165678918E-1
8.620889208E0,5.715222068E-2,5.741366431E-2,5.866336048E-2,1.000204731E-1
8.630943208E0,4.944939114E-2,5.428153016E-2,2.366309702E-2,7.714706061E-2
8.640997583E0,4.194120079E-2,6.472827528E-2,9.737952948E-3,7.774086230E-2
8.651052583E0,3.303896114E-2,7.930260647E-2,-8.898877501E-3,8.636936012E-2
8.661107583E0,1.720989056E-2,7.850135520E-2,2.149436474E-3,8.039442256E-2
8.671162583E0,2.194737777E-2,8.968671329E-2,1.041739941E-2,9.291886860E-2
8.681216583E0,3.510544024E-2,7.806043860E-2,-2.417882144E-2,8.894065108E-2
8.691271583E0,3.231785327E-2,3.479484346E-2,-3.136972725E-2,5.691383452E-2
8.701326583E0,2.530492209E-2,-1.938900165E-3,-3.820336819E-2,4.586497309E-2
8.711381583E0,1.335189767E-2,-2.706657853E-2,-2.288658679E-2,3.787702073E-2
8.721435583E0,-1.649324119E-2,-2.324465565E-2,1.435140610E-2,3.191087398E-2
8.731490583E0,-3.182573698E-2,-3.292917967E-2,3.636558831E-2,5.847789686E-2
8.741545583E0,-2.596594982E-2,-5.537050098E-2,3.967452765E-2,7.289849843E-2
8.751600583E0,-2.253063753E-2,-7.679195825E-2,3.262629390E-2,8.642401017E-2
8.761655583E0,-2.647743501E-2,-1.127401650E-1,1.583250582E-2,1.168848476E-1
8.771709583E0,-3.797474205E-2,-1.415541108E-1,5.236766338E-3,1.466528931E-1
8.781764583E0,-6.921495348E-2,-1.153494484E-1,-1.616228878E-2,1.354895738E-1
8.791819583E0,-9.434438601E-2,-9.248972230E-2,-1.727618337E-2,1.332429301E-1
8.801874583E0,-1.228689312E-1,-9.554814499E-2,3.495465517E-3,1.556869954E-1
8.811929583E0,-1.815537071E-1,-7.692944091E-2,-1.781412721E-2,1.979829048E-1
8.821983583E0,-1.973393621E-1,-6.916223718E-2,-3.487162471E-2,2.119959177E-1
8.832038583E0,-1.779555499E-1,-7.625147453E-2,-3.439332247E-2,1.966351081E-1
8.842093583E0,-1.200438490E-1,-6.142876457E-2,-1.501097202E-2,1.356810527E-1
8.852148583E0,-8.056914993E-2,-4.605751270E-2,3.377351761E-3,9.286597278E-2
8.862203583E0,-6.446803764E-2,-1.743175585E-2,-2.311170459E-2,7.066926402E-2
8.872257583E0,-4.982595183E-2,-2.344017193E-2,-3.276194930E-2,6.407349263E-2
8.882312583E0,-2.719795816E-2,-2.235695696E-2,-3.006287456E-2,4.629620804E-2
8.892367583E0,7.908359170E-4,2.879625801E-3,-7.444558024E-2,7.450545003E-2
8.902422583E0,2.281261951E-2,2.848827420E-2,-8.942614675E-2,9.658691991E-2
8.912476583E0,4.290957280E-2,2.678276930E-2,-7.217744529E-2,8.813700572E-2
8.922531583E0,5.759302765E-2,3.612333085E-2,-2.657384098E-2,7.299329346E-2
8.932586583E0,8.651160210E-2,4.798762377E-2,-6.771075726E-3,9.916106494E-2
8.942641583E0,1.093204940E-1,5.001182020E-2,-1.010281920E-2,1.206408700E-1
8.952696583E0,1.235659193E-1,5.104681391E-2,7.087994814E-3,1.338826101E-1
8.962751583E0,1.091338947E-1,4.277629282E-2,3.044118941E-2,1.211060866E-1
8.972805583E0,8.555024676E-2,3.944285000E-2,2.522371888E-2,9.752342863E-2
8.982860583E0,5.871737413E-2,2.856421491E-2,1.480105698E-2,6.695308571E-2
8.992915583E0,4.839367636E-2,6.048979310E-2,5.025506437E-2,9.233923584E-2
9.002970583E0,4.808260448E-2,8.629982326E-2,5.706005394E-2,1.140852581E-1
9.013024583E0,7.327672184E-2,8.068039320E-2,2.872269273E-2,1.127111214E-1
9.023079583E0,8.439220570E-2,6.378701974E-2,2.287021458E-2,1.082306564E-1
9.033134583E0,7.891555734E-2,6.082964424E-2,9.341570199E-2,1.365811268E-1
9.043189583E0,5.980451770E-2,6.317280628E-2,1.447361290E-1,1.688666067E-1
9.053244583E0,3.088740505E-2,7.894943465E-2,9.553824127E-2,1.277286208E-1
9.063298583E0,1.371639848E-2,7.389572270E-2,6.581684411E-2,9.990282473E-2
9.073353583E0,3.792606398E-2,4.218051637E-2,4.885699511E-2,7.486379807E-2
9.083408583E0,5.431675963E-2,2.292457541E-2,2.653232574E-2,6.465145663E-2
9.093463583E0,5.951456890E-2,2.772886707E-2,8.171483874E-3,6.616379016E-2
9.103518583E0,6.715790302E-2,1.263698420E-2,3.820161402E-2,7.828946686E-2
9.113572583E0,4.320631899E-2,-1.090728644E-2,5.421479881E-2,7.017833931E-2
9.123627583E0,5.718211457E-3,1.014855539E-2,1.377019286E-3,1.172976133E-2
9.133682583E0,-6.597925052E-3,-1.080550835E-2,-5.433700562E-2,5.579248878E-2
9.143737583E0,9.112885594E-3,-3.468688924E-2,-9.148261249E-2,9.826135231E-2
9.153792583E0,2.460508347E-3,-4.730055766E-2,-8.650721669E-2,9.862502419E-2
9.163846583E0,-6.336408332E-3,-3.477929352E-2,-9.092712700E-2,9.755763298E-2
9.173901583E0,-2.178657934E-2,-4.106718823E-2,-1.051066250E-1,1.149285500E-1
9.183956583E0,-2.370402753E-2,-5.346545985E-2,-1.414663661E-1,1.530789634E-1
9.194011583E0,-2.466150910E-2,-5.899191918E-2,-1.296783793E-1,1.445846417E-1
9.204065583E0,-8.223743364E-3,-8.483920706E-2,-1.082611978E-1,1.377889980E-1
9.214120583E0,7.084632665E-4,-8.432185639E-2,-9.033363461E-2,1.235752521E-1
9.224175583E0,3.219330758E-3,-5.222837174E-2,-6.971635222E-2,8.716958571E-2
9.234230583E0,8.446303010E-3,-4.402989931E-2,-4.536913097E-2,6.378346269E-2
9.244285583E0,9.172307923E-3,-3.825849647E-2,-6.988592148E-3,3.995853106E-2
9.254339583E0,-1.592123732E-3,-2.364853380E-2,3.149719656E-2,3.941904869E-2
9.264394583E0,1.954358742E-3,-9.694738369E-3,7.309662759E-2,7.376262221E-2
9.274449583E0,1.897706531E-2,5.735259745E-3,1.045312589E-1,1.063945784E-1
9.284504583E0,2.045304872E-2,2.708280455E-2,1.538525230E-1,1.575512752E-1
9.294559583E0,1.911754467E-2,1.801061193E-2,1.594331056E-1,1.615821086E-1
9.304613583E0,2.136134058E-2,4.467400666E-3,1.324505442E-1,1.342364005E-1
9.314668583E0,3.030641109E-2,-2.127708586E-2,9.404369295E-2,1.010713071E-1
9.324723583E0,1.471327566E-2,-4.393133719E-2,8.263285160E-2,9.473452924E-2
9.334778583E0,2.112737887E-2,-2.950640235E-2,8.459634662E-2,9.205181029E-2
9.344833583E0,2.390941098E-2,-2.463888768E-2,7.469291747E-2,8.220563630E-2
9.354887583E0,2.248612560E-2,-2.497769728E-2,7.724932015E-2,8.424350818E-2
9.364942583E0,2.439202555E-2,-4.029477105E-2,7.197747052E-2,8.601974044E-2
9.374997583E0,2.115449533E-3,-5.094964050E-2,4.039548934E-2,6.505487339E-2
9.385052583E0,-2.771821417E-2,-4.961600024E-2,-2.057635188E-3,5.687073711E-2
9.395107583E0,-4.057448722E-2,-6.787272513E-2,-5.501060486E-3,7.926700131E-2
9.405161583E0,-5.063030943E-2,-7.722666219E-2,1.120209575E-2,9.302081775E-2
9.415216583E0,-6.571861088E-2,-4.768504864E-2,2.605870128E-2,8.527517571E-2
9.425271583E0,-5.242189631E-2,-6.102207245E-2,5.205483735E-2,9.581990727E-2
9.435326583E0,-2.379937369E-2,-6.406110797E-2,2.743981361E-2,7.364223730E-2
9.445381583E0,1.566944160E-3,-2.611421328E-2,-6.513973653E-2,7.019681421E-2
9.455435583E0,6.603954993E-3,8.572785594E-3,-7.329660237E-2,7.409113843E-2
9.465490583E0,-1.299744677E-2,6.693106759E-3,-1.691599488E-2,2.235804516E-2
9.475545583E0,-2.878821809E-2,1.576623129E-2,-4.527499080E-3,3.313357508E-2
9.485600583E0,-5.310810361E-2,3.055535629E-2,1.634472191E-2,6.341332984E-2
9.495655583E0,-5.437380653E-2,1.678742923E-2,5.069945276E-2,7.621524209E-2
9.505709583E0,-2.766138654E-2,-5.435224492E-3,7.796911240E-2,8.290884427E-2
9.515764583E0,1.521701328E-3,-2.010998162E-2,8.171717763E-2,8.416902076E-2
9.525819583E0,1.158951033E-2,-2.804107184E-2,9.459508538E-2,9.934207889E-2
9.535874583E0,3.774710264E-2,-1.851950241E-2,8.394379735E-2,9.388491274E-2
9.545929583E0,7.254739132E-2,-2.844224565E-2,4.370267451E-2,8.934209021E-2
9.555983583E0,8.834020916E-2,-4.275818473E-2,3.493769825E-2,1.041772416E-1
9.566038583E0,7.805546846E-2,-9.921007343E-3,-3.229066372E-2,8.505156969E-2
9.576093583E0,5.404479101E-2,4.818821982E-2,-7.452919543E-2,1.039112358E-1
9.586148583E0,1.881608415E-2,7.218747692E-2,-2.998744547E-2,8.040101824E-2
9.596203583E0,6.482698359E-3,6.349458586E-2,-3.822851121E-2,7.439762686E-2
9.606257583E0,6.837843619E-3,5.372308452E-2,-1.054539496E-1,1.185472960E-1
9.616312583E0,3.173539750E-3,5.647301177E-2,-1.603136963E-1,1.699992754E-1
9.626367583E0,-2.167584769E-2,6.354721081E-2,-1.429223228E-1,1.579078235E-1
9.636422583E0,-5.734247446E-2,5.747853186E-2,-9.467811584E-2,1.247232401E-1
9.646477958E0,-8.792370468E-2,4.793450547E-2,-4.072117925E-2,1.081041586E-1
9.656531958E0,-1.151477195E-1,3.992164560E-2,1.843685567E-2,1.232584794E-1
9.666586958E0,-1.336286120E-1,4.878381355E-2,3.695615709E-2,1.469769504E-1
9.676641958E0,-1.271071758E-1,3.549248938E-2,3.855069280E-2,1.374849332E-1
9.686696958E0,-8.661396492E-2,-1.818250179E-2,2.181303799E-2,9.115037530E-2
9.696751958E0,-4.784513444E-2,-9.817723587E-2,-1.505073309E-3,1.092254173E-1
9.706805958E0,-6.485771801E-2,-1.213341285E-1,-1.304046035E-2,1.381974961E-1
9.716860958E0,-1.049452784E-1,-6.772444339E-2,2.013196349E-2,1.265124802E-1
9.726915958E0,-1.195364568E-1,-2.914440488E-2,7.123955190E-2,1.421739590E-1
9.736970958E0,-8.912706167E-2,-4.067579024E-2,1.006299967E-1,1.404441144E-1
9.747025958E0,-4.540483553E-2,-5.714823727E-2,1.164280039E-1,1.374154293E-1
9.757079958E0,-2.435686916E-2,-4.911376096E-2,7.479933679E-2,9.273812256E-2
9.767134958E0,-2.233811796E-2,-3.137930207E-2,4.895113528E-2,6.228856843E-2
9.777189958E0,1.839702152E-2,-1.037565577E-1,1.313185233E-1,1.683699148E-1
9.787244958E0,4.817140907E-2,-1.612290779E-1,1.941380847E-1,2.569141804E-1
9.797299958E0,-7.335438017E-2,1.112023473E-2,-2.664634645E-2,7.883243298E-2
9.807353958E0,-1.416084899E-1,1.704092613E-1,-1.303940785E-1,2.570892772E-1
9.817408958E0,-1.211286902E-1,1.377872066E-1,-8.922968030E-2,2.040083570E-1
9.827463958E0,-6.938477855E-2,2.939099293E-2,-8.671011508E-2,1.148769865E-1
9.837518958E0,-5.776877303E-2,6.411947049E-3,-1.272260571E-1,1.398742785E-1
9.847573958E0,-6.702878918E-2,4.724038616E-2,-1.465060812E-1,1.678944445E-1
9.857627958E0,-6.656810168E-2,7.631648825E-2,-9.544936359E-2,1.391621340E-1
9.867682958E0,-3.102532625E-2,4.702853423E-2,-5.411364198E-2,7.811875670E-2
9.877737958E0,1.521376077E-2,-1.129398840E-2,-7.424677491E-2,7.662634192E-2
9.887792958E0,4.076313302E-2,-2.696984366E-2,-7.669675827E-2,9.094722761E-2
9.897847958E0,1.553806197E-2,-2.772515774E-2,-5.583330810E-2,6.424542034E-2
9.907901958E0,-1.127598993E-3,-7.366431914E-3,-2.872444689E-2,2.967540476E-2
9.917956958E0,4.466783054E-2,-3.609047681E-3,-3.936754882E-2,5.964934376E-2
9.928011958E0,6.678200014E-2,-9.764539506E-3,-6.995316446E-2,9.720404823E-2
9.938066958E0,6.753428098E-2,9.643885866E-4,-1.129629439E-1,1.316147250E-1
9.948121958E0,6.765056748E-2,4.392667769E-2,-1.392537796E-1,1.609278330E-1
9.958175958E0,5.505270481E-2,7.618256874E-2,-1.494530779E-1,1.765525604E-1
9.968230958E0,4.587809455E-2,7.631891850E-2,-1.048136795E-1,1.375328480E-1
9.978285958E0,4.018542811E-2,3.671062885E-2,-6.277102947E-2,8.308273614E-2
9.988340958E0,3.029157378E-2,4.759500152E-2,-4.556969047E-2,7.252213662E-2
9.998395958E0,1.732325345E-2,1.026853295E-1,-3.994993150E-2,1.115364023E-1
1.000844996E1,4.520445876E-2,1.396723307E-1,-4.000723422E-2,1.521590675E-1
1.001850496E1,1.093644943E-1,1.630445470E-1,-5.072751939E-2,2.027742541E-1
1.002855996E1,2.297175148E-1,2.289699848E-1,-2.704337239E-2,3.254669485E-1
1.003861496E1,3.427689344E-1,3.493630222E-1,-1.493922669E-1,5.117256229E-1
1.004866996E1,3.959664273E-1,4.785272120E-1,-2.831888402E-1,6.826226068E-1
1.005872396E1,4.246116079E-1,6.149428993E-1,-3.198076129E-1,8.128509681E-1
1.006877896E1,4.883797338E-1,6.230272597E-1,-3.661333483E-1,8.721991513E-1
1.007883396E1,5.531772255E-1,5.373019619E-1,-3.691931963E-1,8.549865831E-1
1.008888896E1,6.662521436E-1,2.827147041E-2,-2.708477068E-1,7.197566778E-1
1.009894396E1,1.875225997E-1,-1.032950625E0,2.120954686E-1,1.071044447E0
1.010899796E1,-4.854086539E-1,3.109831595E-2,-2.909773314E-1,5.667949135E-1
1.011905296E1,6.188046198E-1,3.062895629E-1,-1.332633072E-1,7.032009407E-1
1.012910796E1,6.397104258E-2,5.718753786E-1,1.161975651E0,1.296657687E0
1.013916296E1,-1.943536642E-1,8.077329084E-2,4.726169926E-1,5.173630186E-1
1.014921796E1,1.484245892E-1,-5.515268854E-1,5.308909285E-1,7.797800600E-1
1.015927296E1,1.944259687E-1,-4.863255704E-1,7.814031887E-1,9.406938721E-1
1.016932696E1,-3.068887381E-2,-2.493340828E-1,7.469560719E-1,7.880689469E-1
1.017938196E1,-1.861048874E-1,-2.283967567E-1,6.699728000E-1,7.318904702E-1
1.018943696E1,-2.350209577E-1,-2.852906584E-1,4.815275645E-1,6.070374006E-1
1.019949196E1,-3.184394375E-1,-3.287759992E-1,3.969195235E-1,6.058402769E-1
1.020954696E1,-3.637439202E-1,-3.717749247E-1,2.676235521E-1,5.849346970E-1
1.021960096E1,-4.037838623E-1,-3.662523757E-1,1.694295055E-1,5.708665058E-1
1.022965596E1,-4.512717684E-1,-3.089392835E-1,1.925944197E-1,5.798122975E-1
1.023971096E1,-4.576767719E-1,-2.751641762E-1,7.624535322E-2,5.394411045E-1
1.024976596E1,-4.240379595E-1,-2.531597698E-1,-2.062605321E-2,4.942909004E-1
1.025982096E1,-3.537204404E-1,-2.137102503E-1,-7.359130204E-2,4.197688659E-1
1.026987496E1,-2.898356260E-1,-1.580481560E-1,-1.640816420E-1,3.686552522E-1
1.027992996E1,-2.973972818E-1,-9.275299318E-2,-1.850766546E-1,3.623556665E-1
1.028998496E1,-2.970376963E-1,-3.321877216E-2,-2.628089547E-1,3.979992796E-1
1.030003996E1,-2.991343434E-1,-4.110307095E-2,-2.806207430E-1,4.122121047E-1
1.031009496E1,-3.448685599E-1,-7.300584957E-2,-2.161089975E-1,4.134818938E-1
1.032014896E1,-3.680074541E-1,-1.071075878E-1,-1.547746289E-1,4.133481672E-1
1.033020396E1,-3.200068568E-1,-9.498986380E-2,-3.245877117E-1,4.656013801E-1
1.034025896E1,-2.536694826E-1,-1.271573888E-1,-4.597531182E-1,5.402685791E-1
1.035031396E1,-1.925386336E-1,-1.652355170E-1,-2.833853066E-1,3.803697326E-1
1.036036896E1,-1.678172819E-1,-1.425128075E-1,-1.822968882E-1,2.858403328E-1
1.037042296E1,-1.887720583E-1,-4.862837811E-2,-2.093665731E-1,2.860663753E-1
1.038047796E1,-1.523947116E-1,-4.387612668E-2,-2.162692112E-1,2.681820917E-1
1.039053296E1,-1.118029660E-1,-1.031839600E-1,-2.594520682E-1,3.007693610E-1
1.040058796E1,-1.023784146E-1,-1.329606773E-1,-2.749565452E-1,3.221195170E-1
1.041064296E1,-1.381826337E-1,-1.132353785E-1,-3.168968689E-1,3.637860865E-1
1.042069696E1,-6.021583278E-2,-5.102458536E-2,-3.835557121E-1,3.915921847E-1
1.043075196E1,5.825292020E-3,1.408813339E-1,-3.081161052E-1,3.388466003E-1
1.044080696E1,4.161534643E-2,2.543619573E-1,-2.427524203E-1,3.540629605E-1
1.045086196E1,2.127529515E-1,2.033730857E-1,-1.975540280E-1,3.544742929E-1
1.046091696E1,4.561277714E-1,7.525666215E-2,-1.060211295E-1,4.742958875E-1
1.047097196E1,4.163933463E-1,1.681854372E-1,-5.481764674E-3,4.491100198E-1
1.048102596E1,2.567652726E-1,3.192513234E-1,2.650057536E-1,4.879322311E-1
1.049108096E1,2.268236730E-1,2.504854726E-1,4.193938816E-1,5.385937045E-1
1.050113596E1,1.418183593E-1,1.050434933E-1,3.228013873E-1,3.678957980E-1
1.051119096E1,6.414047022E-2,3.766988285E-2,3.802958894E-1,3.875022367E-1
1.052124596E1,3.360003346E-2,1.046130469E-1,4.421553379E-1,4.556031109E-1
1.053129996E1,5.407960479E-2,1.509613124E-1,3.221564394E-1,3.598592683E-1
1.054135496E1,2.240616127E-1,6.767459588E-2,1.348093110E-1,2.701055490E-1
1.055140996E1,2.775637091E-1,1.380600523E-1,5.296700299E-2,3.144959364E-1
1.056146496E1,3.243680757E-1,2.937275510E-1,6.151446283E-2,4.418988027E-1
1.057151996E1,3.377039666E-1,3.481218776E-1,-3.327241123E-2,4.861479858E-1
1.058157396E1,2.593105656E-1,3.624723335E-1,-5.559649587E-2,4.491315312E-1
1.059162896E1,1.421538524E-1,3.468137093E-1,-7.441166639E-3,3.748904342E-1
1.060168396E1,1.422936374E-1,2.264767138E-1,-6.391825318E-2,2.749994986E-1
1.061173896E1,5.878597842E-2,1.490156331E-1,-1.643371654E-1,2.294954337E-1
1.062179396E1,6.911763389E-2,8.375220054E-2,-2.277478802E-1,2.523108705E-1
1.063184796E1,5.951323957E-2,-2.338441324E-2,-3.084090507E-1,3.149679333E-1
1.064190283E1,8.623776969E-2,-3.453867374E-2,-2.741051906E-1,2.894192952E-1
1.065195783E1,5.755672010E-2,1.753123160E-2,-2.099974877E-1,2.184469385E-1
1.066201283E1,-9.425132620E-3,8.002890375E-2,-1.580180794E-1,1.773786119E-1
1.067206783E1,1.209330278E-2,9.525391127E-2,-2.161125058E-1,2.364829185E-1
1.068212283E1,2.865376867E-2,8.129484421E-2,-2.995984662E-1,3.117517138E-1
1.069217683E1,5.913111032E-2,3.005350987E-2,-3.229879135E-1,3.297285155E-1
1.070223183E1,1.110923648E-1,-3.946023633E-2,-2.311579764E-1,2.594853249E-1
1.071228683E1,9.975674241E-2,-1.104900833E-1,4.636842012E-4,1.488612816E-1
1.072234183E1,7.229015037E-2,-1.736535889E-1,1.714684296E-1,2.545247672E-1
1.073239683E1,5.170607834E-2,-1.687612966E-1,1.826307642E-1,2.539840346E-1
1.074245083E1,5.087563667E-2,-1.300631992E-1,1.719303596E-1,2.215057894E-1
1.075250583E1,1.137399110E-1,-1.245043426E-1,1.091254163E-1,2.008642705E-1
1.076256083E1,1.247232660E-1,-1.228448663E-1,-8.278838754E-2,1.936509008E-1
1.077261583E1,-1.043203937E-1,-6.369874505E-2,-2.574634302E-1,2.850047237E-1
1.078267083E1,-2.025875123E-1,-5.814814769E-2,-1.540770561E-1,2.610797702E-1
1.079272483E1,-2.256255237E-1,-1.437989300E-2,-1.590477741E-1,2.764233215E-1
1.080277983E1,-1.909911132E-1,4.887884907E-2,-1.578853476E-1,2.525757910E-1
1.081283483E1,-1.189170905E-1,4.782923732E-2,-1.221003878E-1,1.770237698E-1
1.082288983E1,-5.002815586E-2,1.083520124E-2,-3.225031793E-2,6.050042125E-2
1.083294483E1,2.854720317E-3,-7.862622980E-3,1.816788375E-2,2.000105668E-2
1.084299983E1,3.249323320E-2,4.541916121E-3,-3.558790863E-2,4.840390941E-2
1.085305383E1,4.425381113E-2,-1.370954627E-2,-1.248304528E-1,1.331502663E-1
1.086310883E1,2.204239503E-2,-5.412414869E-2,-6.533912659E-2,8.766123495E-2
1.087316383E1,-8.860724419E-4,-3.424562545E-2,1.291117841E-1,1.335791929E-1
1.088321883E1,8.913217798E-2,1.776384115E-3,2.146699977E-1,2.324454960E-1
1.089327383E1,1.996703912E-1,2.938130848E-2,1.832733732E-1,2.726181501E-1
1.090332783E1,2.938806202E-1,3.846053604E-2,2.327665454E-1,3.768624370E-1
1.091338283E1,3.383820974E-1,1.898543414E-2,2.307977879E-1,4.100372050E-1
1.092343783E1,2.773960036E-1,-4.096811447E-2,2.101746583E-1,3.504287605E-1
1.093349283E1,1.932117395E-1,-7.402337473E-2,1.647704440E-1,2.644986494E-1
1.094354783E1,9.527782090E-2,-3.231386986E-2,9.718715608E-2,1.398834967E-1
1.095360183E1,1.951296262E-2,1.419115584E-2,4.592344701E-2,5.187588650E-2
1.096365683E1,8.004838228E-4,2.306671757E-2,3.873312593E-2,4.508846058E-2
1.097371183E1,2.031870894E-2,-1.347494502E-2,4.422541559E-2,5.050060851E-2
1.098376683E1,3.420431122E-2,-1.613524541E-2,3.164454639E-2,4.931184814E-2
1.099382183E1,2.801028259E-2,-2.503024913E-2,1.636752605E-2,4.097542204E-2
1.100387683E1,2.388777629E-2,-2.028125022E-2,5.015975475E-2,5.914352004E-2
1.101393083E1,1.004814774E-2,1.319796972E-2,2.118738592E-2,2.690830726E-2
1.102398583E1,-2.193466008E-2,2.528679572E-2,4.970718026E-3,3.384168123E-2
1.103404083E1,-6.971262462E-2,2.628323436E-2,4.118077040E-2,8.512646058E-2
1.104409583E1,-9.603364661E-2,1.706582978E-2,4.904469073E-2,1.091745644E-1
1.105415083E1,-1.022437551E-1,8.089330494E-3,2.395253420E-2,1.053230583E-1
1.106420483E1,-8.732180692E-2,1.882072538E-4,5.084797204E-2,1.010477592E-1
1.107425983E1,-7.376211382E-2,7.379113063E-3,7.311943173E-2,1.041237343E-1
1.108431483E1,-6.525901973E-2,-7.073047869E-3,8.204579115E-2,1.050727344E-1
1.109436983E1,-4.674563862E-2,-2.048630476E-2,6.392000735E-2,8.179615365E-2
1.110442483E1,-2.904575139E-2,-2.959268533E-2,3.556042671E-2,5.462532972E-2
1.111447983E1,-4.021108277E-2,-1.998958379E-2,7.954552174E-2,9.134552351E-2
1.112453383E1,-7.780180894E-2,-2.277216408E-2,1.039009291E-1,1.317842783E-1
1.113458883E1,-8.026334055E-2,-4.074127905E-2,4.624095082E-2,1.011942745E-1
1.114464383E1,-6.547638997E-2,-7.178115025E-2,-1.303695202E-2,9.802883909E-2
1.115469883E1,-1.770741552E-2,-9.240047917E-2,-5.848385096E-2,1.107779849E-1
1.116475383E1,9.918851182E-3,-8.734980047E-2,-7.764283776E-2,1.172893069E-1
1.117480783E1,8.260288462E-3,-5.617259279E-2,-8.996701419E-2,1.063844734E-1
1.118486283E1,2.264166154E-2,-4.512851804E-2,-9.839577556E-2,1.105936554E-1
1.119491783E1,2.954305708E-2,-5.692081712E-2,-7.197922468E-2,9.640425525E-2
1.120497283E1,4.546568312E-2,-4.544817802E-2,-3.272101879E-2,7.213411327E-2
1.121502783E1,2.860611387E-2,-1.082451180E-2,-2.446299613E-2,3.916526504E-2
1.122508283E1,5.466123372E-2,-3.475424185E-2,-4.526095748E-2,7.902064332E-2
1.123513683E1,9.357014157E-2,-8.113797437E-2,-4.775713384E-2,1.327384123E-1
1.124519183E1,1.050341926E-1,-1.033350283E-1,-7.721014380E-2,1.663481770E-1
1.125524683E1,9.585735306E-2,-8.316589840E-2,-7.160090983E-2,1.457116642E-1
1.126530183E1,4.826043293E-2,-2.875938401E-2,2.124878168E-3,5.621998454E-2
1.127535683E1,1.865225248E-2,1.186038259E-2,9.369227529E-2,9.626431138E-2
1.128541083E1,2.811012380E-2,4.335520372E-2,1.338158691E-1,1.434452494E-1
1.129546583E1,5.204051167E-2,5.456358522E-2,1.152854580E-1,1.377538983E-1
1.130552083E1,1.006452725E-1,3.011133336E-2,9.909510255E-2,1.444160747E-1
1.131557583E1,1.242898046E-1,2.367051568E-2,7.438359976E-2,1.467691001E-1
1.132563083E1,1.065750070E-1,4.618510991E-2,5.608473837E-2,1.289836981E-1
1.133568583E1,1.033404735E-1,6.606151354E-2,8.320178568E-2,1.482090219E-1
1.134573983E1,1.037891011E-1,6.643259246E-2,5.475449681E-2,1.348462894E-1
1.135579483E1,1.104533190E-1,2.110998340E-2,2.368180811E-2,1.149190807E-1
1.136584983E1,9.315813214E-2,-2.699893355E-2,3.497862875E-2,1.031061805E-1
1.137590483E1,6.359621778E-2,-4.113044780E-2,3.301337957E-2,8.262006949E-2
1.138595983E1,1.127438195E-2,-3.956394218E-2,7.137988508E-2,8.238631684E-2
1.139601383E1,-2.554195359E-2,-3.670063376E-2,1.151766998E-1,1.235516090E-1
1.140606883E1,-7.001309842E-3,-5.563004427E-3,1.132371783E-1,1.135897175E-1
1.141612383E1,2.867774226E-2,1.075050797E-2,7.133193791E-2,7.762880708E-2
1.142617883E1,6.050830320E-2,-1.290392786E-2,1.059573948E-2,6.276970452E-2
1.143623383E1,5.833270043E-2,-1.465896964E-2,-3.092592359E-2,6.763136905E-2
1.144628883E1,4.733744994E-2,-9.356275946E-3,-7.768318355E-2,9.144971882E-2
1.145634283E1,4.100959316E-2,2.521995474E-2,-7.096005499E-2,8.575058165E-2
1.146639783E1,2.943619922E-2,3.254823357E-2,-8.326084256E-2,9.411825135E-2
1.147645283E1,2.917460941E-2,1.928652920E-2,-1.218852103E-1,1.268035194E-1
1.148650783E1,2.363466494E-2,1.249444004E-2,-1.382521516E-1,1.408132304E-1
1.149656283E1,1.002914429E-2,-1.278530248E-3,-1.258753502E-1,1.262807276E-1
1.150661683E1,2.946777418E-3,-2.350913253E-2,-9.945821464E-2,1.022413775E-1
1.151667183E1,-1.993754357E-3,-3.231302932E-2,-7.734696865E-2,8.384903386E-2
1.152672683E1,1.297672570E-2,-5.571296509E-2,-4.085566521E-2,7.029591218E-2
1.153678183E1,3.550056584E-2,-5.542539172E-2,-2.665862560E-2,7.101370671E-2
1.154683683E1,5.533563696E-2,-6.276792314E-2,-6.188576102E-2,1.040754165E-1
1.155689183E1,7.142644353E-2,-7.977937382E-2,-8.656861246E-2,1.376975308E-1
1.156694583E1,5.185106188E-2,-7.638707511E-2,-5.126078546E-2,1.055991761E-1
1.157700083E1,-1.935574561E-3,-4.509844143E-2,3.663631439E-2,5.813635180E-2
1.158705583E1,-3.559580237E-2,-2.897934895E-2,9.469916582E-2,1.052368558E-1
1.159711083E1,-4.098817773E-2,-2.946079407E-2,1.098691821E-1,1.209099098E-1
1.160716583E1,-3.680800326E-2,-5.514794134E-2,1.212811929E-1,1.382217504E-1
1.161721983E1,-2.871589534E-2,-5.806405742E-2,1.039336735E-1,1.224673258E-1
1.162727483E1,-4.888279594E-2,-3.026909854E-2,9.420507610E-2,1.103645887E-1
1.163732983E1,-6.752306163E-2,7.676736340E-3,1.077671081E-1,1.274050459E-1
1.164738437E1,-5.637885332E-2,1.506169662E-2,4.859971762E-2,7.594315216E-2
1.165743938E1,-4.699443765E-2,6.373574696E-3,1.508581638E-2,4.976626850E-2
1.166749438E1,-8.782517910E-4,-2.496337160E-2,-3.248128295E-3,2.518911641E-2
1.167754837E1,2.882823497E-3,-3.427506253E-2,-8.590378404E-2,9.253405154E-2
1.168760338E1,-4.675148584E-2,-1.558067355E-2,-7.927830398E-2,9.334617453E-2
1.169765838E1,-7.379931673E-2,-1.090253558E-2,-9.461964369E-3,7.519796009E-2
1.170771337E1,-8.403837606E-2,-2.079803444E-2,7.162137508E-2,1.123593710E-1
1.171776838E1,-1.300932392E-3,-3.000681438E-2,9.328297019E-2,9.799905031E-2
1.172782338E1,6.525785029E-2,-4.669992071E-2,1.118455410E-2,8.102199620E-2
1.173787737E1,1.855321527E-2,-3.573094614E-2,7.110038817E-2,8.170794029E-2
1.174793238E1,-2.928950720E-2,-4.034253549E-2,1.252707481E-1,1.348263911E-1
1.175798738E1,-3.871901952E-2,-5.634665709E-2,9.708073676E-2,1.187382739E-1
1.176804237E1,-2.394244775E-2,-5.800664507E-2,1.170793837E-1,1.328367185E-1
1.177809738E1,-1.182504348E-2,-3.987157881E-2,1.478234589E-1,1.535622006E-1
1.178815137E1,5.046951100E-3,-1.448132392E-2,1.214396524E-1,1.224041243E-1
1.179820637E1,1.756196603E-2,-1.807951771E-2,7.154009879E-2,7.585036154E-2
1.180826138E1,3.289387710E-2,-1.290776510E-2,3.974995673E-2,5.318530446E-2
1.181831637E1,5.460312702E-2,2.668515734E-2,4.230226636E-2,7.404782807E-2
1.182837137E1,6.819351800E-2,3.885931615E-2,1.678501725E-2,8.026293760E-2
1.183842638E1,5.584441781E-2,4.358086970E-2,-4.014639795E-2,8.142250593E-2
1.184848037E1,8.253476456E-2,-6.528343186E-3,-1.596517915E-1,1.798424342E-1
1.185853537E1,8.800563879E-2,7.310846820E-4,-3.140364110E-2,9.344364943E-2
1.186859038E1,1.033732910E-1,3.148414996E-2,-1.226506108E-1,1.634639450E-1
1.187864537E1,1.016496049E-1,1.634245612E-2,-1.027724165E-1,1.454712605E-1
1.188870037E1,7.284505114E-2,-1.479879119E-2,-1.915898681E-2,7.676244180E-2
1.189875538E1,4.345584892E-2,-1.267340139E-2,-3.986163855E-2,6.031563757E-2
1.190880937E1,4.770297401E-2,-1.696248025E-2,-7.162897646E-2,8.771550453E-2
1.191886437E1,5.404391393E-2,-1.497676581E-2,-1.190048718E-1,1.315568610E-1
1.192891938E1,3.832075104E-2,-7.429910749E-3,-1.554745406E-1,1.602997701E-1
1.193897437E1,-1.359952725E-2,-6.466289610E-4,-1.371522903E-1,1.378263981E-1
1.194902937E1,-5.093166031E-2,1.574921954E-2,-1.011164850E-1,1.143092974E-1
1.195908438E1,-4.114985324E-2,-3.207197785E-3,-6.287510991E-2,7.521220636E-2
1.196913837E1,-1.309505872E-2,-2.875141717E-2,2.934308231E-2,4.311775773E-2
1.197919337E1,1.581087112E-3,-3.981745552E-2,8.044599295E-2,8.977464777E-2
1.198924838E1,3.449243277E-2,-7.890711542E-2,8.712585211E-2,1.225029587E-1
1.199930337E1,5.737602286E-2,-7.157174684E-2,1.082898492E-1,1.419197463E-1
1.200935837E1,5.664037004E-2,-6.088128246E-2,9.871152520E-2,1.290683047E-1
1.201941238E1,3.782965802E-2,-2.458904017E-2,9.270058751E-2,1.030975405E-1
1.202946737E1,-6.931874156E-4,9.687264897E-3,6.537070155E-2,6.608821553E-2
1.203952237E1,-2.975998878E-2,1.756540127E-2,4.853598297E-2,5.958138885E-2
1.204957738E1,-4.784937367E-2,1.201993849E-2,2.050209224E-2,5.342637240E-2
1.205963237E1,-4.175540552E-2,-8.442392685E-3,1.311764359E-2,4.457421292E-2
1.206968737E1,-6.348775193E-2,-2.761055231E-2,1.924903393E-2,7.185793311E-2
1.207974138E1,-3.292713314E-2,-7.264467437E-2,4.404941440E-2,9.111419055E-2
1.208979637E1,1.586510405E-2,-7.818929661E-2,4.591467619E-2,9.205120923E-2
1.209985137E1,1.287271835E-2,-6.718399622E-2,3.558907807E-2,7.711017250E-2
1.210990638E1,5.664563254E-3,-6.779696714E-2,-2.167562842E-3,6.806771892E-2
1.211996137E1,1.425280742E-2,-5.792902328E-2,-4.174151838E-2,7.280981125E-2
1.213001637E1,1.301005483E-3,-4.926388822E-2,-3.787533939E-2,6.215436133E-2
1.214007038E1,-4.524728961E-2,-2.696089011E-2,-4.826701105E-2,7.144166269E-2
1.215012537E1,-6.092806019E-2,-4.281546917E-2,-2.810756564E-2,7.959540291E-2
1.216018037E1,4.454218850E-2,-1.871141899E-2,-3.846883178E-2,6.175738640E-2
1.217023538E1,5.355545215E-2,1.500019122E-2,-5.575203180E-2,7.874948408E-2
1.218029037E1,6.345515370E-2,-3.260699809E-3,1.293988824E-3,6.355205034E-2
1.219034537E1,7.842183307E-2,-1.339929666E-2,-3.899742007E-2,8.860205317E-2
1.220039938E1,6.885929659E-2,-4.243324399E-3,-8.907063603E-3,6.956252088E-2
1.221045437E1,5.051957779E-2,2.237608831E-2,3.814314187E-2,6.714027360E-2
1.222050938E1,3.536235228E-2,2.236435734E-2,8.342573404E-2,9.333013200E-2
1.223056438E1,4.679227017E-2,7.182317711E-3,1.019590688E-1,1.124133175E-1
1.224061937E1,-6.048213691E-4,-3.356934015E-2,9.588848948E-2,1.015965985E-1
1.225067437E1,5.373503476E-2,-8.782941833E-2,1.437280691E-1,1.768027673E-1
1.226072838E1,6.456575923E-2,-6.662302896E-2,1.165607357E-1,1.489757375E-1
1.227078337E1,8.213072196E-3,-2.530470282E-2,1.197761196E-1,1.226951562E-1
1.228083838E1,2.250878356E-2,-6.079258751E-2,8.566521764E-2,1.074286440E-1
1.229089338E1,7.536476254E-2,-6.120942090E-2,-3.937748909E-2,1.047713095E-1
1.230094837E1,1.049157865E-1,-3.673867721E-2,-9.347241998E-2,1.452382386E-1
1.231100337E1,1.048591416E-1,-2.074000083E-2,-1.370949876E-1,1.738407974E-1
1.232105738E1,8.494220942E-2,-6.884730980E-4,-1.768303263E-1,1.961749659E-1
1.233111237E1,5.644317269E-2,3.288850497E-2,-1.608311749E-1,1.735919131E-1
1.234116738E1,4.961983748E-2,4.581377517E-2,-1.502599937E-1,1.647394791E-1
1.235122238E1,4.924685821E-2,3.272386931E-2,-1.804608625E-1,1.899005728E-1
1.236127737E1,6.565904237E-2,4.340022728E-2,-1.984387118E-1,2.134774271E-1
1.237133238E1,6.694170222E-2,1.802557714E-2,-1.116952676E-1,1.314608144E-1
1.238138638E1,6.587889768E-2,-1.167630494E-2,-8.684869409E-2,1.096314778E-1
1.239144137E1,8.118018396E-2,-5.157807000E-2,-8.966880620E-2,1.314953017E-1
1.240149638E1,9.784343295E-2,-1.043584006E-1,-3.527742147E-2,1.473380793E-1
1.241155138E1,1.537909810E-1,-2.208826643E-1,5.731850088E-2,2.751839890E-1
1.242160637E1,2.044329849E-1,-2.911485817E-1,5.070822358E-2,3.593489473E-1
1.243166138E1,1.788722471E-1,-2.885430624E-1,7.709261477E-2,3.481316574E-1
1.244171538E1,1.229219947E-1,-2.694494914E-1,1.923622853E-1,3.531516586E-1
1.245177037E1,1.347571246E-2,-1.716835340E-1,2.353510147E-1,2.916280693E-1
1.246182538E1,-4.158949077E-2,-5.044626832E-2,1.495326000E-1,1.632008278E-1
1.247188038E1,-4.889785253E-2,-3.407172561E-3,1.278698355E-1,1.369427020E-1
1.248193537E1,-6.383741543E-2,6.253545977E-2,1.257566518E-1,1.542745436E-1
1.249198938E1,-4.400358684E-2,8.361306421E-2,9.375600994E-2,1.331076615E-1
1.250204437E1,-2.159734882E-2,7.229263544E-2,7.521975160E-2,1.065395778E-1
1.251209937E1,9.392528683E-3,5.102404632E-2,9.232110322E-2,1.059002313E-1
1.252215438E1,2.174959570E-2,4.969300076E-2,1.121086657E-1,1.245423308E-1
1.253220938E1,2.309796363E-3,6.203406103E-2,1.281639504E-1,1.424063133E-1
1.254226437E1,-9.252780229E-3,5.736396298E-2,1.491437602E-1,1.600627983E-1
1.255231938E1,-4.849929169E-2,6.115507834E-2,1.581858945E-1,1.763941669E-1
1.256237337E1,-8.092020214E-2,7.279469199E-2,1.630045849E-1,1.960041862E-1
1.257242837E1,-1.080634157E-1,8.111535296E-2,2.006466204E-1,2.419017747E-1
1.258248338E1,-9.672654167E-2,6.831886768E-2,1.568077058E-1,1.964997408E-1
1.259253838E1,-4.478411704E-2,2.451876394E-2,1.020713353E-1,1.141286310E-1
1.260259337E1,-3.933714330E-3,-2.895723917E-2,3.032482982E-2,4.211402512E-2
1.261264738E1,1.426062807E-2,-4.126672447E-2,-5.143795609E-2,6.746978130E-2
1.262270237E1,3.356506437E-2,-4.896750748E-2,-1.135406488E-1,1.281245850E-1
1.263275737E1,5.631774992E-2,-8.825553417E-2,-1.623719162E-1,1.931977418E-1
1.264281596E1,6.325474039E-2,-7.019677408E-2,-1.966798693E-1,2.182011005E-1
1.265287096E1,6.088237882E-2,-5.146478020E-2,-2.460642833E-1,2.586559861E-1
1.266292596E1,4.015341461E-2,-2.095481291E-2,-3.019203955E-1,3.052987489E-1
1.267297996E1,3.478113905E-2,-4.092407763E-2,-3.741446185E-1,3.779797658E-1
1.268303496E1,2.073218018E-2,-7.076249219E-2,-4.051225823E-1,4.117784116E-1
1.269308996E1,-2.612667516E-2,-8.666669950E-2,-3.953629947E-1,4.055929209E-1
1.270314496E1,-5.937511280E-2,-1.039707302E-1,-3.418703270E-1,3.622300888E-1
1.271319996E1,-7.677379534E-2,-1.447696774E-1,-2.177397859E-1,2.725125493E-1
1.272325496E1,-7.657820597E-2,-1.463794159E-1,-1.255098993E-1,2.074702144E-1
1.273330996E1,-4.939566985E-2,-1.775478528E-1,-5.923697233E-2,1.935773518E-1
1.274336396E1,-5.755735964E-2,-1.691023538E-1,1.545594513E-2,1.792967984E-1
1.275341896E1,-1.427261487E-1,-1.808880016E-1,-3.690470159E-2,2.333520509E-1
1.276347396E1,-6.215970308E-2,-2.335312150E-1,5.754303396E-2,2.484187148E-1
1.277352896E1,2.187881917E-3,-1.445356426E-1,7.323637605E-2,1.620459984E-1
1.278358396E1,-2.091987580E-3,-1.108580925E-1,3.658193529E-2,1.167567174E-1
1.279363896E1,-4.643010825E-2,-9.585691452E-2,7.403218210E-2,1.297114760E-1
1.280369296E1,-9.491638988E-2,-2.955080464E-2,1.389450467E-1,1.708452432E-1
1.281374796E1,-1.196420722E-1,4.317803308E-2,1.581554890E-1,2.029574504E-1
1.282380296E1,-7.752267748E-2,6.752437726E-2,1.781669998E-1,2.057007216E-1
1.283385796E1,-1.978858575E-2,7.923971236E-2,1.288743871E-1,1.525749908E-1
1.284391296E1,6.136652827E-3,7.546211869E-2,1.027139443E-1,1.276022892E-1
1.285396796E1,2.846819267E-2,1.203413992E-1,1.434935957E-1,1.894278289E-1
1.286402196E1,5.874975309E-2,1.178715353E-1,1.653387934E-1,2.113815245E-1
1.287407696E1,9.384517998E-2,8.287565723E-2,1.475615036E-1,1.935192231E-1
1.288413196E1,1.185479119E-1,9.228338867E-2,1.271810335E-1,1.968371066E-1
1.289418696E1,1.260370257E-1,1.808897558E-1,-6.999117136E-3,2.205797435E-1
1.290424196E1,1.529079053E-1,2.219443725E-1,-6.427142501E-2,2.770757082E-1
1.291429696E1,1.878456035E-1,2.356445450E-1,-1.191364342E-1,3.240490893E-1
1.292435096E1,1.998600237E-1,3.000355455E-1,-1.343140519E-1,3.847149883E-1
1.293440596E1,3.937861468E-1,4.099960904E-1,-1.576871270E-1,5.899402966E-1
1.294446096E1,4.133304651E-1,1.567492336E-1,-5.580407202E-2,4.455631157E-1
1.295451596E1,1.229518886E-1,-9.212507531E-2,2.045940757E-2,1.549928507E-1
1.296457096E1,4.627486467E-2,2.839027852E-2,-6.937545955E-2,8.809270914E-2
1.297462596E1,8.070487842E-2,1.361932008E-1,-8.069099128E-2,1.776876513E-1
1.298467996E1,8.936518952E-2,1.450109482E-3,1.660609245E-3,8.939237965E-2
1.299473496E1,8.091391638E-2,-1.477660100E-1,3.399161875E-2,1.718641490E-1
1.300478996E1,8.879055440E-2,-1.641526857E-1,5.276878238E-2,1.939443507E-1
1.301484496E1,1.112635969E-1,-1.074047269E-1,-4.326354861E-2,1.605836168E-1
1.302489996E1,1.250340821E-1,-1.318735702E-1,-1.085769475E-2,1.820495805E-1
1.303495496E1,1.765177926E-1,-2.442936002E-1,1.191884744E-1,3.241045921E-1
1.304500996E1,3.642748109E-1,-4.938792229E-1,3.043961066E-1,6.850327104E-1
1.305506396E1,3.988708855E-1,-5.845727536E-1,2.729953891E-1,7.585181409E-1
1.306511896E1,1.673003881E-1,-3.086308064E-1,7.402808905E-2,3.587792531E-1
1.307517396E1,-8.140025854E-2,8.988997713E-2,-2.255037189E-2,1.233480010E-1
1.308522896E1,-2.475221403E-1,3.586996369E-1,3.097153187E-2,4.369117477E-1
1.309528396E1,-3.148370411E-1,4.122784048E-1,1.308735502E-1,5.349988146E-1
1.310533896E1,-2.990081897E-1,3.412188010E-1,1.671087456E-1,4.834888836E-1
1.311539296E1,-2.487025470E-1,2.305475271E-1,6.298503757E-2,3.449235191E-1
1.312544796E1,-1.808330378E-1,1.999461240E-1,-1.800240755E-1,3.241723428E-1
1.313550296E1,-1.437961891E-1,2.632239608E-1,-3.103725457E-1,4.316194096E-1
1.314555796E1,-1.308346662E-1,2.844606096E-1,-3.204443747E-1,4.480180192E-1
1.315561296E1,-7.435699493E-2,2.923413406E-1,-3.251689249E-1,4.435394592E-1
1.316566796E1,-6.516195595E-2,2.971699713E-1,-3.563684982E-1,4.685665149E-1
1.317572296E1,-1.026823694E-1,3.252250582E-1,-3.202186722E-1,4.678194154E-1
1.318577696E1,-1.151610585E-1,3.334681705E-1,-1.822863632E-1,3.971037753E-1
1.319583196E1,-9.463206902E-2,2.934919265E-1,-1.605984557E-1,3.476846321E-1
1.320588696E1,-4.259287298E-2,2.312579638E-1,-1.098878932E-1,2.595568294E-1
1.321594196E1,3.575820878E-2,1.741810991E-1,-1.033232242E-1,2.056535763E-1
1.322599696E1,9.849693239E-2,1.802505089E-1,-1.263033664E-1,2.411315658E-1
1.323605196E1,1.286320201E-1,2.055198361E-1,-1.476702619E-1,2.838857267E-1
1.324610596E1,1.017153861E-1,2.546399559E-1,-1.112596500E-1,2.959159283E-1
1.325616096E1,8.118186504E-2,2.195913067E-1,-9.845366299E-2,2.539763000E-1
1.326621596E1,1.148803921E-1,1.132583745E-1,-3.281457424E-2,1.646261224E-1
1.327627096E1,1.553124265E-1,-2.834306225E-2,4.226250529E-2,1.634362211E-1
1.328632596E1,1.857762739E-1,-1.373291686E-1,1.571006513E-1,2.793792031E-1
1.329638096E1,1.490633610E-1,-1.487224683E-1,2.532569432E-1,3.293589796E-1
1.330643596E1,1.050269566E-1,-1.035522889E-1,2.952095461E-1,3.300036579E-1
1.331648996E1,8.500126630E-2,-6.069161341E-2,2.650589633E-1,2.848946143E-1
1.332654496E1,8.134573326E-2,-7.588267967E-2,2.479014784E-1,2.717175968E-1
1.333659996E1,4.885801837E-2,-9.210358679E-2,2.153962219E-1,2.393025471E-1
1.334665496E1,-1.162251055E-2,-6.034151137E-2,1.698434883E-1,1.806183581E-1
1.335670996E1,-7.275076479E-2,-1.227769107E-3,1.533373833E-1,1.697248783E-1
1.336676496E1,-1.080482130E-1,5.517725050E-3,1.227084982E-1,1.635916781E-1
1.337681896E1,-1.275309893E-1,-1.527190402E-2,1.069262785E-1,1.671245444E-1
1.338687396E1,-1.204516192E-1,-4.879881531E-2,8.815320790E-2,1.570379094E-1
1.339692896E1,-9.739502460E-2,-8.069493815E-2,3.477105260E-2,1.311735109E-1
1.340698396E1,-9.304688886E-2,-1.067415065E-1,1.353045702E-2,1.422481845E-1
1.341703896E1,-1.074379098E-1,-9.803339437E-2,4.464933872E-3,1.455107780E-1
1.342709396E1,-1.037721442E-1,-9.469448805E-2,3.572064042E-3,1.405292269E-1
1.343714896E1,-8.387962416E-2,-9.119624510E-2,9.803441763E-3,1.242926142E-1
1.344720296E1,-7.134392470E-2,-8.425486922E-2,-1.548927426E-3,1.104139382E-1
1.345725796E1,-6.672330871E-2,-6.795268580E-2,2.117686093E-2,9.756037552E-2
1.346731296E1,-7.561970115E-2,-2.894152477E-2,-1.396139681E-2,8.216368820E-2
1.347736796E1,-6.529600337E-2,-1.106190875E-2,-7.430349290E-2,9.953362718E-2
1.348742296E1,-3.126082286E-2,-3.940730989E-3,-1.279996437E-1,1.318206251E-1
1.349747796E1,-1.528506026E-2,4.184355229E-2,-2.062541002E-1,2.110101177E-1
1.350753196E1,-7.969901115E-3,1.164942236E-1,-3.137031198E-1,3.347298475E-1
1.351758696E1,-1.010530427E-2,1.820896044E-1,-4.043758929E-1,4.435973444E-1
1.352764196E1,2.813066214E-2,2.107918319E-1,-4.319121855E-1,4.814277377E-1
1.353769696E1,6.512029454E-2,1.764539849E-1,-4.049711394E-1,4.465179563E-1
1.354775196E1,9.227300987E-2,9.480777785E-2,-3.304349273E-1,3.559354777E-1
1.355780696E1,9.720045850E-2,6.651734054E-2,-2.885291022E-1,3.116432713E-1
1.356786196E1,1.352444901E-1,8.559490487E-2,-3.753807199E-1,4.080787237E-1
1.357791596E1,3.003340459E-1,1.642687529E-2,-5.141427487E-1,5.956619405E-1
1.358797096E1,3.792391513E-1,-1.749486923E-3,-6.003792393E-1,7.101271897E-1
1.359802596E1,2.938709722E-1,1.485338225E-1,-5.794356823E-1,6.664594171E-1
1.360808096E1,2.103654237E-1,2.711755894E-1,-4.525832623E-1,5.679977299E-1
1.361813596E1,1.642626134E-1,2.558916255E-1,-2.244102895E-1,3.779189175E-1
1.362819096E1,7.690272644E-2,2.047632795E-1,8.597512007E-2,2.350186189E-1
1.363824596E1,9.599227756E-3,1.240120619E-1,3.361055571E-1,3.583825919E-1
1.364829637E1,-6.421660736E-2,5.447178394E-2,4.860193956E-1,4.932603783E-1
1.365835138E1,-1.039057530E-1,-4.513297655E-2,5.564485234E-1,5.678629679E-1
1.366840637E1,-1.490885040E-1,-1.269041678E-1,5.552416581E-1,5.887489692E-1
1.367846137E1,-1.907089119E-1,-1.032289378E-1,5.414469069E-1,5.832588240E-1
1.368851638E1,-2.315349756E-1,-2.729472958E-2,5.175686324E-1,5.676537117E-1
1.369857138E1,-2.377806790E-1,6.424160421E-2,4.831221002E-1,5.422855325E-1
1.370862537E1,-2.398129519E-1,1.341254792E-1,4.284278297E-1,5.089698433E-1
1.371868038E1,-1.937537033E-1,1.330490799E-1,3.639470744E-1,4.332436130E-1
1.372873537E1,-1.731087928E-1,8.302476123E-2,3.523315805E-1,4.012446981E-1
1.373879037E1,-1.659650302E-1,6.314006187E-2,3.274037308E-1,3.724570600E-1
1.374884538E1,-1.575076175E-1,5.565876871E-2,2.768995750E-1,3.233881920E-1
1.375890037E1,-1.483808447E-1,1.733575188E-2,2.465180272E-1,2.882508302E-1
1.376895537E1,-1.313253938E-1,-9.736710414E-3,1.895749176E-1,2.308242014E-1
1.377900938E1,-1.015221356E-1,-3.015993834E-2,1.173869473E-1,1.581014272E-1
1.378906437E1,-7.956964150E-2,-6.267754711E-2,7.151495576E-2,1.239927081E-1
1.379911937E1,-4.674074158E-2,-9.341350928E-2,4.220520258E-2,1.126590421E-1
1.380917438E1,-5.037566319E-2,-1.007917453E-1,3.277715206E-2,1.173500109E-1
1.381922937E1,-4.427438602E-2,-1.313913942E-1,2.597450137E-2,1.410623779E-1
1.382928437E1,-1.730001077E-2,-1.758480672E-1,-2.280238688E-2,1.781622349E-1
1.383933938E1,-1.280233249E-2,-1.948550264E-1,-1.109941864E-1,2.246154279E-1
1.384939337E1,-1.040029630E-2,-2.011538664E-1,-1.951110613E-1,2.804271213E-1
1.385944837E1,-1.171577364E-2,-1.745769556E-1,-2.304785299E-1,2.893695311E-1
1.386950338E1,1.953013882E-2,-1.682056832E-1,-2.000379252E-1,2.620872941E-1
1.387955837E1,3.335383371E-2,-1.522828379E-1,-1.725928491E-1,2.325743591E-1
1.388961337E1,1.531444252E-2,-1.408890997E-1,-1.297988319E-1,1.921770208E-1
1.389966838E1,6.818438172E-3,-1.240045336E-1,-9.765610278E-2,1.579883852E-1
1.390972337E1,-9.425273091E-3,-1.179286918E-1,-1.004189122E-1,1.551772214E-1
1.391977737E1,-6.980698407E-3,-1.159483860E-1,-5.662151277E-2,1.292236592E-1
1.392983238E1,-3.074363664E-2,-8.760970920E-2,1.867600679E-3,9.286614169E-2
1.393988737E1,-1.877818689E-2,-7.277605399E-2,8.334621191E-3,7.562036927E-2
1.394994237E1,3.693496093E-2,-6.701669276E-2,9.222696304E-2,1.198383960E-1
1.395999738E1,8.604104742E-2,-9.370762423E-2,1.116332871E-1,1.692517990E-1
1.397005237E1,1.124457577E-1,-1.223145421E-1,1.067876995E-1,1.975057173E-1
1.398010737E1,1.297662337E-1,-1.454546057E-1,1.281095713E-1,2.332560396E-1
1.399016138E1,9.340795442E-2,-1.400494395E-1,1.287264526E-1,2.119183594E-1
1.400021637E1,3.606153309E-2,-9.032968774E-2,1.287942803E-1,1.613934735E-1
1.401027137E1,1.146127358E-2,-1.040292755E-1,7.463619947E-2,1.285457631E-1
1.402032638E1,4.175525934E-2,-8.433643788E-2,-4.716071784E-2,1.052628602E-1
1.403038137E1,5.703169495E-2,-3.852218762E-2,-3.553879201E-2,7.745694872E-2
1.404043637E1,7.022652179E-2,-9.485733300E-2,-7.933092892E-2,1.422078559E-1
1.405049038E1,1.446833579E-1,-4.383058235E-2,-1.198205584E-1,1.929024630E-1
1.406054537E1,1.628360389E-1,1.425112635E-2,-5.253723264E-3,1.635428744E-1
1.407060037E1,1.218369707E-1,2.169433951E-2,1.136230946E-2,1.242738665E-1
1.408065538E1,6.675035208E-2,8.303557858E-2,-4.590590537E-2,1.160080556E-1
1.409071037E1,6.776396692E-2,1.062550181E-1,-7.644766688E-2,1.473985409E-1
1.410076537E1,8.873880655E-2,7.770905748E-2,-8.534011245E-2,1.455891761E-1
1.411082038E1,7.840458378E-2,3.513401851E-2,-1.012971640E-1,1.328261775E-1
1.412087537E1,2.483356342E-2,2.299212903E-2,-1.113093513E-1,1.163405156E-1
1.413092937E1,-2.236676931E-2,7.504608929E-2,-5.718167603E-2,9.696355997E-2
1.414098438E1,-1.497252658E-2,1.020900464E-1,-5.076201797E-2,1.149927676E-1
1.415103937E1,4.508919552E-2,6.620071381E-2,-8.194755793E-2,1.145904547E-1
1.416109437E1,1.013182139E-1,2.576677904E-2,-7.076709688E-2,1.262429775E-1
1.417114938E1,1.006853990E-1,1.070332825E-3,-2.634930789E-2,1.040816084E-1
1.418120437E1,5.000334173E-2,-2.761172175E-2,1.354799867E-2,5.870510736E-2
1.419125837E1,1.965906993E-2,-5.783773363E-2,5.537956417E-2,8.245349349E-2
1.420131338E1,1.687067896E-3,-6.721959114E-2,5.554913342E-2,8.721826560E-2
1.421136837E1,-2.116385087E-2,-8.528310210E-2,8.482848108E-2,1.221351190E-1
1.422142337E1,-3.234986678E-2,-9.267105907E-2,9.970906019E-2,1.399154593E-1
1.423147838E1,-6.516327158E-2,-4.029228598E-2,2.610723317E-2,8.094015008E-2
1.424153337E1,-1.092650186E-1,4.706029192E-2,-8.388123214E-2,1.455663988E-1
1.425158837E1,-1.102669390E-1,7.635381907E-2,-1.536390996E-1,2.039452780E-1
1.426164338E1,-8.956414104E-2,6.879234597E-2,-2.326069164E-1,2.585732001E-1
1.427169737E1,-8.365465254E-2,6.617893293E-2,-1.915489376E-1,2.192458609E-1
1.428175237E1,-1.127867965E-1,8.691272110E-2,-1.939913195E-1,2.406393871E-1
1.429180738E1,-1.690527986E-1,1.274710554E-1,-2.125071126E-1,2.999783185E-1
1.430186237E1,-1.773282167E-1,1.690608385E-1,-1.078688496E-1,2.676986221E-1
1.431191737E1,-1.898506138E-1,1.367007391E-1,9.985874891E-3,2.341582058E-1
1.432197238E1,-1.675551805E-1,7.394388914E-2,8.083717167E-2,2.001926212E-1
1.433202737E1,-1.212927411E-1,2.358357489E-2,1.299520290E-1,1.793199484E-1
1.434208138E1,-9.852178305E-2,-2.313509345E-2,2.037070531E-1,2.274606290E-1
1.435213638E1,-7.208140478E-2,-5.478051692E-2,2.579721379E-1,2.733976187E-1
1.436219137E1,-4.758595660E-2,-6.487982780E-2,1.492846781E-1,1.695869406E-1
1.437224637E1,-9.006583214E-2,-4.486159265E-2,4.394241035E-2,1.097968672E-1
1.438230138E1,-1.162002549E-1,-3.145363480E-3,4.019960761E-3,1.163123064E-1
1.439235637E1,-1.384177740E-1,1.751182616E-2,-6.843464255E-2,1.554009154E-1
1.440241137E1,-1.445678754E-1,2.905919999E-3,-1.246117669E-1,1.908832298E-1
1.441246538E1,-1.346379876E-1,-1.877540946E-2,-1.595605749E-1,2.096174629E-1
1.442252037E1,-1.232806483E-1,-2.342979312E-3,-2.517851990E-1,2.803558351E-1
1.443257537E1,-1.209749450E-1,9.590749294E-3,-3.253215373E-1,3.472189833E-1
1.444263038E1,-1.305088301E-1,1.053010449E-2,-3.183118951E-1,3.441887570E-1
1.445268537E1,-1.641947857E-1,2.366850570E-2,-2.593608516E-1,3.078768864E-1
1.446274037E1,-1.849680425E-1,6.065185234E-2,-2.029627025E-1,2.812217676E-1
1.447279538E1,-1.595373322E-1,9.382646888E-2,-1.575198966E-1,2.430392653E-1
1.448284937E1,-1.049155672E-1,7.630134031E-2,-1.076793998E-1,1.685942583E-1
1.449290438E1,-4.558518559E-2,5.201536864E-2,-7.491861999E-2,1.019627743E-1
1.450295938E1,-7.900611609E-3,4.756534517E-2,4.187191129E-2,6.386030598E-2
1.451301437E1,2.688564375E-2,5.529141739E-2,9.652525127E-2,1.144425743E-1
1.452306937E1,8.282405555E-2,5.446155131E-2,5.884871721E-2,1.152781691E-1
1.453312438E1,1.177842656E-1,7.541241735E-2,4.207013190E-2,1.460481493E-1
1.454317937E1,1.505853912E-1,5.789021239E-2,6.162848353E-2,1.727000484E-1
1.455323437E1,1.853581980E-1,8.694941238E-2,5.952173173E-2,2.132151459E-1
1.456328838E1,2.170267180E-1,1.238514827E-1,7.418830276E-2,2.606601050E-1
1.457334337E1,2.141609976E-1,1.408823754E-1,1.297456223E-1,2.873094204E-1
1.458339838E1,2.064176761E-1,1.857115160E-1,2.306317270E-1,3.609543152E-1
1.459345338E1,1.887991382E-1,1.835164712E-1,2.586808205E-1,3.691059153E-1
1.460350837E1,1.918810594E-1,1.412317465E-1,3.274019766E-1,4.049157955E-1
1.461356337E1,1.834781720E-1,7.678855956E-2,3.493354672E-1,4.019900386E-1
1.462361838E1,1.342339450E-1,3.208513409E-2,3.689873743E-1,3.939541727E-1
1.463367237E1,8.483900607E-2,3.219389230E-2,3.584881139E-1,3.697943096E-1
1.464372846E1,7.880526423E-2,4.210039124E-2,3.810870177E-1,3.914205253E-1
1.465378346E1,5.958809763E-2,4.891108185E-2,3.650750023E-1,3.731257062E-1
1.466383846E1,7.846583337E-2,4.464480713E-2,2.889933711E-1,3.027659399E-1
1.467389346E1,5.623515800E-2,4.045980871E-2,2.192986536E-1,2.299810614E-1
1.468394846E1,3.039645821E-2,4.394884229E-2,1.547687817E-1,1.637339952E-1
1.469400346E1,1.284867167E-2,6.730364487E-2,8.848299086E-2,1.119111641E-1
1.470405746E1,3.923043162E-3,5.767371923E-2,5.426333070E-2,7.928529003E-2
1.471411246E1,2.213682756E-2,2.704308003E-2,3.293268800E-2,4.802009216E-2
1.472416746E1,1.883768231E-2,5.245683342E-3,1.727735281E-2,2.609372316E-2
1.473422246E1,7.511040866E-3,-1.808806926E-2,2.133532047E-2,2.896186949E-2
1.474427746E1,3.897169232E-4,-2.439341426E-2,2.569149613E-2,3.542941592E-2
1.475433246E1,2.107745826E-2,-6.429013610E-2,-2.015125930E-2,7.059429225E-2
1.476438746E1,3.776643500E-2,-1.233125156E-1,-6.402759612E-2,1.439854617E-1
1.477444246E1,3.175959036E-2,-1.634723622E-1,-8.077811480E-2,1.850864355E-1
1.478449646E1,-5.730417520E-3,-1.608889161E-1,-1.311647415E-1,2.076590244E-1
1.479455146E1,-5.114179462E-2,-1.425340676E-1,-1.565235311E-1,2.177867291E-1
1.480460646E1,-6.075695604E-2,-1.479180376E-1,-1.692874181E-1,2.328720325E-1
1.481466146E1,-6.567519531E-2,-1.623260155E-1,-1.755679125E-1,2.479658414E-1
1.482471646E1,-6.576114938E-2,-1.516085078E-1,-1.778635293E-1,2.427861270E-1
1.483477146E1,-5.735928521E-2,-1.382778794E-1,-1.744195193E-1,2.298543631E-1
1.484482646E1,-6.452153966E-2,-1.562105589E-1,-1.400542635E-1,2.194993496E-1
1.485488046E1,-6.666527510E-2,-1.475606266E-1,-1.441420519E-1,2.167840597E-1
1.486493546E1,-6.291647896E-2,-1.439954330E-1,-1.198164654E-1,1.976085864E-1
1.487499046E1,-6.527188361E-2,-1.235928896E-1,-5.446096659E-2,1.500053933E-1
1.488504546E1,-5.486325502E-2,-6.935192451E-2,-2.037696183E-2,9.074627683E-2
1.489510046E1,-2.071917012E-2,-4.442860633E-2,-3.013654947E-3,4.911483673E-2
1.490515546E1,2.564530313E-2,-5.015390754E-2,-1.240603745E-2,5.768020266E-2
1.491521046E1,4.026568115E-2,-5.255316630E-2,-2.596163750E-3,6.625632372E-2
1.492526546E1,4.053465307E-2,-4.158452064E-2,2.251470387E-2,6.228356401E-2
1.493531946E1,4.275220960E-2,-4.357345104E-2,2.217439592E-2,6.494690829E-2
1.494537446E1,4.325214654E-2,-4.423725620E-2,4.496099532E-2,7.647989354E-2
1.495542946E1,6.262280256E-2,-3.230308905E-2,7.010460734E-2,9.939698654E-2
1.496548446E1,8.607598454E-2,-3.792986467E-2,5.943753183E-2,1.112680095E-1
1.497553946E1,1.033634238E-1,-5.778788611E-2,2.134584546E-2,1.203290583E-1
1.498559446E1,8.810979232E-2,-4.139170870E-2,1.444730043E-2,9.841409219E-2
1.499564946E1,6.528562456E-2,-6.969881058E-4,-6.453571916E-3,6.560752364E-2
1.500570446E1,4.571280107E-2,3.375539124E-2,-2.666739643E-2,6.277130436E-2
1.501575846E1,6.677929580E-2,4.498350710E-2,-4.185553908E-2,9.074621981E-2
1.502581346E1,9.962325230E-2,2.742358759E-2,-5.062694728E-2,1.150649093E-1
1.503586846E1,1.094130993E-1,3.013961926E-2,-2.748542190E-2,1.167693083E-1
1.504592346E1,6.833290100E-2,5.449897349E-2,5.809208751E-3,8.759720530E-2
1.505597846E1,3.957117811E-2,6.919975072E-2,2.392797589E-2,8.322879110E-2
1.506603346E1,3.723083004E-2,2.128708094E-2,5.775938094E-2,7.194039621E-2
1.507608846E1,4.443299174E-2,-1.157675609E-2,8.865256011E-2,9.983781073E-2
1.508614246E1,5.142231479E-2,-4.605895624E-2,6.999175608E-2,9.830833041E-2
1.509619746E1,4.481306076E-2,-6.041679427E-2,6.648751974E-2,1.003941718E-1
1.510625246E1,1.084907010E-2,-2.473182186E-2,7.215522587E-2,7.704376649E-2
1.511630746E1,-2.551110953E-2,6.395538300E-3,5.128768265E-2,5.763806044E-2
1.512636246E1,-1.597415462E-2,1.074981362E-2,2.278250635E-2,2.982909157E-2
1.513641746E1,4.385411739E-3,-1.549161315E-2,-2.453140855E-2,2.934300461E-2
1.514647246E1,5.513047278E-3,-2.701282069E-2,-5.506322980E-2,6.157958629E-2
1.515652746E1,-1.219319880E-2,-1.223339841E-2,-5.142099917E-2,5.424434799E-2
1.516658146E1,-2.412064165E-2,-1.022064060E-2,-4.187308073E-2,4.939252714E-2
1.517663646E1,-3.267234072E-2,-4.138337642E-2,3.844544291E-3,5.286630508E-2
1.518669146E1,-4.744006857E-2,-4.625615358E-2,4.446105838E-2,7.979334285E-2
1.519674646E1,-3.141621262E-2,-3.479195639E-2,9.577856183E-2,1.066348515E-1
1.520680146E1,-6.393930316E-4,-6.339083433E-2,1.488630939E-1,1.617993431E-1
1.521685646E1,1.772992730E-2,-1.212276909E-1,1.738932699E-1,2.127189993E-1
1.522691146E1,6.525492668E-3,-1.625426549E-1,1.463499606E-1,2.188172929E-1
1.523696546E1,-2.498661429E-3,-1.125850676E-1,9.005706131E-2,1.441940188E-1
1.524702046E1,1.933674216E-2,-9.741592839E-2,-5.857740641E-3,9.948912417E-2
1.525707546E1,9.405831099E-3,-1.216907904E-1,-1.030220926E-1,1.597205988E-1
1.526713046E1,-4.257021502E-2,-5.849276796E-2,-1.558657193E-1,1.718364035E-1
1.527718546E1,-6.609546393E-2,2.623426393E-2,-1.704422432E-1,1.846819028E-1
1.528724046E1,-4.779777199E-2,5.703081787E-2,-2.266240454E-1,2.385279840E-1
1.529729546E1,-1.649192557E-2,7.534765944E-2,-2.404193813E-1,2.524890736E-1
1.530735046E1,4.715516299E-2,7.477667883E-2,-1.817279541E-1,2.020896099E-1
1.531740446E1,5.613136992E-2,1.033227856E-1,-1.383878070E-1,1.815971196E-1
1.532745946E1,1.498188213E-2,1.340148206E-1,-8.269892514E-2,1.581883092E-1
1.533751446E1,-1.013249382E-2,1.027556057E-1,5.054333210E-3,1.033776002E-1
1.534756946E1,-1.470808625E-2,6.075008556E-2,5.906097114E-2,8.599476152E-2
1.535762446E1,-2.154406607E-2,2.371542960E-2,8.556523025E-2,9.136726444E-2
1.536767946E1,-3.710175276E-2,1.419060767E-2,7.474027991E-2,8.464055083E-2
1.537773446E1,-4.092612416E-2,7.536183894E-3,3.925879061E-2,5.721008955E-2
1.538778946E1,-6.279763430E-3,-3.711096212E-2,-3.270698547E-2,4.986387307E-2
1.539784346E1,4.010751396E-3,-1.842106819E-2,-8.973721862E-2,9.169618468E-2
1.540789846E1,-3.166998178E-3,1.676937595E-2,-1.254485035E-1,1.266039844E-1
1.541795346E1,-1.436807066E-2,3.029632464E-2,-1.147264642E-1,1.195260236E-1
1.542800846E1,-3.574183658E-2,7.197732434E-2,-8.494951844E-2,1.169385941E-1
1.543806346E1,-5.002292991E-2,6.644103438E-2,-2.091607511E-2,8.575655522E-2
1.544811846E1,-4.912815973E-2,3.795880839E-2,2.259481072E-2,6.606793992E-2
1.545817346E1,-7.293495208E-2,3.777549818E-2,6.618580341E-2,1.054848618E-1
1.546822846E1,-1.072825201E-1,3.884407684E-2,1.212379235E-1,1.664843402E-1
1.547828246E1,-1.219957227E-1,5.761232346E-2,1.522790372E-1,2.034478836E-1
1.548833746E1,-8.908174574E-2,4.938061327E-2,1.360278708E-1,1.699340579E-1
1.549839246E1,-6.169543415E-2,4.348720461E-2,7.213943839E-2,1.044105461E-1
1.550844746E1,-8.063851252E-2,5.985180706E-2,6.144254208E-3,1.006109356E-1
1.551850246E1,-9.243614718E-2,1.033670783E-1,-2.534709513E-2,1.409669089E-1
1.552855746E1,-6.601638034E-2,1.303540251E-1,-7.493089914E-2,1.642101518E-1
1.553861246E1,-2.766317725E-2,1.264036462E-1,-7.678095818E-2,1.504607878E-1
1.554866746E1,-5.019834638E-3,1.075475451E-1,-8.380580306E-2,1.364371131E-1
1.555872146E1,2.710973829E-2,8.443262458E-2,-7.057413876E-2,1.133336449E-1
1.556877646E1,7.997748479E-2,4.509635836E-2,-9.721054494E-2,1.337160038E-1
1.557883146E1,1.236300194E-1,2.897383064E-2,-1.505845141E-1,1.969760403E-1
1.558888646E1,1.595066343E-1,1.681820020E-2,-2.093981481E-1,2.637665685E-1
1.559894146E1,1.351202367E-1,3.114373237E-3,-2.447533375E-1,2.795914411E-1
1.560899646E1,8.977449462E-2,5.433963686E-3,-2.015769124E-1,2.207311475E-1
1.561905146E1,8.314404443E-2,-2.122232303E-2,-2.029147553E-1,2.203127710E-1
1.562910646E1,6.180273056E-2,-5.891654491E-2,-1.608650887E-1,1.821216998E-1
1.563916046E1,2.629332080E-2,-1.092210183E-1,-1.138786179E-1,1.599653374E-1
1.564921808E1,-4.861228913E-3,-1.101703137E-1,-2.122948587E-2,1.123023626E-1
1.565927308E1,-9.381857514E-3,-1.062898090E-1,2.043309510E-2,1.086418618E-1
1.566932808E1,-2.801167130E-2,-1.152499361E-1,6.261256993E-2,1.341176179E-1
1.567938308E1,-2.380591527E-2,-8.945699081E-2,6.902579606E-2,1.154722275E-1
1.568943808E1,-2.570012078E-2,-3.015204459E-2,1.451980591E-2,4.219557755E-2
1.569949308E1,-4.206545413E-2,1.995479286E-2,-8.931621909E-3,4.740748948E-2
1.570954808E1,-3.752903804E-2,4.721743584E-2,-2.203347802E-2,6.421362081E-2
1.571960208E1,-3.006448254E-2,7.305160403E-2,-3.445120990E-2,8.618176040E-2
1.572965708E1,-1.361261040E-2,8.244471744E-2,-2.495591640E-3,8.359822111E-2
1.573971208E1,3.474561721E-3,7.632882223E-2,2.831514180E-2,8.148563638E-2
1.574976708E1,1.905154422E-2,6.831711352E-2,7.013676703E-2,9.974645571E-2
1.575982208E1,2.340187266E-2,5.410370171E-2,9.978682816E-2,1.158976672E-1
1.576987708E1,2.061260462E-2,4.316516921E-2,1.119654089E-1,1.217553452E-1
1.577993208E1,5.010464475E-2,-9.739999473E-3,1.087231278E-1,1.201085407E-1
1.578998708E1,6.808600232E-2,-2.095934451E-2,1.098077863E-1,1.308921227E-1
1.580004108E1,3.975741193E-2,-6.559114158E-4,1.043096495E-1,1.116314696E-1
1.581009608E1,1.264094934E-2,2.186434731E-2,8.005481422E-2,8.394412763E-2
1.582015108E1,2.385415480E-2,2.284580246E-2,6.416383624E-2,7.216612274E-2
1.583020608E1,5.176671579E-2,7.630031705E-3,3.940380156E-2,6.550320470E-2
1.584026108E1,6.910239458E-2,-5.872285590E-2,1.087699056E-2,9.133358454E-2
1.585031608E1,8.100396350E-2,-6.881339595E-2,-2.098156393E-2,1.083381354E-1
1.586037108E1,7.048628435E-2,-3.625639156E-2,-2.689368367E-2,8.370252344E-2
1.587042608E1,5.809208751E-2,5.985502303E-3,1.719373763E-2,6.087808705E-2
1.588048008E1,5.085952029E-2,6.721359774E-2,4.434294462E-2,9.523998773E-2
1.589053508E1,5.046863392E-2,8.754378185E-2,3.650826037E-2,1.074423093E-1
1.590059008E1,5.768219769E-2,5.899402052E-2,1.192013383E-2,8.336438075E-2
1.591064508E1,4.474040911E-2,5.620285213E-2,-5.732200921E-2,9.190363178E-2
1.592070008E1,-1.146653607E-2,7.241162628E-2,-8.379703224E-2,1.113412218E-1
1.593075508E1,-6.563163355E-2,1.131876232E-1,-7.289957643E-2,1.497774937E-1
1.594081008E1,-4.698544756E-2,1.270971259E-1,-3.652404785E-2,1.403400078E-1
