"Time (s)","Linear Acceleration x (m/s^2)","Linear Acceleration y (m/s^2)","Linear Acceleration z (m/s^2)","Absolute acceleration (m/s^2)"
6.285511700E-2,-2.322309315E-1,-1.066827774E-2,3.990430832E-1,4.618229097E-1
6.785819000E-2,-1.688697934E-1,-6.786441803E-2,6.510524750E-1,6.760117688E-1
7.286121000E-2,-1.601830125E-1,-1.045789719E-1,8.204565048E-1,8.424631951E-1
7.786423100E-2,-1.789085567E-1,-1.236324310E-1,8.993740082E-1,9.252928489E-1
8.286725200E-2,-2.298817635E-1,-1.423020363E-1,9.042243958E-1,9.437781798E-1
8.770824200E-2,-2.831183076E-1,-1.758480072E-1,8.409700394E-1,9.046043913E-1
9.271126300E-2,-3.046829104E-1,-1.691584587E-1,7.287998199E-1,8.078337933E-1
9.771433500E-2,-2.498469055E-1,-1.775960922E-1,5.830230713E-1,6.586954910E-1
1.027173560E-1,-1.811457872E-1,-1.598863602E-1,3.410062790E-1,4.179267002E-1
1.077203770E-1,-1.007111669E-1,-8.169078827E-2,1.074123383E-1,1.683850778E-1
1.127233980E-1,3.196632862E-2,5.418777466E-3,-1.195983887E-1,1.239152286E-1
1.175199600E-1,1.103124917E-1,6.245994568E-2,-3.724393845E-1,3.934224012E-1
1.225230330E-1,1.790789366E-1,1.053404808E-1,-5.281810760E-1,5.675747806E-1
1.275260540E-1,2.422212660E-1,1.178245544E-1,-6.412830353E-1,6.955556762E-1
1.325290750E-1,2.874379754E-1,9.507179260E-2,-6.265811920E-1,6.958902397E-1
1.375321480E-1,3.618746996E-1,1.251025200E-1,-5.427713394E-1,6.642323883E-1
1.425351170E-1,4.078263640E-1,6.858396530E-2,-4.243755341E-1,5.925543835E-1
1.474081380E-1,4.061527252E-1,1.788234711E-2,-3.131408691E-1,5.131637346E-1
1.524111580E-1,3.286836147E-1,-5.071401596E-2,-2.102108002E-1,3.934379373E-1
1.574141790E-1,2.510131001E-1,-1.097645760E-1,-1.968803406E-1,3.373687998E-1
1.624172000E-1,1.838559508E-1,-1.416754723E-1,-1.039209366E-1,2.543118384E-1
1.674202730E-1,9.895211458E-2,-1.571927071E-1,-2.365016937E-2,1.872442219E-1
1.724232940E-1,-4.275488853E-2,-1.385297775E-1,-6.355476379E-2,1.582962026E-1
1.772599080E-1,-1.175202429E-1,-1.025938988E-1,-1.780042648E-1,2.366897418E-1
1.822629290E-1,-1.765982211E-1,-2.435016632E-2,-3.277463913E-1,3.730918912E-1
1.872659500E-1,-2.252900898E-1,6.076765060E-2,-4.636383057E-1,5.190460581E-1
1.922690230E-1,-2.104811072E-1,7.435226440E-2,-5.171842575E-1,5.633028599E-1
1.972720440E-1,-1.336258054E-1,1.162538528E-1,-4.379272461E-1,4.723887033E-1
2.022750650E-1,-5.634880066E-2,1.416110992E-1,-2.414712906E-1,2.855473252E-1
2.071240230E-1,2.168911695E-2,1.064147949E-1,-7.475566864E-2,1.318443642E-1
2.121270440E-1,5.643707514E-2,2.362728119E-2,4.734706879E-2,7.736366582E-2
2.171301170E-1,1.022276282E-1,-3.597974777E-2,1.078853607E-1,1.529191985E-1
2.221330850E-1,1.374019384E-1,-1.108722687E-1,1.462182999E-1,2.292416713E-1
2.271361580E-1,1.340876222E-1,-1.449575424E-1,1.444520950E-1,2.446601465E-1
2.321391790E-1,1.471538544E-1,-1.486158371E-1,1.618890762E-1,2.644787267E-1
2.369578770E-1,1.154528260E-1,-1.061553955E-1,1.559734344E-1,2.211923039E-1
2.419608980E-1,8.472990990E-2,-3.729343414E-2,1.132040024E-1,1.462364661E-1
2.469639710E-1,1.055711508E-2,1.683235168E-3,4.824542999E-2,4.941566022E-2
2.519669400E-1,-1.180706024E-1,6.316900253E-2,-1.016826630E-1,1.681379017E-1
2.569700130E-1,-2.652277648E-1,1.024179459E-1,-2.412528992E-1,3.728782164E-1
2.619730330E-1,-3.466826081E-1,1.177940369E-1,-3.826246262E-1,5.295902854E-1
2.668103770E-1,-4.152600765E-1,1.686029434E-1,-3.901767731E-1,5.942270592E-1
2.718133980E-1,-4.028656483E-1,2.166190147E-1,-2.340402603E-1,5.138086916E-1
2.768164190E-1,-3.295018673E-1,2.969384193E-1,-8.628177643E-2,4.518721615E-1
2.818194400E-1,-2.948471904E-1,3.032355309E-1,1.901626587E-3,4.229542162E-1
2.868225130E-1,-2.769964635E-1,3.070497513E-1,2.966880798E-2,4.145923645E-1
2.918255330E-1,-2.663848996E-1,2.729868889E-1,1.016845703E-1,3.947435979E-1
2.966581900E-1,-2.561541498E-1,2.156691551E-1,1.068840027E-1,3.515001038E-1
3.016612100E-1,-2.651946843E-1,1.589684486E-1,5.597114563E-2,3.142164180E-1
3.066642310E-1,-2.438857853E-1,1.076679230E-1,1.099967957E-2,2.668213838E-1
3.116672520E-1,-2.070274949E-1,9.227609634E-2,-8.463573456E-2,2.419472446E-1
3.166703250E-1,-1.737352312E-1,7.721138000E-2,-2.067642212E-1,2.808860461E-1
3.216733460E-1,-1.677138805E-1,8.154678345E-2,-3.386573792E-1,3.866091619E-1
3.265118350E-1,-1.459010541E-1,6.763029099E-2,-4.851408005E-1,5.110993740E-1
3.315148560E-1,-7.809874415E-2,4.309129715E-2,-5.708560944E-1,5.777827915E-1
3.365179290E-1,-1.407468319E-2,3.655433655E-2,-5.923099518E-1,5.936037358E-1
3.415208980E-1,5.405658484E-2,-1.375150681E-2,-4.068078995E-1,4.106140346E-1
3.465239710E-1,1.999986768E-1,-2.717256546E-2,-1.471872330E-1,2.498037241E-1
3.515269920E-1,3.071846366E-1,-7.533788681E-2,7.019138336E-2,3.239830681E-1
3.563608980E-1,3.710771203E-1,-1.582522392E-1,1.922245026E-1,4.468693991E-1
3.613639190E-1,3.705157638E-1,-2.356567383E-1,1.947546005E-1,4.803596402E-1
3.663669920E-1,3.439661264E-1,-2.748565674E-1,2.071180344E-1,4.865765191E-1
3.713699600E-1,3.057794571E-1,-3.118824959E-1,1.985359192E-1,4.797794064E-1
3.763730330E-1,3.056882620E-1,-2.875661850E-1,1.455917358E-1,4.442258185E-1
3.813760540E-1,3.192619085E-1,-2.616062164E-1,6.062030792E-2,4.171819752E-1
3.862024080E-1,2.968273163E-1,-2.314038277E-1,-8.442878723E-2,3.857232262E-1
3.912054290E-1,2.808962464E-1,-2.060856819E-1,-2.511472702E-1,4.294752157E-1
3.962085020E-1,2.360496521E-1,-1.591000557E-1,-3.899850845E-1,4.828256747E-1
4.012114710E-1,1.866564751E-1,-1.496033669E-1,-4.826097488E-1,5.386408606E-1
4.062145440E-1,1.901895404E-1,-1.486358643E-1,-5.014371872E-1,5.565104978E-1
4.112175650E-1,2.583752275E-1,-8.752298355E-2,-3.671808243E-1,4.574273587E-1
4.160191270E-1,3.580461144E-1,-7.394266129E-2,-5.794715881E-2,3.701653826E-1
4.210220960E-1,6.108631492E-1,-7.103776932E-2,-8.927440643E-2,6.214258373E-1
4.260251690E-1,1.161149740E0,-1.549148560E-1,-1.537504196E-1,1.181484881E0
4.310281900E-1,1.408283234E0,-1.743268967E-1,2.627515793E-1,1.443152773E0
4.360312100E-1,1.238909721E0,-3.805813789E-1,-3.306198120E-2,1.296469274E0
4.410342830E-1,8.552106023E-1,-5.463762283E-1,-3.085613251E-1,1.060717799E0
4.459084500E-1,4.587371945E-1,-5.353860855E-1,-1.214809418E-1,7.154269309E-1
4.509114710E-1,1.784044504E-1,-4.821467400E-1,7.521152496E-2,5.195675127E-1
4.559145440E-1,-4.195380211E-2,-3.752665520E-1,3.295516968E-2,3.790397733E-1
4.609175650E-1,-3.321323693E-1,-2.128643990E-1,-2.169857025E-1,4.502287842E-1
4.659205850E-1,-5.728828907E-1,-9.984111786E-2,-2.271242142E-1,6.242983773E-1
4.709236060E-1,-6.400725245E-1,4.011201859E-2,-9.032440186E-2,6.476575548E-1
4.757589710E-1,-6.791706085E-1,1.289086342E-1,4.942798615E-2,6.930608034E-1
4.807619920E-1,-7.728028893E-1,1.553764343E-1,2.465267181E-1,8.259186188E-1
4.857650130E-1,-7.829475403E-1,1.764883995E-1,4.391126633E-1,9.148633434E-1
4.907680330E-1,-7.371044755E-1,1.444664001E-1,5.020284653E-1,9.034523388E-1
4.957711060E-1,-7.601331472E-1,1.022348404E-1,4.748620987E-1,9.020800280E-1
5.007741270E-1,-7.954547405E-1,7.833623886E-2,4.558029175E-1,9.201310288E-1
5.055722520E-1,-8.578350544E-1,9.589242935E-2,4.710712433E-1,9.833536774E-1
5.105753250E-1,-9.115575552E-1,1.380286217E-1,4.846715927E-1,1.041583232E0
5.155783460E-1,-8.589766026E-1,1.997933388E-1,5.984830856E-1,1.065804947E0
5.205813670E-1,-7.313006520E-1,2.596735954E-1,6.857900620E-1,1.035634602E0
5.255843880E-1,-5.788859725E-1,2.917766571E-1,6.116533279E-1,8.912700940E-1
5.305874600E-1,-3.758115768E-1,3.251399994E-1,4.605274200E-1,6.775218558E-1
5.354616270E-1,-1.584771872E-1,3.459134102E-1,2.543172836E-1,4.576553146E-1
5.404592310E-1,3.028422594E-2,3.188166618E-1,2.664756775E-2,3.213585086E-1
5.454567830E-1,1.507986784E-1,2.546577454E-1,-1.445293427E-1,3.293623226E-1
5.504543350E-1,2.700522542E-1,2.182273865E-1,-3.193120956E-1,4.717113806E-1
5.554518880E-1,3.430061936E-1,1.812148094E-1,-4.267673492E-1,5.767342771E-1
5.604494920E-1,3.869513869E-1,1.604313850E-1,-4.510869980E-1,6.155884054E-1
5.653102210E-1,4.023475051E-1,7.511425018E-2,-4.642953873E-1,6.189473904E-1
5.703078250E-1,4.246240258E-1,2.538681030E-2,-4.901266098E-1,6.489793117E-1
5.753053770E-1,3.751872182E-1,-2.509069443E-2,-4.261894226E-1,5.683594070E-1
5.803029290E-1,2.353658080E-1,-1.239461899E-1,-4.440670013E-1,5.176439155E-1
5.853005330E-1,1.053252816E-1,-1.808385849E-1,-4.597616196E-1,5.051502307E-1
5.902980850E-1,-1.231867075E-2,-1.983790398E-1,-4.116840363E-1,4.571539552E-1
5.951623040E-1,-5.569112301E-2,-1.606392860E-1,-3.572092056E-1,3.956069994E-1
6.001599080E-1,-1.822048426E-2,-9.896278381E-2,-2.465391159E-1,2.662839730E-1
6.051574600E-1,1.681554317E-2,-6.377983093E-2,-1.251010895E-1,1.414245803E-1
6.101550130E-1,1.197415590E-2,-7.634925842E-2,6.167507172E-2,9.887570047E-2
6.151525650E-1,-7.020968199E-2,-1.366696358E-1,2.588415146E-1,3.010098312E-1
6.201501690E-1,-1.126707196E-1,-1.521716118E-1,4.927005768E-1,5.278302273E-1
6.250128770E-1,-1.136268973E-1,-1.498327255E-1,6.088619232E-1,6.372391694E-1
6.300104810E-1,-2.044247985E-1,-2.080154419E-1,7.104024887E-1,7.679398533E-1
6.350080330E-1,-3.208780289E-1,-2.483406067E-1,6.885089874E-1,7.991748195E-1
6.400055850E-1,-3.703911304E-1,-2.469892502E-1,5.678596497E-1,7.215662554E-1
6.450031900E-1,-3.157455921E-1,-1.472315788E-1,5.297584534E-1,6.340476604E-1
6.500007420E-1,-3.075412214E-1,-2.100849152E-2,4.475383759E-1,5.434276009E-1
6.548579290E-1,-3.142107725E-1,6.544065475E-2,2.809028625E-1,4.265176515E-1
6.598554810E-1,-2.925537527E-1,1.101193428E-1,1.421556473E-1,3.433980138E-1
6.648530850E-1,-3.184224665E-1,1.685385704E-1,-2.387905121E-2,3.610655425E-1
6.698506380E-1,-3.603845239E-1,2.007699013E-1,-2.149085999E-1,4.651572472E-1
6.748482420E-1,-3.325839341E-1,1.979103088E-1,-3.002901077E-1,4.898517249E-1
6.798457940E-1,-2.332215011E-1,1.696472168E-1,-3.378591537E-1,4.442085710E-1
6.847111580E-1,-8.903300762E-2,1.329803467E-1,-3.257246017E-1,3.629148181E-1
6.897087100E-1,1.166325808E-2,6.883096695E-2,-2.832231522E-1,2.917003386E-1
6.947063150E-1,1.594067216E-1,-2.489376068E-2,-2.225103378E-1,2.748473261E-1
6.997038670E-1,3.088673353E-1,-2.462959290E-2,-1.222572327E-1,3.330952996E-1
7.047014710E-1,3.319672346E-1,1.135158539E-2,7.943153381E-3,3.322562220E-1
7.096990230E-1,2.913846374E-1,-5.051612854E-3,7.990837097E-2,3.021851641E-1
7.145626690E-1,2.491634488E-1,-2.855300903E-2,7.528877258E-2,2.618512895E-1
7.195602730E-1,1.814781427E-1,-1.881313324E-2,1.016817093E-1,2.088717795E-1
7.245578250E-1,6.411558390E-2,-5.934953690E-2,8.528518677E-2,1.220931559E-1
7.295553770E-1,-6.974864006E-2,-8.800220490E-2,-6.139373779E-2,1.279783259E-1
7.345529810E-1,-1.419113278E-1,-7.137584686E-2,-1.520833969E-1,2.199152021E-1
7.395505330E-1,-1.763644814E-1,-4.911899567E-3,-1.731128693E-1,2.471773100E-1
7.444112100E-1,-1.971160471E-1,6.594181061E-2,-2.248935699E-1,3.062354915E-1
7.494088150E-1,-1.516549587E-1,8.430194855E-2,-2.003831863E-1,2.650650230E-1
7.544063670E-1,-9.742957354E-2,6.955718994E-2,-1.025733948E-1,1.576452530E-1
7.594039190E-1,-6.735187769E-2,5.984687805E-2,-1.992034912E-2,9.227537347E-2
7.644015230E-1,-3.477460146E-2,2.694129944E-3,8.103084564E-2,8.821864422E-2
7.693990750E-1,-2.580058575E-2,-4.230737686E-2,1.432123184E-1,1.515432364E-1
7.742630850E-1,4.888713360E-3,-6.586122513E-2,2.050113678E-1,2.153863074E-1
7.792606900E-1,5.252379179E-2,-1.181883812E-1,3.140125275E-1,3.396043427E-1
7.842582420E-1,9.138256311E-2,-1.112308502E-1,3.819303513E-1,4.081591210E-1
7.892557940E-1,8.347636461E-2,-8.593940735E-2,3.402614594E-1,3.607377800E-1
7.942533980E-1,9.426116943E-3,-9.239864349E-2,2.184953690E-1,2.374164848E-1
7.992509500E-1,-9.754240513E-2,-9.433078766E-2,5.515098572E-2,1.464733748E-1
8.041132420E-1,-1.830515265E-1,-6.799221039E-2,-5.913543701E-2,2.040289243E-1
8.091108460E-1,-2.857621014E-1,-3.236484528E-2,-1.415042877E-1,3.205166536E-1
8.141083980E-1,-2.988185883E-1,1.506280899E-2,-2.113275528E-1,3.663042062E-1
8.191059500E-1,-2.676398456E-1,6.007766724E-2,-2.640619278E-1,3.807480988E-1
8.241035540E-1,-1.709095836E-1,9.090518951E-2,-2.333984375E-1,3.032303907E-1
8.291011060E-1,-8.029872179E-2,1.339273453E-1,-1.961297989E-1,2.507016485E-1
8.339625650E-1,7.252454758E-3,1.199574471E-1,-1.142396927E-1,1.658104176E-1
8.389601170E-1,1.158220172E-1,1.442914009E-1,6.187248230E-2,1.950972888E-1
8.439577210E-1,1.601411104E-1,1.422266960E-1,2.436246872E-1,3.243864925E-1
8.489552730E-1,1.572569609E-1,5.194520950E-2,2.743387222E-1,3.204524786E-1
8.539528250E-1,1.547497511E-1,1.890373230E-2,2.741680145E-1,3.153933049E-1
8.589504290E-1,9.559869766E-2,1.189470291E-2,2.551679611E-1,2.727476550E-1
8.638143880E-1,6.664812565E-3,-3.575706482E-2,2.174472809E-1,2.204683818E-1
8.688119920E-1,-3.824794292E-2,-6.166362762E-2,1.467647552E-1,1.637229413E-1
8.738095440E-1,-9.220308065E-2,-4.439020157E-2,1.716995239E-2,1.037627358E-1
8.788070960E-1,-7.675677538E-2,-8.002758026E-3,-9.247875214E-2,1.204490195E-1
8.838047000E-1,-6.596565247E-2,2.372026443E-2,-7.315444946E-2,1.013197499E-1
8.888022520E-1,-4.313540459E-2,1.512861252E-2,-5.893516541E-2,7.458479582E-2
8.936653250E-1,2.739262581E-2,-1.945018768E-2,4.062175751E-2,5.271425739E-2
8.986628770E-1,7.640606165E-2,-6.083440781E-2,1.440534592E-1,1.740405428E-1
9.036604810E-1,7.035672665E-2,-1.140913963E-1,1.731624603E-1,2.189798013E-1
9.086580330E-1,6.171149015E-2,-1.555089951E-1,1.547880173E-1,2.279269309E-1
9.136556380E-1,1.210725307E-2,-1.734356880E-1,1.321802139E-1,2.183990211E-1
9.186531900E-1,-1.623165607E-2,-1.729202271E-1,1.220455170E-1,2.122733610E-1
9.235153770E-1,-1.870286465E-2,-9.902477264E-2,4.802417755E-2,1.116334375E-1
9.285129290E-1,-2.916342020E-2,-7.115840912E-2,-7.743644714E-2,1.091349056E-1
9.335105330E-1,-6.423944235E-2,1.604080200E-2,-1.187372208E-1,1.359505089E-1
9.385080850E-1,-9.275281429E-2,4.559087753E-2,-1.454286575E-1,1.784127437E-1
9.435056900E-1,-1.265206039E-1,7.526540756E-2,-2.195520401E-1,2.643396359E-1
9.485032420E-1,-2.339742482E-1,7.437276840E-2,-2.767000198E-1,3.699164209E-1
9.533615750E-1,-2.304744720E-1,1.003136635E-1,-2.363939285E-1,3.450556517E-1
9.583591790E-1,-1.332757175E-1,1.267218590E-1,-1.588459015E-1,2.430079563E-1
9.633567310E-1,-2.134597301E-2,9.158802032E-2,-6.801223755E-2,1.160589526E-1
9.683542830E-1,6.435173750E-2,2.838659286E-2,1.074504852E-1,1.284233295E-1
9.733518350E-1,1.283482909E-1,-6.055545807E-2,2.102298737E-1,2.536470916E-1
9.783494400E-1,1.397816539E-1,-1.586751938E-1,2.220849991E-1,3.066569332E-1
9.832117310E-1,1.415625811E-1,-2.091021538E-1,2.341794968E-1,3.443888961E-1
9.882093350E-1,1.311226487E-1,-2.026939392E-1,1.989994049E-1,3.128557897E-1
9.932068880E-1,1.443461776E-1,-1.467962265E-1,1.001644135E-1,2.289494722E-1
9.982044920E-1,1.405832767E-1,-7.727289200E-2,-3.812980652E-2,1.648897804E-1
1.003202044E0,1.173372269E-1,-1.079750061E-2,-1.300525665E-1,1.754943899E-1
1.008199648E0,2.521133423E-2,8.978843689E-4,-2.784252167E-1,2.795657684E-1
1.013063919E0,-1.856726408E-2,8.428573608E-3,-3.451557159E-1,3.457575052E-1
1.018061471E0,-1.444363594E-2,8.320426941E-2,-3.737382889E-1,3.831603811E-1
1.023059075E0,-1.507866383E-2,1.056404114E-1,-3.097238541E-1,3.275914046E-1
1.028056627E0,-4.447060823E-2,5.462169647E-2,-2.274169922E-1,2.380748896E-1
1.033054179E0,-5.235475302E-2,4.939842224E-2,-9.602451324E-2,1.200080473E-1
1.038051783E0,-6.026613712E-2,4.407978058E-2,5.335807800E-2,9.177210267E-2
1.042914752E0,-2.783018351E-2,1.238965988E-2,1.612682343E-1,1.641202796E-1
1.047907825E0,-5.751079321E-2,-3.635454178E-2,2.757720947E-1,2.840411806E-1
1.052900898E0,-6.554704905E-2,-6.641244888E-2,3.231849670E-1,3.363860162E-1
1.057893919E0,-6.634598970E-2,-7.781124115E-2,3.610095978E-1,3.752123523E-1
1.062886992E0,-7.904481888E-2,-7.088232040E-2,3.110275269E-1,3.286495234E-1
1.067880065E0,-6.539654732E-2,-4.796886444E-2,2.807664871E-1,2.922456854E-1
1.072764075E0,-5.674737692E-2,-5.645084381E-2,2.176790237E-1,2.319291270E-1
1.077757148E0,-5.800837278E-2,-4.844760895E-2,2.459812164E-2,7.948087641E-2
1.082750221E0,-7.531106472E-3,-3.803968430E-2,-1.431312561E-1,1.482912392E-1
1.087743294E0,1.379215717E-2,-3.444099426E-2,-2.621450424E-1,2.647573020E-1
1.092736315E0,7.288086414E-2,-2.077674866E-2,-2.806987762E-1,2.907491988E-1
1.097729388E0,1.152969003E-1,-2.066898346E-2,-2.781744003E-1,3.018303813E-1
1.102611419E0,1.819620728E-1,-3.886318207E-2,-1.715755463E-1,2.530982239E-1
1.107604492E0,1.851381063E-1,-4.448127747E-2,-6.850242615E-3,1.905298619E-1
1.112597565E0,1.774349213E-1,-5.203199387E-2,1.182126999E-1,2.194646260E-1
1.117590638E0,1.016019583E-1,-7.610797882E-2,1.780223846E-1,2.186489236E-1
1.122583658E0,-1.988768578E-3,-8.116769791E-2,1.447792053E-1,1.659914717E-1
1.127576731E0,-8.100926876E-2,-1.008486748E-1,1.524162292E-1,1.999091388E-1
1.132463242E0,-1.478500068E-1,-1.042499542E-1,1.294021606E-1,2.224243616E-1
1.137456315E0,-2.149240375E-1,-6.510066986E-2,5.687332153E-2,2.316571039E-1
1.142449388E0,-1.992547214E-1,-1.706933975E-2,-4.333496094E-2,2.046258175E-1
1.147442460E0,-2.063069642E-1,1.628160477E-2,-1.236047745E-1,2.410514351E-1
1.152435481E0,-2.121579349E-1,2.319383621E-2,-2.221050262E-1,3.080253010E-1
1.157428554E0,-1.666969657E-1,1.352262497E-2,-2.793827057E-1,3.256154726E-1
1.162278242E0,-9.822416306E-2,3.500366211E-2,-2.483587265E-1,2.693609096E-1
1.167271315E0,3.388625383E-2,7.333707809E-2,-1.417903900E-1,1.631904407E-1
1.172264388E0,1.680209041E-1,4.275703430E-2,1.356792450E-2,1.739059423E-1
1.177257460E0,2.311226130E-1,1.724863052E-2,1.865053177E-1,2.974885057E-1
1.182250481E0,2.240367532E-1,-8.116722107E-3,2.937812805E-1,3.695480872E-1
1.187243554E0,1.639354825E-1,-3.344726562E-2,3.502540588E-1,3.881642278E-1
1.192160325E0,5.548870564E-2,-5.417251587E-2,3.731088638E-1,3.810825136E-1
1.197153398E0,-1.117408276E-2,-5.603265762E-2,3.103799820E-1,3.155950761E-1
1.202146471E0,-4.178500175E-2,-6.049108505E-2,2.150526047E-1,2.272724808E-1
1.207139544E0,-1.203472614E-1,-5.308008194E-2,5.882930756E-2,1.440897146E-1
1.212132565E0,-1.757318377E-1,-1.702880859E-2,-1.127328873E-1,2.094764020E-1
1.217125638E0,-2.130442858E-1,4.848003387E-3,-3.280963898E-1,3.912270592E-1
1.221979179E0,-2.584401667E-1,-3.792762756E-3,-4.420871735E-1,5.121003552E-1
1.226972252E0,-2.189532220E-1,9.809017181E-3,-4.865751266E-1,5.336591460E-1
1.231965325E0,-1.184956431E-1,7.277488708E-3,-4.145736694E-1,4.312371815E-1
1.236958398E0,1.219296455E-2,-2.798175812E-2,-1.914138794E-1,1.938321965E-1
1.241951419E0,8.547252417E-2,-5.553627014E-2,-8.318901062E-3,1.022694177E-1
1.246944492E0,9.933042526E-2,-7.344818115E-2,1.233701706E-1,1.745891397E-1
1.251867304E0,4.242879152E-2,-1.200337410E-1,2.113227844E-1,2.467095875E-1
1.256860377E0,5.447924137E-3,-1.121563911E-1,3.605670929E-1,3.776471428E-1
1.261853450E0,-3.560394049E-2,-1.171097755E-1,4.519882202E-1,4.682688238E-1
1.266846523E0,-7.831698656E-2,-8.042955399E-2,4.648313522E-1,4.781952003E-1
1.271839544E0,-1.134341955E-1,-7.338666916E-2,3.687114716E-1,3.926844397E-1
1.276832617E0,-1.365910172E-1,-5.055999756E-2,2.904443741E-1,3.249174569E-1
1.281715169E0,-1.431438923E-1,-2.309799194E-3,1.656026840E-1,2.189058200E-1
1.286708242E0,-1.070825458E-1,2.165031433E-2,8.626937866E-3,1.095893780E-1
1.291701315E0,-7.651275396E-2,1.932287216E-2,-1.992912292E-1,2.143468427E-1
1.296694388E0,-1.060033441E-1,-1.563835144E-2,-2.941083908E-1,3.130191888E-1
1.301687408E0,-1.092849374E-1,-5.415344238E-2,-3.933429718E-1,4.118185114E-1
1.306680481E0,-4.058158398E-2,-6.759691238E-2,-3.070268631E-1,3.169884890E-1
1.311529856E0,4.522258043E-2,-6.089496613E-2,-1.412715912E-1,1.603463163E-1
1.316522929E0,8.633613586E-2,-4.639196396E-2,1.258850098E-3,9.801901540E-2
1.321516002E0,7.803183794E-2,-7.677030563E-2,6.633090973E-2,1.279938950E-1
1.326509075E0,7.242870331E-2,-9.516000748E-2,1.689252853E-1,2.069712447E-1
1.331502096E0,-4.484653473E-3,-1.091618538E-1,2.424335480E-1,2.659143614E-1
1.336495169E0,-8.126878738E-2,-1.212215424E-1,2.515115738E-1,2.907874651E-1
1.341416523E0,-1.489653289E-1,-1.219978333E-1,1.801824570E-1,2.637041113E-1
1.346409596E0,-2.220054567E-1,-9.721755981E-2,8.607769012E-2,2.571906792E-1
1.351402669E0,-2.528641522E-1,-4.668903351E-2,1.431369781E-2,2.575364581E-1
1.356395742E0,-2.372556627E-1,2.973508835E-2,-1.043634415E-1,2.608949077E-1
1.361388763E0,-1.705607772E-1,4.390096664E-2,-1.721620560E-1,2.462885444E-1
1.366381835E0,-1.405379176E-1,9.379768372E-2,-1.420736313E-1,2.207573973E-1
1.371268294E0,-5.572587252E-2,1.079249382E-1,-7.884025574E-3,1.217182115E-1
1.376261367E0,7.405394316E-2,7.930374146E-2,1.797189713E-1,2.099332716E-1
1.381254440E0,2.036638260E-1,5.061197281E-2,3.753557205E-1,4.300377225E-1
1.386247513E0,2.907861471E-1,1.458549500E-2,5.789937973E-1,6.480764903E-1
1.391240533E0,2.763870955E-1,-3.611946106E-2,6.267976761E-1,6.859808807E-1
1.396233606E0,1.443553567E-1,-3.503084183E-2,5.676860809E-1,5.867990417E-1
1.401116367E0,-9.786367416E-3,-5.372285843E-2,4.785394669E-1,4.816450351E-1
1.406109440E0,-1.410525441E-1,-7.292270660E-2,3.263225555E-1,3.629048795E-1
1.411102513E0,-2.333656847E-1,-8.739519119E-2,1.350975037E-1,2.834586350E-1
1.416095585E0,-2.587307096E-1,-5.176544189E-2,-7.045745850E-3,2.639524267E-1
1.421088606E0,-2.037306428E-1,-5.887079239E-2,-1.837568283E-1,2.806038435E-1
1.426081679E0,-1.117678285E-1,-5.103492737E-2,-3.901576996E-1,4.090472367E-1
1.430930898E0,-8.310639858E-2,-4.950094223E-2,-5.809879303E-1,5.889855617E-1
1.435923971E0,-1.271146536E-2,-7.555675507E-2,-6.898813248E-1,6.941229335E-1
1.440917044E0,2.577859163E-2,-8.390188217E-2,-5.963621140E-1,6.027867223E-1
1.445910117E0,6.877535582E-2,-1.032900810E-1,-3.899974823E-1,4.092638838E-1
1.450903138E0,1.191734076E-1,-1.289725304E-1,-1.548643112E-1,2.341349388E-1
1.455896210E0,1.198510528E-1,-1.284732819E-1,8.072566986E-2,1.933553536E-1
1.460816888E0,7.585835457E-2,-1.353731155E-1,3.144569397E-1,3.506615709E-1
1.465809960E0,-1.267445087E-2,-1.121921539E-1,4.468946457E-1,4.609365959E-1
1.470803033E0,-8.376896381E-2,-1.091012955E-1,5.192956924E-1,5.372041960E-1
1.475796054E0,-1.639636457E-1,-9.758234024E-2,5.512647629E-1,5.833517198E-1
1.480789127E0,-2.008743882E-1,-9.186553955E-2,4.979524612E-1,5.447443904E-1
1.485782200E0,-1.969809532E-1,-7.714223862E-2,3.669147491E-1,4.235314086E-1
1.490630950E0,-1.196836233E-1,-2.720832825E-2,1.848764420E-1,2.219093545E-1
1.495624023E0,-5.524623394E-2,5.737781525E-3,-5.741214752E-2,7.988255870E-2
1.500617096E0,-3.466206789E-2,1.036262512E-2,-2.598667145E-1,2.623729259E-1
1.505610169E0,-1.673710346E-2,2.275562286E-2,-3.968381882E-1,3.978423012E-1
1.510603190E0,2.500927448E-2,3.357601166E-2,-4.001226425E-1,4.023070238E-1
1.515596263E0,6.440913677E-2,5.965328217E-2,-3.493366241E-1,3.601987340E-1
1.520492981E0,1.135510802E-1,4.358720779E-2,-2.685661316E-1,2.948244555E-1
1.525486054E0,9.618902206E-2,-2.677917480E-3,-1.887865067E-1,2.118958336E-1
1.530479127E0,1.029639244E-1,-2.929544449E-2,-1.169481277E-1,1.585454426E-1
1.535472200E0,7.423466444E-2,-6.281757355E-2,4.454803467E-2,1.069642947E-1
1.540465221E0,1.528042555E-2,-7.971000671E-2,1.763048172E-1,1.940890650E-1
1.545458294E0,-7.293462753E-3,-9.697580338E-2,2.098140717E-1,2.312562339E-1
1.550368971E0,-4.194557667E-2,-8.861637115E-2,1.887731552E-1,2.127148250E-1
1.555358398E0,-8.418911695E-2,-9.740209579E-2,1.420640945E-1,1.917216280E-1
1.560347877E0,-1.221668720E-1,-5.896854401E-2,4.848384857E-2,1.440580347E-1
1.565337356E0,-1.511648297E-1,-3.281211853E-2,-6.084060669E-2,1.662197951E-1
1.570326835E0,-1.734488010E-1,-3.046894073E-2,-9.564590454E-2,2.004020509E-1
1.575316263E0,-1.581223011E-1,1.966190338E-2,-1.017637253E-1,1.890637679E-1
1.580215950E0,-1.097986102E-1,2.921867371E-2,-1.174402237E-1,1.634064620E-1
1.585205377E0,-2.841645479E-2,3.906726837E-2,2.834415436E-2,5.601015486E-2
1.590194856E0,8.849978447E-2,-3.145694733E-3,1.727237701E-1,1.941020557E-1
1.595184335E0,1.437224746E-1,-3.084945679E-2,3.491296768E-1,3.788131068E-1
1.600173815E0,1.305961013E-1,-7.538652420E-2,4.719514847E-1,4.954560259E-1
1.605163242E0,1.277555227E-1,-7.767963409E-2,5.585231781E-1,5.781900549E-1
1.610032460E0,8.734679222E-2,-8.788728714E-2,5.734910965E-1,5.867245309E-1
1.615021940E0,2.845865488E-2,-1.038136482E-1,5.294752121E-1,5.403065508E-1
1.620011419E0,-5.136752129E-2,-1.108832359E-1,3.959589005E-1,4.143876990E-1
1.625000898E0,-1.096180081E-1,-1.139125824E-1,2.236061096E-1,2.738464467E-1
1.629990325E0,-1.014053226E-1,-8.634996414E-2,4.339313507E-2,1.400796913E-1
1.634979752E0,-1.247509122E-1,-3.738975525E-2,-1.449012756E-1,1.948259828E-1
1.639918033E0,-1.056011915E-1,2.141189575E-2,-3.509798050E-1,3.671469793E-1
1.644907460E0,-3.708004951E-2,4.744577408E-2,-5.273122787E-1,5.307393625E-1
1.649896940E0,1.149827242E-2,6.737756729E-2,-6.552801132E-1,6.588353160E-1
1.654886419E0,2.171748877E-2,7.192468643E-2,-6.237554550E-1,6.282640189E-1
1.659875846E0,1.225680113E-1,4.911613464E-2,-4.411096573E-1,4.604487396E-1
1.664865325E0,2.042511106E-1,2.242422104E-2,-1.321105957E-1,2.442837926E-1
1.669736367E0,2.219912410E-1,-2.308464050E-2,1.148777008E-1,2.510177242E-1
1.674725846E0,1.263137460E-1,-1.114916801E-1,3.315114975E-1,3.718674900E-1
1.679715325E0,-1.894474030E-3,-1.763305664E-1,4.185457230E-1,4.541768157E-1
1.684704804E0,-1.247507930E-1,-1.753063202E-1,4.651241302E-1,5.124797779E-1
1.689694231E0,-2.067180574E-1,-1.897625923E-1,4.359674454E-1,5.184687166E-1
1.694683710E0,-2.790207267E-1,-1.716814041E-1,3.457641602E-1,4.763191418E-1
1.699583085E0,-3.343243897E-1,-1.019883156E-1,2.280826569E-1,4.173680779E-1
1.704572565E0,-2.371300757E-1,-6.149196625E-2,6.867885590E-2,2.544183955E-1
1.709561992E0,-9.060508013E-2,-2.046108246E-3,-4.205036163E-2,9.990845819E-2
1.714551471E0,2.153557539E-2,1.949262619E-2,-2.424430847E-1,2.441769703E-1
1.719540950E0,1.156534553E-1,2.499246597E-2,-4.415292740E-1,4.571087889E-1
1.724530429E0,1.609745622E-1,6.222152710E-2,-6.346292496E-1,6.576766778E-1
1.729467721E0,1.963702440E-1,6.453180313E-2,-6.199769974E-1,6.535266663E-1
1.734457200E0,2.485597730E-1,1.098346710E-2,-5.324497223E-1,5.877119227E-1
1.739446627E0,2.630307674E-1,-4.829788208E-2,-2.941646576E-1,3.975559279E-1
1.744436054E0,2.520911098E-1,-4.740095139E-2,-7.471370697E-2,2.671683286E-1
1.749425585E0,1.253798604E-1,-7.527446747E-2,7.411193848E-2,1.639479621E-1
1.754415013E0,-2.260804176E-4,-8.927917480E-2,2.220144272E-1,2.392931843E-1
1.759319752E0,-1.343578696E-1,-1.112766266E-1,3.739509583E-1,4.126425135E-1
1.764309231E0,-2.487680614E-1,-1.366791725E-1,4.682683945E-1,5.475783358E-1
1.769298658E0,-3.438557982E-1,-1.558175087E-1,4.507532120E-1,5.879577911E-1
1.774288138E0,-3.225054443E-1,-1.375665665E-1,3.483247757E-1,4.942311920E-1
1.779277617E0,-2.451927662E-1,-1.317038536E-1,1.994924545E-1,3.424363256E-1
1.784267044E0,-1.431428790E-1,-9.260416031E-2,1.155757904E-2,1.708771253E-1
1.789169596E0,-1.376444101E-2,-4.858112335E-2,-1.227807999E-1,1.327580890E-1
1.794159023E0,1.545773745E-1,5.369186401E-3,-2.587585449E-1,3.014614029E-1
1.799148502E0,2.808852792E-1,1.463127136E-2,-2.372608185E-1,3.679718877E-1
1.804137981E0,3.539377451E-1,1.486730576E-2,-8.795261383E-2,3.650049677E-1
1.809127460E0,3.248484135E-1,5.965232849E-3,1.216392517E-1,3.469267693E-1
1.814116888E0,1.827945709E-1,-1.249122620E-2,2.178363800E-1,2.846446457E-1
1.819021679E0,7.084715366E-2,4.362106323E-3,2.160491943E-1,2.274106451E-1
1.824011158E0,-1.137858629E-2,-8.035659790E-3,2.478256226E-1,2.482168069E-1
1.829000585E0,-5.952250957E-2,-1.874446869E-2,2.821102142E-1,2.889298483E-1
1.833990013E0,-7.883101702E-2,-1.496791840E-3,1.834173203E-1,1.996458940E-1
1.838979544E0,-1.125151515E-1,2.005624771E-2,5.246829987E-2,1.257570470E-1
1.843968971E0,-1.459233165E-1,-6.199359894E-3,-4.882144928E-2,1.539986372E-1
1.848844231E0,-1.100934148E-1,-2.002477646E-2,-1.945791245E-1,2.244606587E-1
1.853833710E0,-5.309420824E-2,-6.982803345E-3,-3.061943054E-1,3.108419328E-1
1.858823138E0,-3.697931767E-3,-7.506370544E-3,-4.125413895E-1,4.126262453E-1
1.863812617E0,8.348315954E-2,2.535820007E-3,-4.092922211E-1,4.177271724E-1
1.868802096E0,1.323705912E-1,-5.551958084E-2,-2.925348282E-1,3.258542971E-1
1.873791523E0,1.318429112E-1,-8.639717102E-2,-6.308746338E-2,1.697853128E-1
1.878693138E0,1.203842163E-1,-1.407470703E-1,1.762371063E-1,2.556591774E-1
1.883682617E0,1.003069282E-1,-2.140569687E-1,3.852119446E-1,4.519625072E-1
1.888672044E0,4.972207546E-2,-2.164516449E-1,5.264120102E-1,5.713433327E-1
1.893661523E0,-5.770874023E-2,-2.295317650E-1,5.435523987E-1,5.928442797E-1
1.898650950E0,-1.032236218E-1,-1.844067574E-1,4.947633743E-1,5.380072163E-1
1.903640429E0,-1.347762942E-1,-1.074800491E-1,3.971061707E-1,4.329086754E-1
1.908531158E0,-1.714271307E-1,-3.902912140E-2,2.531671524E-1,3.082274169E-1
1.913520585E0,-1.913456619E-1,4.777908325E-3,2.984142303E-2,1.937175812E-1
1.918510013E0,-1.188668013E-1,6.273794174E-2,-2.131052017E-1,2.519507745E-1
1.923499544E0,-2.152574062E-2,8.771562576E-2,-4.448642731E-1,4.539400951E-1
1.928488971E0,5.051481724E-2,8.990907669E-2,-6.419887543E-1,6.502191549E-1
1.933478450E0,1.282584071E-1,1.125354767E-1,-7.740173340E-1,7.926015934E-1
1.938394960E0,1.029823422E-1,8.889293671E-2,-7.512607574E-1,7.634789078E-1
1.943384440E0,1.209927797E-1,4.548311234E-2,-6.059284210E-1,6.195621177E-1
1.948373867E0,1.514297724E-1,3.436374664E-2,-3.388795853E-1,3.727616079E-1
1.953363346E0,1.611340046E-1,2.515792847E-3,-7.753372192E-4,1.611555081E-1
1.958352825E0,1.719127297E-1,-2.678298950E-2,2.655773163E-1,3.174942930E-1
1.963342252E0,1.096493006E-1,-7.565927505E-2,4.065542221E-1,4.278242987E-1
1.968246627E0,3.017365932E-3,-1.299414635E-1,4.875011444E-1,5.045307267E-1
1.973236106E0,-1.192278862E-1,-2.016191483E-1,5.398902893E-1,5.885126118E-1
1.978225533E0,-2.142902017E-1,-2.095665932E-1,5.044670105E-1,5.867924780E-1
1.983215013E0,-1.874666810E-1,-2.137041092E-1,3.890962601E-1,4.818807969E-1
1.988204492E0,-1.848376393E-1,-1.922478676E-1,2.013587952E-1,3.341699566E-1
1.993193919E0,-1.544026136E-1,-1.520791054E-1,-3.934001923E-2,2.202631574E-1
1.998097408E0,-1.035339236E-1,-7.863044739E-2,-2.401533127E-1,2.730853972E-1
2.003086888E0,1.517361403E-2,-1.003122330E-2,-4.062509537E-1,4.066579661E-1
2.008076315E0,1.108695269E-1,3.765439987E-2,-5.286912918E-1,5.415019740E-1
2.013065794E0,1.342086196E-1,5.281066895E-2,-5.247669220E-1,5.442253603E-1
2.018055221E0,1.526798606E-1,3.556919098E-2,-4.192438126E-1,4.475954441E-1
2.023044700E0,1.594524980E-1,9.765625000E-3,-1.986379623E-1,2.549068587E-1
2.027970950E0,1.476888657E-1,8.290290833E-3,9.354782104E-2,1.750197840E-1
2.032960429E0,1.055232882E-1,-2.419948578E-2,3.500852585E-1,3.664429938E-1
2.037949856E0,6.645601988E-2,-6.657505035E-2,5.359048843E-1,5.440980472E-1
2.042939283E0,-1.015877724E-2,-7.401609421E-2,6.518173218E-1,6.560849060E-1
2.047928815E0,-8.821147680E-2,-1.136107445E-1,7.151660919E-1,7.294869464E-1
2.052918242E0,-1.606838703E-1,-1.162686348E-1,7.264328003E-1,7.530221212E-1
2.057819179E0,-2.251674831E-1,-8.914470673E-2,6.407661438E-1,6.850025002E-1
2.062805742E0,-2.532426119E-1,-1.084089279E-1,4.494237900E-1,5.271300211E-1
2.067792304E0,-2.122226357E-1,-5.914831161E-2,2.599477768E-1,3.407489054E-1
2.072778919E0,-1.431806684E-1,-2.462959290E-2,5.072593689E-2,1.538845064E-1
2.077765481E0,-8.468168974E-2,1.444530487E-2,-1.638870239E-1,1.850367856E-1
2.082752044E0,2.499276400E-2,4.883432388E-2,-3.673620224E-1,3.714354385E-1
2.087670013E0,1.379915476E-1,3.387784958E-2,-4.792566299E-1,4.998762779E-1
2.092656575E0,1.574510932E-1,3.650760651E-2,-5.193843842E-1,5.439520113E-1
2.097643190E0,1.247756481E-1,4.004621506E-2,-5.097961426E-1,5.263694223E-1
2.102629752E0,9.491860867E-2,3.760099411E-2,-4.605255127E-1,4.717066089E-1
2.107616315E0,4.428613186E-2,5.744981766E-2,-3.242626190E-1,3.322769765E-1
2.112602877E0,3.963297606E-2,5.861520767E-2,-1.324071884E-1,1.501272091E-1
2.117520742E0,4.563093185E-3,1.479959488E-2,6.248092651E-2,6.437170190E-2
2.122507304E0,-1.567131281E-2,-3.137063980E-2,2.250194550E-1,2.277355093E-1
2.127493919E0,2.248883247E-3,-5.638217926E-2,3.580121994E-1,3.624317074E-1
2.132480481E0,-6.184935570E-3,-8.227920532E-2,4.263305664E-1,4.342417218E-1
2.137467044E0,-3.625619411E-2,-8.763265610E-2,4.756460190E-1,4.850083808E-1
2.142453606E0,-4.984951019E-2,-1.011481285E-1,4.586267471E-1,4.722863652E-1
2.147370221E0,-1.184120774E-1,-7.977485657E-2,3.210754395E-1,3.513899339E-1
2.152356783E0,-1.654951572E-1,-6.362628937E-2,1.611051559E-1,2.395659054E-1
2.157343398E0,-1.365705729E-1,-1.911926270E-2,-1.412105560E-2,1.386234893E-1
2.162329960E0,-5.113512278E-2,2.290010452E-2,-1.167316437E-1,1.294816288E-1
2.167316523E0,-1.145374775E-2,2.735042572E-2,-1.785192490E-1,1.809650695E-1
2.172303085E0,-2.865195274E-4,4.918813705E-2,-2.236013412E-1,2.289478428E-1
2.177222252E0,2.528429031E-2,2.407455444E-2,-3.114700317E-1,3.134205803E-1
2.182208815E0,8.138114214E-2,2.398967743E-3,-3.919124603E-1,4.002799294E-1
2.187195429E0,7.981443405E-2,-1.845550537E-2,-3.294706345E-1,3.395023542E-1
2.192181992E0,7.114011049E-2,-4.586839676E-2,-2.059917450E-1,2.227047915E-1
2.197168554E0,7.690995932E-2,-3.715276718E-2,-3.855419159E-2,9.371176895E-2
2.202155117E0,5.661743879E-2,-4.765653610E-2,8.716964722E-2,1.143469598E-1
2.207057356E0,-2.509891987E-2,-1.012191772E-1,1.526441574E-1,1.848662122E-1
2.212043919E0,-1.016252041E-1,-1.357746124E-1,1.584348679E-1,2.320862659E-1
2.217030533E0,-1.613021493E-1,-1.065511703E-1,1.788005829E-1,2.633271420E-1
2.222017096E0,-2.186660171E-1,-9.478759766E-2,1.708412170E-1,2.932340995E-1
2.227003658E0,-2.451351881E-1,-9.088993073E-2,1.205587387E-1,2.879004158E-1
2.231990221E0,-2.389674485E-1,-9.668207169E-2,-3.843021393E-2,2.606333550E-1
2.236920325E0,-1.977880597E-1,-7.856798172E-2,-7.494926453E-2,2.256334119E-1
2.241906888E0,-1.547129154E-1,-4.616928101E-2,-1.041193008E-1,1.921158960E-1
2.246893450E0,-4.997837543E-2,-3.499984741E-2,-5.014038086E-2,7.897395218E-2
2.251880065E0,1.020890474E-1,-4.027366638E-2,7.207870483E-2,1.312992060E-1
2.256866627E0,1.921235919E-1,-5.478620529E-2,1.645774841E-1,2.588411697E-1
2.261853190E0,2.562085986E-1,-5.014896393E-2,2.324619293E-1,3.495658925E-1
2.266773658E0,2.300083041E-1,-8.869123459E-2,2.666778564E-1,3.631625451E-1
2.271760221E0,1.472668052E-1,-1.083498001E-1,2.509307861E-1,3.104729465E-1
2.276746835E0,6.547057629E-2,-1.236066818E-1,2.901992798E-1,3.221500119E-1
2.281733398E0,-2.037280798E-2,-1.132502556E-1,3.009672165E-1,3.222141169E-1
2.286719960E0,-8.892405033E-2,-9.615564346E-2,2.286643982E-1,2.635162263E-1
2.291706523E0,-1.166183949E-1,-5.793905258E-2,9.764480591E-2,1.627614572E-1
2.296586419E0,-9.218841791E-2,-2.466821671E-2,-1.806354523E-2,9.712629396E-2
2.301572981E0,-6.363654137E-2,6.126880646E-3,-1.756229401E-1,1.868972047E-1
2.306559596E0,-3.103089333E-2,4.168033600E-2,-3.058376312E-1,3.102206044E-1
2.311546158E0,-3.005754948E-2,7.285451889E-2,-3.782615662E-1,3.863845877E-1
2.316532721E0,3.237664700E-2,5.725812912E-2,-3.983182907E-1,4.037130185E-1
2.321519283E0,9.212940931E-2,4.009103775E-2,-2.285337448E-1,2.496453322E-1
2.326470794E0,1.046032906E-1,2.844285965E-2,-5.104923248E-2,1.198201519E-1
2.331457356E0,8.172923326E-2,-4.213476181E-2,2.496051788E-2,9.527871313E-2
2.336443971E0,1.421004534E-2,-4.807376862E-2,1.312417984E-1,1.404899365E-1
2.341430533E0,-1.718193293E-2,-5.936574936E-2,1.823453903E-1,1.925340292E-1
2.346417096E0,-1.246377230E-1,-6.661796570E-2,2.453479767E-1,2.831397976E-1
2.351403658E0,-5.852639675E-2,-8.171558380E-2,1.942691803E-1,2.187310910E-1
2.356323502E0,5.365294218E-2,-7.383346558E-2,1.465396881E-1,1.726380579E-1
2.361310065E0,-2.112424374E-2,-5.489540100E-2,1.020412445E-1,1.177801100E-1
2.366296679E0,-7.878804207E-2,1.358652115E-2,-1.086711884E-2,8.068607936E-2
2.371283242E0,-5.252271891E-2,4.832077026E-2,-1.252746582E-1,1.441779207E-1
2.376269804E0,-1.198846102E-2,7.604932785E-2,-2.769699097E-1,2.874709626E-1
2.381256367E0,9.233891964E-3,6.872606277E-2,-4.682121277E-1,4.733192717E-1
2.386136992E0,5.147635937E-2,6.265449524E-2,-6.085824966E-1,6.139609569E-1
2.391123554E0,7.184761763E-2,6.024551392E-2,-6.676511765E-1,6.742030076E-1
2.396110169E0,9.689444304E-2,1.401329041E-2,-5.986356735E-1,6.065884725E-1
2.401096731E0,6.737565994E-2,4.942417145E-3,-4.571790695E-1,4.621434936E-1
2.406083294E0,6.483346224E-2,1.577997208E-2,-2.983837128E-1,3.057535370E-1
2.411069856E0,4.872375727E-2,8.041381836E-3,-9.372806549E-2,1.059415811E-1
2.415989648E0,3.337126970E-2,-1.633548737E-2,1.543416977E-1,1.587509037E-1
2.420976210E0,4.612326622E-3,-5.764627457E-2,3.744201660E-1,3.788599045E-1
2.425962773E0,-4.467606544E-2,-9.953498840E-2,5.004510880E-1,5.122054824E-1
2.430949388E0,-1.192550063E-1,-1.635708809E-1,5.784683228E-1,6.128644141E-1
2.435935950E0,-1.882094741E-1,-1.596016884E-1,5.544080734E-1,6.068474412E-1
2.440922513E0,-2.613958716E-1,-1.448578835E-1,5.144824982E-1,5.949822258E-1
2.445874648E0,-2.054077387E-1,-5.977296829E-2,5.275459290E-1,5.692713360E-1
2.450861210E0,-1.376972198E-1,1.905727386E-2,5.788974762E-1,5.953536697E-1
2.455847773E0,-1.039205790E-1,3.969478607E-2,4.756946564E-1,4.885289847E-1
2.460834388E0,-3.525114059E-2,4.556560516E-2,3.189334869E-1,3.240947954E-1
2.465820950E0,1.287931204E-2,5.372333527E-2,1.540794373E-1,1.636842888E-1
2.470807513E0,8.100438118E-2,3.088760376E-2,5.484867096E-2,1.025871851E-1
2.475723085E0,1.052961349E-1,3.950262070E-2,-1.045131683E-2,1.129467268E-1
2.480709648E0,8.680558205E-2,3.645610809E-2,-8.962440491E-2,1.299876565E-1
2.485696210E0,9.997987747E-2,3.407144547E-2,-1.447677612E-1,1.792053124E-1
2.490682825E0,1.305794120E-1,2.265548706E-2,-9.999465942E-2,1.660216427E-1
2.495669388E0,8.790594339E-2,1.170873642E-2,-9.860324860E-2,1.326165526E-1
2.500655950E0,1.267409325E-2,1.302003860E-2,-2.161817551E-1,2.169440141E-1
2.505573138E0,-2.867984772E-2,-1.396179199E-2,-2.616319656E-1,2.635692523E-1
2.510559700E0,-6.259477139E-2,-7.391595840E-2,-3.328628540E-1,3.466689399E-1
2.515546315E0,-5.608391762E-2,-4.288291931E-2,-3.275756836E-1,3.350972681E-1
2.520532877E0,-8.780634403E-2,-4.515361786E-2,-3.224287033E-1,3.372077579E-1
2.525519440E0,-1.196486950E-1,-9.925079346E-2,-3.270130157E-1,3.620829224E-1
2.530506002E0,-1.589818597E-1,-1.169209480E-1,-3.673181534E-1,4.169752578E-1
2.535422148E0,-1.555732489E-1,-1.077170372E-1,-4.051971436E-1,4.472032212E-1
2.540408710E0,-8.121007681E-2,-1.002964973E-1,-3.433160782E-1,3.667702189E-1
2.545395325E0,2.111291885E-2,-8.531522751E-2,-2.157001495E-1,2.329184361E-1
2.550381888E0,9.223812819E-2,-5.818605423E-2,-8.227348328E-2,1.366104507E-1
2.555368450E0,1.394134760E-1,-9.539556503E-2,8.325004578E-2,1.883268468E-1
2.560355013E0,9.136152267E-2,-9.443187714E-2,2.403306961E-1,2.739035428E-1
2.565271367E0,5.549484491E-2,-9.641122818E-2,3.655223846E-1,3.820751450E-1
2.570255638E0,1.952362061E-2,-1.205263138E-1,4.378480911E-1,4.545533137E-1
2.575239908E0,-2.142894268E-2,-8.816909790E-2,5.005035400E-1,5.086617570E-1
2.580224127E0,-2.675074339E-2,-9.022903442E-2,4.823627472E-1,4.914577304E-1
2.585208398E0,2.007251978E-2,-4.308271408E-2,4.101133347E-1,4.128582972E-1
2.590192669E0,4.765450954E-3,-3.005409241E-2,3.006982803E-1,3.022340381E-1
2.595126106E0,3.727090359E-2,-1.503705978E-2,1.614437103E-1,1.663709861E-1
2.600110377E0,1.004141569E-2,-2.616024017E-2,-4.084205627E-2,4.953041243E-2
2.605094648E0,-7.651221752E-2,-1.767396927E-2,-2.844552994E-1,2.950954184E-1
2.610078867E0,-1.529828310E-1,1.035547256E-2,-4.241971970E-1,4.510590253E-1
2.615063138E0,-1.860845089E-1,2.255916595E-2,-5.134286880E-1,5.465760497E-1
2.620047408E0,-1.497420669E-1,4.047536850E-2,-4.765920639E-1,5.011994986E-1
2.624976523E0,-5.380421877E-2,1.154422760E-2,-2.006015778E-1,2.080123942E-1
2.629960794E0,5.170983076E-2,1.161670685E-2,1.607742310E-1,1.692843992E-1
2.634945065E0,5.733323097E-2,-2.654600143E-2,4.027919769E-1,4.077170174E-1
2.639929283E0,3.002059460E-2,-7.210922241E-2,5.147924423E-1,5.206843907E-1
2.644913554E0,8.164048195E-4,-1.133770943E-1,6.191482544E-1,6.294438759E-1
2.649897825E0,-4.246878624E-2,-9.363508224E-2,6.471958160E-1,6.553117966E-1
2.654824700E0,-5.725878477E-2,-8.452892303E-2,5.733985901E-1,5.824170760E-1
2.659808971E0,-5.555659533E-2,-6.451511383E-2,4.626960754E-1,4.704640193E-1
2.664793242E0,-4.725319147E-2,-5.956315994E-2,3.342885971E-1,3.428257579E-1
2.669777460E0,-5.141025782E-2,-5.021095276E-2,1.667728424E-1,1.815966281E-1
2.674761731E0,-5.110824108E-2,-5.280637741E-2,2.680873871E-2,7.822579033E-2
2.679746002E0,-2.015674114E-2,4.186630249E-3,-9.543323517E-2,9.762850230E-2
2.684673971E0,-1.719355583E-3,3.266143799E-2,-2.073631287E-1,2.099266368E-1
2.689658242E0,-5.979537964E-4,6.610536575E-2,-3.114261627E-1,3.183654060E-1
2.694642513E0,7.047891617E-3,7.613277435E-2,-4.457750320E-1,4.522844805E-1
2.699626731E0,2.372127771E-2,7.729959488E-2,-5.128326416E-1,5.191678386E-1
2.704610950E0,4.044407606E-2,6.493616104E-2,-4.300718307E-1,4.368228564E-1
2.709595273E0,7.178777456E-2,3.432559967E-2,-2.652425766E-1,2.769212087E-1
2.714523710E0,7.979214191E-2,-3.376150131E-2,-1.257448196E-1,1.527035839E-1
2.719507981E0,2.415436506E-2,-8.239126205E-2,3.635787964E-2,9.323973845E-2
2.724492252E0,-1.616805792E-2,-1.358208656E-1,1.426591873E-1,1.976369332E-1
2.729476471E0,-4.635506868E-2,-1.513853073E-1,2.269773483E-1,2.767399868E-1
2.734460742E0,-6.418377161E-2,-1.531605721E-1,2.277393341E-1,2.818562074E-1
2.739445013E0,-7.949030399E-2,-1.198344231E-1,2.382831573E-1,2.783125230E-1
2.744373450E0,-1.067667007E-1,-9.653043747E-2,1.562385559E-1,2.124329073E-1
2.749357721E0,-1.650434732E-1,-7.099580765E-2,1.549243927E-2,1.803323832E-1
2.754341940E0,-1.614911556E-1,-4.542636871E-2,-7.903862000E-2,1.854455493E-1
2.759326210E0,-8.949619532E-2,-5.290412903E-2,-1.610898972E-1,1.917247267E-1
2.764310481E0,-2.829247713E-2,-4.377365112E-4,-2.521591187E-1,2.537417526E-1
2.769294752E0,5.302643776E-2,-3.116416931E-2,-2.808437347E-1,2.874999337E-1
2.774189127E0,6.889390945E-2,1.462125778E-2,-2.475957870E-1,2.574176095E-1
2.779173398E0,6.272321939E-2,5.505561829E-3,-2.170152664E-1,2.259649073E-1
2.784157669E0,3.973174095E-2,-1.046562195E-2,-1.938962936E-1,1.982016982E-1
2.789141940E0,-1.154321432E-2,-3.592634201E-2,-1.970386505E-1,2.006194847E-1
2.794126210E0,-3.175872564E-2,-3.263473511E-2,-2.666645050E-1,2.705246769E-1
2.799110429E0,-6.174653769E-2,-4.096794128E-2,-3.001842499E-1,3.091950695E-1
2.804067304E0,-5.367940664E-2,-3.234148026E-2,-3.026599884E-1,3.090801168E-1
2.809051575E0,3.308796883E-2,2.156448364E-2,-1.674776077E-1,1.720714669E-1
2.814035846E0,1.601888537E-1,7.272386551E-2,3.299427032E-2,1.789912047E-1
2.819020065E0,1.254051924E-1,-4.763603210E-3,2.174491882E-1,2.510643417E-1
2.824004335E0,4.689794779E-2,-7.924652100E-2,3.907756805E-1,4.014785936E-1
2.828988606E0,-1.046109200E-2,-1.154780388E-1,4.938306808E-1,5.072606364E-1
2.833927252E0,-1.442652941E-2,-1.330614090E-1,5.321741104E-1,5.487465236E-1
2.838911523E0,-2.297478914E-2,-1.370778084E-1,5.658674240E-1,5.826869726E-1
2.843895794E0,-4.792517424E-2,-6.342458725E-2,5.331468582E-1,5.390408825E-1
2.848880013E0,-7.737588882E-2,-8.357048035E-2,5.199813843E-1,5.323078934E-1
2.853864283E0,-6.846141815E-2,-8.964538574E-2,4.595861435E-1,4.732258280E-1
2.858848554E0,-4.774904251E-2,-3.402042389E-2,3.379926682E-1,3.430399452E-1
2.863776992E0,-1.096141338E-2,-2.491950989E-3,2.078790665E-1,2.081827771E-1
2.868761263E0,-3.441333771E-3,3.592348099E-2,1.145114899E-1,1.200634023E-1
2.873745533E0,-5.853343010E-2,2.421712875E-2,5.319595337E-3,6.356830860E-2
2.878729752E0,-6.890904903E-2,1.977348328E-2,6.370544434E-3,7.197243581E-2
2.883714023E0,-3.692162037E-2,3.445196152E-2,3.116893768E-2,5.934346113E-2
2.888698294E0,3.006613255E-2,3.930425644E-2,1.551628113E-2,5.186088970E-2
2.893625898E0,9.171265364E-2,3.925180435E-2,-4.693984985E-3,9.986965744E-2
2.898610169E0,1.029664874E-1,6.042575836E-2,-6.741333008E-2,1.371055319E-1
2.903594388E0,7.170450687E-2,7.643842697E-2,-9.388351440E-2,1.407070848E-1
2.908578658E0,1.017189026E-2,3.529214859E-2,-9.640216827E-2,1.031619172E-1
2.913562929E0,-2.643769979E-2,5.408430099E-2,-1.061906815E-1,1.220677042E-1
2.918547200E0,-7.620203495E-2,5.871915817E-2,-1.113519669E-1,1.471528124E-1
2.923476575E0,-9.861820936E-2,2.317905426E-2,-9.053993225E-2,1.358686833E-1
2.928460846E0,-1.251357794E-1,-1.155185699E-2,-1.082220078E-1,1.658445406E-1
2.933445117E0,-1.343026757E-1,-6.670093536E-2,-1.950454712E-1,2.460263387E-1
2.938429335E0,-1.216101050E-1,-8.041048050E-2,-2.078523636E-1,2.538847535E-1
2.943413606E0,-8.025944233E-2,-1.075921059E-1,-1.639127731E-1,2.118608896E-1
2.948397877E0,-3.936022520E-2,-1.293320656E-1,-1.253261566E-1,1.843438528E-1
2.953289804E0,-2.283173800E-2,-1.389188766E-1,-8.470821381E-2,1.643022338E-1
2.958274075E0,-4.049962759E-2,-1.317963600E-1,-7.523918152E-2,1.570714321E-1
2.963258346E0,-5.179262161E-2,-1.416430473E-1,-8.462619781E-2,1.729358895E-1
2.968242565E0,-3.533554077E-2,-1.114058495E-1,-1.174135208E-1,1.656677356E-1
2.973226835E0,-4.137974977E-2,-6.756448746E-2,-1.781387329E-1,1.949632063E-1
2.978211106E0,-6.481915712E-2,-3.382444382E-2,-2.144069672E-1,2.265302710E-1
2.983138919E0,-4.370564222E-2,-5.130767822E-4,-3.167409897E-1,3.197425542E-1
2.988123190E0,-2.341794968E-2,-2.187156677E-2,-4.064149857E-1,4.076762274E-1
2.993107408E0,-1.005689502E-1,3.385066986E-2,-4.007940292E-1,4.146032265E-1
2.998091679E0,-1.218100786E-1,6.159543991E-2,-2.532644272E-1,2.877056891E-1
3.003075950E0,-9.461879730E-2,7.351493835E-2,-1.194524765E-1,1.691923672E-1
3.008060221E0,-9.848773479E-3,7.662963867E-2,3.175926208E-2,8.353293117E-2
3.013030429E0,6.301254034E-2,5.858325958E-2,2.100296021E-1,2.269691880E-1
3.018014700E0,9.095788002E-2,4.293727875E-2,3.986864090E-1,4.111785483E-1
3.022998919E0,8.381420374E-2,-2.312994003E-2,5.504179001E-1,5.572429269E-1
3.027983190E0,3.733110428E-2,-1.062588692E-1,6.799325943E-1,6.891972805E-1
3.032967460E0,8.592188358E-3,-1.591014862E-1,7.424621582E-1,7.593662917E-1
3.037951731E0,-2.201968431E-2,-1.794748306E-1,7.338218689E-1,7.557715373E-1
3.042876575E0,-7.237493992E-3,-1.510200500E-1,6.379985809E-1,6.556688388E-1
3.047860846E0,-1.193040609E-2,-1.476855278E-1,4.960823059E-1,5.177364232E-1
3.052845065E0,-4.277229309E-4,-1.046032906E-1,3.248262405E-1,3.412537441E-1
3.057829335E0,2.495229244E-2,-4.798984528E-2,1.765918732E-1,1.846898260E-1
3.062813606E0,3.540158272E-2,-2.994155884E-2,5.106067657E-2,6.897073073E-2
3.067797877E0,7.411211729E-2,-2.613162994E-2,-1.115036011E-1,1.364130531E-1
3.072729908E0,7.422888279E-2,-3.620576859E-2,-2.301387787E-1,2.445089818E-1
3.077712304E0,1.699423790E-2,-1.964521408E-2,-3.218421936E-1,3.228887365E-1
3.082694752E0,-3.258705139E-2,-4.544305801E-2,-3.061666489E-1,3.112314321E-1
3.087677148E0,-7.241439819E-2,-2.748346329E-2,-2.292537689E-1,2.419844548E-1
3.092659596E0,-5.971211195E-2,3.366756439E-2,-1.437778473E-1,1.592831145E-1
3.097641992E0,-5.914753675E-2,7.084798813E-2,-6.153106689E-2,1.109231298E-1
3.102575898E0,-7.790637016E-2,5.096197128E-2,-1.333332062E-2,9.404415169E-2
3.107558346E0,-5.893611908E-2,4.328060150E-2,2.016448975E-2,7.585040043E-2
3.112540742E0,-1.412940025E-2,4.753255844E-2,7.240295410E-2,8.775632072E-2
3.117523138E0,-2.883255482E-3,3.264904022E-2,8.861732483E-2,9.448440744E-2
3.122505585E0,-8.082389832E-3,1.062393188E-2,6.198501587E-2,6.340611285E-2
3.127487981E0,1.060748100E-2,3.141164780E-2,4.753112793E-3,3.349331802E-2
3.132427096E0,-4.669588804E-2,1.404571533E-2,-5.440807343E-2,7.306179941E-2
3.137409492E0,-8.641517162E-2,-3.112316132E-3,8.745193481E-4,8.647562190E-2
3.142391940E0,-8.240145445E-2,-7.910728455E-3,3.199577332E-3,8.284211861E-2
3.147374335E0,-5.664962530E-2,-1.965284348E-2,2.915191650E-2,6.667269711E-2
3.152356783E0,-3.204345703E-4,4.420280457E-3,-3.304290771E-2,3.333879584E-2
3.157339179E0,-2.579867840E-2,9.352207184E-3,-1.184587479E-1,1.215956847E-1
3.162277408E0,-5.670893192E-2,2.838325500E-2,-1.673908234E-1,1.790005583E-1
3.167259856E0,-2.170002460E-2,2.344274521E-2,-1.682996750E-1,1.713045066E-1
3.172242252E0,-8.797943592E-3,6.124448776E-2,-1.548776627E-1,1.667794396E-1
3.177224648E0,-1.281648874E-2,8.927536011E-2,-7.743835449E-2,1.188740975E-1
3.182207096E0,2.109283209E-2,1.006245613E-1,-3.636074066E-2,1.090518838E-1
3.187189492E0,-2.611905336E-2,1.286959648E-1,-1.472187042E-2,1.321423088E-1
3.192130690E0,-6.828165054E-2,1.425862312E-1,2.083873749E-2,1.594599326E-1
3.197113085E0,-9.842365980E-2,1.782321930E-1,8.199405670E-2,2.194924982E-1
3.202095533E0,-8.064842224E-2,1.975274086E-1,1.779575348E-1,2.778311166E-1
3.207077929E0,-8.396613598E-2,2.718672752E-1,2.989158630E-1,4.126897388E-1
3.212060377E0,-7.019233704E-2,2.797327042E-1,3.685941696E-1,4.680160380E-1
3.217042773E0,-6.578493118E-2,2.857265472E-1,3.946142197E-1,4.916174319E-1
3.221975742E0,-5.675250292E-2,3.208084106E-1,4.486007690E-1,5.544199969E-1
3.226958190E0,-3.588169813E-2,2.967648506E-1,5.422306061E-1,6.191695269E-1
3.231940585E0,-2.210623026E-2,2.828106880E-1,6.657457352E-1,7.236628736E-1
3.236922981E0,-1.790320873E-2,2.810950279E-1,7.833518982E-1,8.324512815E-1
3.241905429E0,3.393930197E-2,3.055729866E-1,9.189481735E-1,9.690162393E-1
3.246887825E0,7.624590397E-2,3.081355095E-1,1.065434456E0,1.111715571E0
3.251828346E0,7.104015350E-2,3.338294029E-1,1.196732521E0,1.244450682E0
3.256810742E0,-5.479037762E-3,3.252568245E-1,1.189579010E0,1.233255952E0
3.261793190E0,-6.268072128E-2,3.230385780E-1,1.197207451E0,1.241607215E0
3.266775585E0,-1.318939328E-1,3.652935028E-1,1.131537437E0,1.196332865E0
3.271758033E0,-1.848201156E-1,3.946475983E-1,1.009830475E0,1.099846712E0
3.276740429E0,-1.979574561E-1,4.448823929E-1,8.371009827E-1,9.684242630E-1
3.281676992E0,-1.501296163E-1,4.926080704E-1,7.607650757E-1,9.186757388E-1
3.286659388E0,-7.924240828E-2,5.240397453E-1,7.892398834E-1,9.506821801E-1
3.291641835E0,1.290345192E-2,5.821242332E-1,9.239320755E-1,1.092101461E0
3.296624231E0,1.096490622E-1,5.929188728E-1,9.858188629E-1,1.155601375E0
3.301606679E0,2.346451283E-1,5.994639397E-1,1.039712906E0,1.222872961E0
3.306589075E0,2.097226381E-1,5.634841919E-1,1.273483276E0,1.408281816E0
3.311528190E0,1.671639681E-1,5.276551247E-1,1.567043304E0,1.661923115E0
3.316510638E0,7.646507025E-2,4.866991043E-1,1.844127655E0,1.908803220E0
3.321493033E0,-7.669436932E-2,4.138498306E-1,1.969857216E0,2.014321513E0
3.326475429E0,-1.546741724E-1,3.634433746E-1,2.059864998E0,2.097393381E0
3.331457877E0,-1.297608614E-1,2.993326187E-1,2.128883362E0,2.153736814E0
3.336440325E0,-1.358880997E-1,2.926421165E-1,2.105953217E0,2.130526680E0
3.341377148E0,-1.444071531E-1,3.358674049E-1,1.944288254E0,1.978362240E0
3.346359544E0,-1.081082225E-1,3.409252167E-1,1.666342735E0,1.704293256E0
3.351341992E0,-5.591797829E-2,3.301415443E-1,1.275148392E0,1.318379187E0
3.356324388E0,-4.599511623E-3,3.563823700E-1,8.236751556E-1,8.974799781E-1
3.361306835E0,5.072349310E-2,3.464164734E-1,4.023237228E-1,5.333306889E-1
3.366289231E0,1.009733677E-1,3.773994446E-1,4.838275909E-2,3.936582949E-1
3.371227929E0,1.437659860E-1,4.234061241E-1,-3.126296997E-1,5.455994261E-1
3.376210325E0,1.551870108E-1,4.393701553E-1,-6.427326202E-1,7.938730143E-1
3.381192773E0,1.471556425E-1,4.212107658E-1,-7.998552322E-1,9.158830083E-1
3.386175169E0,1.578475237E-1,3.693442345E-1,-8.211469650E-1,9.141188886E-1
3.391157617E0,1.540192962E-1,3.384890556E-1,-7.931776047E-1,8.760293927E-1
3.396140013E0,9.789812565E-2,2.595014572E-1,-7.115812302E-1,7.637230496E-1
3.401078242E0,6.363141537E-2,1.944241524E-1,-5.482425690E-1,5.851663204E-1
3.406060638E0,-1.087778807E-2,1.165289879E-1,-3.677186966E-1,3.858942486E-1
3.411043085E0,-1.397997141E-2,5.882596970E-2,-2.150726318E-1,2.234103204E-1
3.416025481E0,-2.215945721E-2,7.300043106E-2,1.940917969E-2,7.871988780E-2
3.421007929E0,-2.117371559E-2,7.988643646E-2,2.021083832E-1,2.183528509E-1
3.425990325E0,-8.598566055E-3,8.180475235E-2,3.050012589E-1,3.158982759E-1
3.430929231E0,6.193697453E-3,7.876157761E-2,3.905162811E-1,3.984278025E-1
3.435911627E0,4.258018732E-2,8.729314804E-2,5.300998688E-1,5.389239621E-1
3.440894075E0,6.984615326E-2,5.034589767E-2,7.066125870E-1,7.118388460E-1
3.445876471E0,7.403039932E-2,4.896688461E-2,8.366336823E-1,8.413288145E-1
3.450858919E0,9.925484657E-3,3.787946701E-2,8.254718781E-1,8.264001396E-1
3.455841315E0,-4.828190804E-2,2.963542938E-3,7.597999573E-1,7.613382299E-1
3.460778033E0,-8.892863989E-2,6.570196152E-2,7.754192352E-1,7.832624344E-1
3.465760429E0,-1.049067974E-1,7.555055618E-2,7.766618729E-1,7.873480726E-1
3.470742877E0,-1.201897860E-1,8.521366119E-2,7.802753448E-1,7.940633265E-1
3.475725273E0,-8.054256439E-2,1.254973412E-1,7.102994919E-1,7.257837526E-1
3.480707721E0,-5.346381664E-2,1.723914146E-1,5.816459656E-1,6.090067395E-1
3.485690117E0,-7.980310917E-2,1.901435852E-1,4.875316620E-1,5.293488837E-1
3.490629440E0,-1.072155833E-1,2.314176559E-1,3.539762497E-1,4.362894660E-1
3.495611835E0,-9.777283669E-2,2.891874313E-1,2.239179611E-1,3.785870459E-1
3.500594283E0,-1.133334637E-1,3.351597786E-1,1.873950958E-1,4.003666733E-1
3.505576679E0,-9.602886438E-2,3.482403755E-1,3.171157837E-1,4.806821426E-1
3.510559127E0,-4.306226969E-2,3.642849922E-1,4.691276550E-1,5.955154669E-1
3.515541523E0,6.224107742E-2,4.139823914E-1,6.314258575E-1,7.575975090E-1
3.520450221E0,1.271092296E-1,4.515080452E-1,8.112421036E-1,9.370859201E-1
3.525432617E0,1.613962054E-1,4.007253647E-1,9.230251312E-1,1.019119692E0
3.530415065E0,1.532067060E-1,3.451766968E-1,1.003175735E0,1.071905221E0
3.535397460E0,5.998373032E-2,2.634501457E-1,9.617395401E-1,9.989729577E-1
3.540379908E0,-7.255494595E-2,2.246265411E-1,9.185295105E-1,9.483763835E-1
3.545362356E0,-1.610443592E-1,2.474827766E-1,8.663768768E-1,9.153097307E-1
3.550329335E0,-1.986100674E-1,2.410988808E-1,7.887907028E-1,8.483898880E-1
3.555311731E0,-1.768138409E-1,2.034230232E-1,6.527357101E-1,7.061925856E-1
3.560294179E0,-1.416764259E-1,1.753940582E-1,4.609556198E-1,5.131426398E-1
3.565276575E0,-1.196643710E-1,1.712541580E-1,2.661581039E-1,3.383602882E-1
3.570259023E0,-1.484847665E-1,1.318020821E-1,1.227846146E-1,2.334428759E-1
3.575241419E0,-9.662288427E-2,9.305381775E-2,9.683895111E-2,1.654472037E-1
3.580180794E0,-2.152794600E-2,1.026110649E-1,7.086658478E-2,1.265486307E-1
3.585161783E0,4.337030649E-2,7.228660583E-2,5.193519592E-2,9.901313773E-2
3.590142721E0,1.101711392E-1,8.542156219E-2,1.303186417E-1,1.908336228E-1
3.595123606E0,1.767041683E-1,1.081900597E-1,2.720346451E-1,3.419536522E-1
3.600104596E0,1.907469630E-1,1.093525887E-1,3.626756668E-1,4.241179457E-1
3.605085533E0,1.238104701E-1,1.148142815E-1,4.646806717E-1,4.944082103E-1
3.610020325E0,4.774630070E-2,1.101217270E-1,4.759035110E-1,4.908061285E-1
3.615001210E0,-6.115102768E-2,6.944561005E-2,4.207439423E-1,4.307987998E-1
3.619982148E0,-1.694142222E-1,9.307575226E-2,3.566570282E-1,4.056704452E-1
3.624963138E0,-1.721358895E-1,1.093940735E-1,3.310966492E-1,3.888737827E-1
3.629944023E0,-7.961797714E-2,1.735615730E-1,2.532196045E-1,3.171479308E-1
3.634924960E0,3.591525555E-2,2.068700790E-1,1.828193665E-1,2.784026867E-1
3.639880481E0,1.123295426E-1,1.836714745E-1,4.371166229E-2,2.196903414E-1
3.644861419E0,1.571828723E-1,1.923270226E-1,-3.287982941E-2,2.505538308E-1
3.649842304E0,2.018193007E-1,1.541385651E-1,4.279327393E-2,2.575286230E-1
3.654823242E0,1.659719348E-1,1.118907928E-1,2.363576889E-1,3.097276058E-1
3.659804231E0,9.100556374E-2,4.391336441E-2,4.329490662E-1,4.445844015E-1
3.664785169E0,5.505561829E-3,-1.921129227E-2,5.710725784E-1,5.714221511E-1
3.669730169E0,-5.746078491E-2,-5.395603180E-2,6.703424454E-1,6.749607316E-1
3.674711106E0,-1.079778075E-1,-3.964662552E-2,7.361183167E-1,7.450511646E-1
3.679692044E0,-1.179676652E-1,-2.653264999E-2,6.831626892E-1,6.937806652E-1
3.684672929E0,-1.213654876E-1,-9.612083435E-3,5.480022430E-1,5.613630128E-1
3.689653919E0,-1.234858632E-1,1.393938065E-2,3.168573380E-1,3.403551636E-1
3.694634856E0,-5.992412567E-2,5.160093307E-2,1.542015076E-1,1.732964572E-1
3.699580013E0,-2.393126488E-4,1.062088013E-1,-5.010604858E-2,1.174350154E-1
3.704560950E0,3.699898720E-2,1.683754921E-1,-2.032423019E-1,2.665082826E-1
3.709541835E0,7.609766722E-2,2.146172523E-1,-2.654619217E-1,3.497448382E-1
3.714522773E0,1.146691442E-1,2.427792549E-1,-2.470693588E-1,3.648753860E-1
3.719503763E0,1.197254062E-1,2.575731277E-1,-1.629114151E-1,3.274419310E-1
3.724484700E0,1.296734214E-1,2.566900253E-1,-7.766628265E-2,2.978875908E-1
3.729430429E0,9.695506096E-2,2.516365051E-1,9.207057953E-2,2.849529894E-1
3.734411367E0,2.909511328E-2,2.326946259E-1,2.412014008E-1,3.364096168E-1
3.739392304E0,2.408826351E-2,2.234406471E-1,4.389162064E-1,4.931058745E-1
3.744373242E0,3.237903118E-3,1.948971748E-1,6.327342987E-1,6.620786098E-1
3.749354179E0,-2.129918337E-2,1.849899292E-1,7.871694565E-1,8.088947288E-1
3.754335065E0,-3.538322449E-2,1.529846191E-1,8.765335083E-1,8.904870900E-1
3.759278658E0,-5.352365971E-2,1.224527359E-1,8.944520950E-1,9.043804537E-1
3.764259596E0,-3.585416079E-2,1.247296333E-1,8.223199844E-1,8.324981436E-1
3.769240481E0,-4.012894630E-2,1.165733337E-1,7.418041229E-1,7.519794088E-1
3.774221471E0,-5.932676792E-2,1.290798187E-1,5.792932510E-1,5.964578239E-1
3.779202408E0,-7.926869392E-2,1.316428185E-1,4.160194397E-1,4.434924257E-1
3.784183346E0,-6.390243769E-2,1.341924667E-1,3.064088821E-1,3.405547573E-1
3.789132200E0,-4.150527716E-2,1.417837143E-1,2.355537415E-1,2.780483317E-1
3.794113138E0,-7.134258747E-3,1.614680290E-1,2.173795700E-1,2.708813384E-1
3.799094075E0,6.077528000E-2,1.625475883E-1,2.726507187E-1,3.231930809E-1
3.804075013E0,1.168810129E-1,1.757230759E-1,3.534135818E-1,4.116320328E-1
3.809055898E0,1.728942990E-1,1.412954330E-1,3.978271484E-1,4.562053025E-1
3.814036888E0,9.794062376E-2,9.733247757E-2,4.158935547E-1,4.382161861E-1
3.818983085E0,-3.846758604E-2,4.141664505E-2,4.174423218E-1,4.212519266E-1
3.823964075E0,-8.385878801E-2,-2.656459808E-3,3.907709122E-1,3.996764428E-1
3.828945013E0,-9.368407726E-2,1.735401154E-2,2.909431458E-1,3.061466676E-1
3.833925950E0,-1.012015343E-1,5.848884583E-2,1.635007858E-1,2.009855781E-1
3.838906888E0,-7.549935579E-2,6.608104706E-2,5.135345459E-2,1.127121768E-1
3.843887825E0,-3.551614285E-2,1.170148849E-1,-6.259536743E-2,1.373756155E-1
3.848830533E0,-1.459157467E-2,1.468172073E-1,-1.807260513E-1,2.333026190E-1
3.853811419E0,-2.683442831E-2,1.295886040E-1,-2.317657471E-1,2.668869692E-1
3.858792408E0,-1.264327765E-2,1.345987320E-1,-2.020072937E-1,2.430712197E-1
3.863773346E0,-1.257127523E-2,1.494827271E-1,-1.109733582E-1,1.865963796E-1
3.868754231E0,9.032011032E-3,1.622400284E-1,9.973526001E-3,1.627970370E-1
3.873735221E0,-9.856939316E-3,1.416873932E-1,1.655111313E-1,2.180972518E-1
3.878677565E0,-7.184565067E-3,1.400465965E-1,3.175134659E-1,3.471015243E-1
3.883658450E0,-2.135479450E-2,1.186871529E-1,4.401445389E-1,4.563659525E-1
3.888639388E0,-2.629911900E-2,9.207916260E-2,4.623718262E-1,4.721842029E-1
3.893620377E0,-1.719164848E-2,8.870506287E-2,4.563207626E-1,4.651803729E-1
3.898601315E0,-2.268689871E-2,9.903717041E-2,4.173898697E-1,4.295781184E-1
3.903582200E0,-4.474705458E-2,8.986043930E-2,3.576231003E-1,3.714451229E-1
3.908508294E0,-5.204695463E-2,1.141324043E-1,2.697572708E-1,2.974963468E-1
3.913489283E0,-6.132692099E-2,1.099371910E-1,1.373310089E-1,1.862981031E-1
3.918470169E0,-6.789064407E-2,1.110897064E-1,4.369640350E-2,1.373296694E-1
3.923451106E0,-4.330080748E-2,1.296601295E-1,-2.346611023E-2,1.386988372E-1
3.928432044E0,-5.910640955E-2,1.255059242E-1,-1.405963898E-1,1.975162006E-1
3.933412981E0,-6.272953749E-2,1.273107529E-1,-1.552343369E-1,2.103347855E-1
3.938381888E0,-2.336835861E-2,1.202764511E-1,3.289222717E-3,1.225696694E-1
3.943362825E0,6.345647573E-2,1.350512505E-1,2.030334473E-1,2.519685402E-1
3.948343763E0,1.069298387E-1,1.257705688E-1,4.510822296E-1,4.803409250E-1
3.953324648E0,4.780465364E-2,7.066202164E-2,6.642198563E-1,6.696763574E-1
3.958305638E0,-2.044880390E-2,6.945800781E-2,8.025760651E-1,8.058355345E-1
3.963286575E0,-9.077793360E-2,4.550457001E-2,8.265008926E-1,8.327154524E-1
3.968234075E0,-1.205072403E-1,2.037525177E-2,7.678356171E-1,7.775015631E-1
3.973215065E0,-1.267040968E-1,5.847597122E-2,6.556482315E-1,6.703342232E-1
3.978196002E0,-1.520058513E-1,1.076622009E-1,5.114021301E-1,5.442692964E-1
3.983176888E0,-1.387689710E-1,1.112575531E-1,3.184671402E-1,3.647689540E-1
3.988157877E0,-6.363868713E-2,1.511230469E-1,1.386461258E-1,2.147342683E-1
3.993138815E0,-5.788397789E-2,1.774153709E-1,-2.209663391E-3,1.866323963E-1
3.998081783E0,-5.920970440E-2,1.617641449E-1,-1.400651932E-1,2.220173102E-1
4.003062721E0,-6.284642220E-2,1.259980202E-1,-2.393627167E-1,2.777043104E-1
4.008043606E0,-5.432868004E-2,1.389269829E-1,-1.458997726E-1,2.086601440E-1
4.013024544E0,-7.629448175E-2,1.121497154E-1,3.897762299E-2,1.411299462E-1
4.018005481E0,-4.552143812E-2,6.189823151E-2,3.030271530E-1,3.126164549E-1
4.022986471E0,-1.505327225E-2,4.007959366E-2,5.508852005E-1,5.525463591E-1
4.027933398E0,-4.482525587E-2,-1.828384399E-2,6.761522293E-1,6.778830576E-1
4.032914283E0,-7.765346766E-2,-3.745508194E-2,7.514476776E-1,7.563772580E-1
4.037895221E0,-9.961938858E-2,-4.150056839E-2,7.225723267E-1,7.305868100E-1
4.042876210E0,-8.923745155E-2,-2.564811707E-2,6.306886673E-1,6.374867400E-1
4.047857148E0,-8.634471893E-2,2.938032150E-2,5.187768936E-1,5.267334042E-1
4.052838085E0,-2.166348696E-2,4.539680481E-2,3.629455566E-1,3.664145926E-1
4.057781315E0,5.247169733E-2,1.064815521E-1,2.225914001E-1,2.522667861E-1
4.062762252E0,1.363019347E-1,1.818752289E-1,2.602863312E-2,2.287669251E-1
4.067743190E0,1.702024937E-1,2.315049171E-1,-1.837263107E-1,3.410553808E-1
4.072724127E0,1.022030711E-1,2.153534889E-1,-3.757524490E-1,4.449859502E-1
4.077705065E0,5.185186863E-2,2.268257141E-1,-4.434032440E-1,5.007444035E-1
4.082686002E0,4.057395458E-2,2.062697411E-1,-4.043455124E-1,4.557288067E-1
4.087630846E0,3.251665831E-2,1.533646584E-1,-2.567939758E-1,3.008674085E-1
4.092610585E0,-4.831826687E-2,1.276984215E-1,-8.476448059E-2,1.607064371E-1
4.097590377E0,-9.001100063E-2,2.170610428E-2,6.666660309E-2,1.140945711E-1
4.102570117E0,-9.805417061E-2,-4.562282562E-2,2.074518204E-1,2.339493970E-1
4.107549856E0,-1.159629226E-1,-8.933591843E-2,3.189659119E-1,3.509523595E-1
4.112529596E0,-1.155152321E-1,-1.050410271E-1,4.229488373E-1,4.508470973E-1
4.117483294E0,-1.206461191E-1,-7.407569885E-2,4.672603607E-1,4.882365614E-1
4.122463033E0,-1.314781904E-1,-1.035676003E-1,3.525524139E-1,3.902639709E-1
4.127442825E0,-1.714236140E-1,-6.420326233E-2,2.152538300E-1,2.825638435E-1
4.132422565E0,-1.810989380E-1,-4.638051987E-2,7.196903229E-2,2.003185453E-1
4.137402304E0,-1.507312655E-1,-2.126216888E-3,9.460449219E-4,1.507492296E-1
4.142382044E0,-6.394982338E-2,6.873130798E-2,-5.801868439E-2,1.103618609E-1
4.147332929E0,7.204174995E-2,1.231284142E-1,-3.850173950E-2,1.477599542E-1
4.152312669E0,1.431292295E-1,1.493201256E-1,7.544517517E-2,2.201691411E-1
4.157292460E0,1.716421247E-1,1.092829704E-1,2.142410278E-1,2.954708185E-1
4.162272200E0,7.951170206E-2,4.358053207E-2,3.398675919E-1,3.517546781E-1
4.167251940E0,5.394876003E-3,1.381635666E-2,4.360141754E-1,4.362663837E-1
4.172231679E0,-3.902482986E-2,-9.229183197E-3,5.577840805E-1,5.592237438E-1
4.177182356E0,-8.976662159E-2,-4.240942001E-2,6.005401611E-1,6.086912932E-1
4.182162096E0,-1.210594177E-1,-3.098058701E-2,5.887212753E-1,6.018371203E-1
4.187141888E0,-1.617015600E-1,3.348827362E-3,5.061426163E-1,5.313557727E-1
4.192121627E0,-1.189458966E-1,5.099010468E-2,3.652153015E-1,3.874665580E-1
4.197101367E0,-9.590762854E-2,7.411623001E-2,1.757984161E-1,2.135335381E-1
4.202081106E0,-4.282969236E-2,4.703092575E-2,1.421737671E-2,6.517993806E-2
4.207006835E0,-3.616178036E-2,1.806306839E-2,-1.959695816E-1,2.000950417E-1
4.211986575E0,-4.447543621E-2,1.626253128E-2,-3.192434311E-1,3.227365840E-1
4.216966367E0,3.968596458E-2,4.850244522E-2,-3.872346878E-1,3.922730763E-1
4.221946106E0,1.470370889E-1,7.202291489E-2,-2.936859131E-1,3.362419089E-1
4.226925846E0,1.635594964E-1,9.139060974E-2,-1.823596954E-1,2.614555621E-1
4.231905585E0,1.090090871E-1,8.750391006E-2,-3.908157349E-2,1.451457362E-1
4.236882877E0,1.718127728E-2,8.388376236E-2,1.194849014E-1,1.469976991E-1
4.241862617E0,-3.300219774E-2,8.737182617E-2,3.432273865E-1,3.557077732E-1
4.246842408E0,-2.072978020E-2,9.765625000E-2,4.702177048E-1,4.806986133E-1
4.251822148E0,-3.704750538E-2,9.288120270E-2,5.775232315E-1,5.861164717E-1
4.256801888E0,-8.411610126E-2,7.539319992E-2,5.489883423E-1,5.604889411E-1
4.261781627E0,-1.000405550E-1,5.490255356E-2,4.664707184E-1,4.802263364E-1
4.266736106E0,-7.800269127E-2,2.698802948E-2,3.967790604E-1,4.052732366E-1
4.271715846E0,-2.039581537E-2,3.702306747E-2,2.422914505E-1,2.459508971E-1
4.276695638E0,5.106228590E-2,5.888748169E-2,1.223230362E-1,1.450448818E-1
4.281675377E0,7.221609354E-2,7.847976685E-2,5.782699585E-2,1.213185865E-1
4.286655117E0,1.053481102E-1,1.006684303E-1,7.441043854E-2,1.636131735E-1
4.291634856E0,1.147964597E-1,8.258676529E-2,1.405544281E-1,1.993849247E-1
4.296580794E0,8.627653122E-2,6.485223770E-2,1.680250168E-1,1.997044287E-1
4.301560533E0,5.792498589E-2,1.638507843E-2,1.572647095E-1,1.683922909E-1
4.306540325E0,-2.267938852E-2,-1.053380966E-2,1.514873505E-1,1.535373999E-1
4.311520065E0,-4.095000029E-2,4.906654358E-4,1.292915344E-1,1.356224323E-1
4.316499804E0,-9.435594082E-3,-7.563591003E-3,8.116340637E-2,8.205934973E-2
4.321479544E0,-2.604770660E-2,9.956359863E-4,-5.676078796E-2,6.246007813E-2
4.326398138E0,-3.816235065E-2,9.741306305E-3,-1.556272507E-1,1.605337946E-1
4.331377877E0,-4.089939594E-2,-9.716033936E-3,-2.585983276E-1,2.619928567E-1
4.336357669E0,-5.345833302E-2,2.615451813E-2,-2.778158188E-1,2.841187804E-1
4.341337408E0,-5.442947149E-2,3.074645996E-3,-2.734699249E-1,2.788508932E-1
4.346317148E0,-5.801320076E-3,3.536176682E-2,-1.957759857E-1,1.990285066E-1
4.351296888E0,5.910527706E-2,6.280946732E-2,-2.855682373E-2,9.085128036E-2
4.356283398E0,1.024892330E-1,4.028463364E-2,1.514110565E-1,1.872223347E-1
4.361263138E0,1.057772040E-1,1.778841019E-2,2.990245819E-1,3.176805707E-1
4.366242929E0,4.782015085E-2,-2.892112732E-2,4.243192673E-1,4.279836901E-1
4.371222669E0,-2.798593044E-2,-6.168889999E-2,4.514799118E-1,4.565335075E-1
4.376202408E0,-3.362798691E-2,-2.824687958E-2,4.501543045E-1,4.522915272E-1
4.381182148E0,-2.492684126E-2,6.869792938E-3,3.659133911E-1,3.668257778E-1
4.386135533E0,-6.389570236E-2,3.429698944E-2,2.682723999E-1,2.779011062E-1
4.391115273E0,-6.229835749E-2,6.143951416E-2,1.643600464E-1,1.861991517E-1
4.396095065E0,-8.580505848E-3,7.421493530E-2,5.413913727E-2,9.226336156E-2
4.401074804E0,1.328366995E-2,5.887985229E-2,-5.062866211E-2,7.878168772E-2
4.406054544E0,4.622972012E-2,6.556892395E-2,-9.535312653E-2,1.246141627E-1
4.411034283E0,6.190788746E-2,4.183721542E-2,-1.043100357E-1,1.283102594E-1
4.415972617E0,1.128562093E-1,6.117153168E-2,-3.721141815E-2,1.336531702E-1
4.420952356E0,1.230226159E-1,4.503488541E-2,5.528736115E-2,1.421949269E-1
4.425932148E0,6.904047728E-2,1.724958420E-2,1.469573975E-1,1.632807776E-1
4.430911888E0,2.750897408E-2,2.760982513E-2,2.497816086E-1,2.528040705E-1
4.435891627E0,-6.154179573E-3,3.764390945E-2,2.995777130E-1,3.019962648E-1
4.440871367E0,-1.331359148E-2,1.871585846E-2,2.826318741E-1,2.835635931E-1
4.445834023E0,-2.766978741E-2,6.745815277E-3,2.968912125E-1,2.982541118E-1
4.450813763E0,-5.844104290E-2,1.587438583E-2,2.779655457E-1,2.844858453E-1
4.455793554E0,-9.133607149E-2,4.830074310E-2,2.237634659E-1,2.464656739E-1
4.460773294E0,-8.585351706E-2,3.048896790E-2,1.106605530E-1,1.433393231E-1
4.465753033E0,-6.834673882E-2,1.780223846E-2,2.211952209E-2,7.400992946E-2
4.470732773E0,-4.393762350E-2,2.948760986E-2,-9.445190430E-2,1.082644730E-1
4.475682773E0,8.552134037E-3,3.696489334E-2,-1.866111755E-1,1.904291815E-1
4.480662513E0,8.161807060E-2,6.860733032E-2,-1.736936569E-1,2.038086399E-1
4.485642304E0,1.632354856E-1,1.384162903E-1,-5.180072784E-2,2.202003828E-1
4.490622044E0,1.848200560E-1,1.389622688E-1,9.272003174E-2,2.491304267E-1
4.495601783E0,1.259644032E-1,7.295370102E-2,2.787694931E-1,3.144864125E-1
4.500581523E0,2.537107468E-2,2.364397049E-2,4.064598083E-1,4.079366428E-1
4.505536054E0,-3.387588263E-2,-1.175546646E-2,4.645786285E-1,4.659603723E-1
4.510515794E0,-7.842630148E-2,-1.363754272E-4,4.632425308E-1,4.698343812E-1
4.515495585E0,-1.179871559E-1,4.625177383E-2,4.005661011E-1,4.201349746E-1
4.520475325E0,-1.642258167E-1,4.178857803E-2,3.078222275E-1,3.513843022E-1
4.525455065E0,-1.600260139E-1,4.417037964E-2,1.732435226E-1,2.399430468E-1
4.530434804E0,-1.628472805E-1,2.518749237E-2,-3.626060486E-2,1.687260442E-1
4.535383971E0,-1.634033918E-1,-1.835823059E-4,-2.229309082E-1,2.764034949E-1
4.540363710E0,-1.377761960E-1,-2.210950851E-2,-2.730932236E-1,3.066773864E-1
4.545343502E0,-5.985140800E-2,-9.441375732E-5,-2.426137924E-1,2.498872790E-1
4.550323242E0,2.713042498E-2,8.670711517E-2,-2.057142258E-1,2.248833619E-1
4.555302981E0,4.453253746E-2,6.407022476E-2,-1.480388641E-1,1.673428991E-1
4.560282721E0,5.392158031E-2,8.537769318E-3,-9.799671173E-2,1.121774747E-1
4.565234960E0,2.401214838E-2,-2.548265457E-2,-6.709671021E-2,7.568300651E-2
4.570214700E0,-2.090018988E-2,-8.115625381E-2,7.557678223E-2,1.128494815E-1
4.575194492E0,-6.843912601E-2,-8.717393875E-2,2.103519440E-1,2.377628018E-1
4.580174231E0,-4.214036465E-2,-5.083084106E-2,2.587385178E-1,2.670303453E-1
4.585153971E0,-8.708894253E-3,-2.222204208E-2,2.403469086E-1,2.415290882E-1
4.590133710E0,7.008039951E-2,2.494382858E-2,2.197980881E-1,2.320445141E-1
4.595084388E0,1.249682307E-1,9.799098969E-2,1.327857971E-1,2.070057020E-1
4.600063190E0,1.679424047E-1,1.399722099E-1,1.104354858E-3,2.186277440E-1
4.605041992E0,2.014411092E-1,1.084704399E-1,-8.226871490E-2,2.431306197E-1
4.610020794E0,2.302185297E-1,9.927463531E-2,-1.415672302E-1,2.879189214E-1
4.614999596E0,2.019282579E-1,7.903671265E-2,-1.461458206E-1,2.614965089E-1
4.619978398E0,1.287881732E-1,3.318548203E-2,-1.081132889E-1,1.713947286E-1
4.624934492E0,3.052020073E-2,2.845621109E-2,1.965236664E-2,4.612433324E-2
4.629913294E0,7.479608059E-3,4.805564880E-3,2.270307541E-1,2.272047563E-1
4.634892096E0,-3.141564131E-2,-4.773092270E-2,4.400558472E-1,4.437503038E-1
4.639870898E0,-9.583210945E-2,-1.076426506E-1,5.399904251E-1,5.588921118E-1
4.644849700E0,-1.858540773E-1,-1.394443512E-1,5.350360870E-1,5.833095915E-1
4.649828502E0,-1.638129354E-1,-1.672234535E-1,5.496749878E-1,5.974453560E-1
4.654749752E0,-1.802375913E-1,-1.409258842E-1,5.242462158E-1,5.719963190E-1
4.659728554E0,-1.467041373E-1,-8.466005325E-2,4.328804016E-1,4.648385425E-1
4.664707356E0,-6.118208170E-2,-4.101896286E-2,3.400449753E-1,3.479315847E-1
4.669686158E0,-2.684593201E-4,7.064819336E-3,2.218351364E-1,2.219477675E-1
4.674665013E0,2.418774366E-2,4.065513611E-2,1.093082428E-1,1.191057470E-1
4.679643815E0,-6.714403629E-3,6.017398834E-2,9.401321411E-3,6.127297066E-2
4.684633398E0,-1.417165995E-2,3.707981110E-2,-6.840419769E-2,7.908781574E-2
4.689612200E0,-2.243751287E-2,3.831481934E-2,-1.409330368E-1,1.477619309E-1
4.694591002E0,-1.954978704E-2,6.851148605E-2,-1.726455688E-1,1.867686010E-1
4.699569804E0,-4.106384516E-2,5.845975876E-2,-1.757345200E-1,1.897008284E-1
4.704548606E0,-2.706128359E-2,6.080198288E-2,-1.789951324E-1,1.909671480E-1
4.709527408E0,-1.049894094E-2,8.733034134E-2,-8.034133911E-2,1.191282798E-1
4.714484544E0,3.509378433E-2,1.044216156E-1,5.529212952E-2,1.232585376E-1
4.719463346E0,-4.068017006E-3,7.405614853E-2,1.610851288E-1,1.773394502E-1
4.724442148E0,-3.452718258E-2,4.157686234E-2,2.349977493E-1,2.411321298E-1
4.729420950E0,-9.456884861E-2,-9.808540344E-3,2.750339508E-1,2.910036919E-1
4.734399752E0,-7.489544153E-2,-4.213953018E-2,3.053598404E-1,3.172218455E-1
4.739378606E0,-7.632005215E-2,-8.655309677E-2,3.190126419E-1,3.392421769E-1
4.744335377E0,-6.822377443E-2,-8.107948303E-2,2.923603058E-1,3.109709221E-1
4.749314179E0,-4.181200266E-2,-8.800029755E-2,1.925888062E-1,2.158303597E-1
4.754292981E0,-7.353985310E-2,-1.024751663E-1,8.210182190E-2,1.504990992E-1
4.759271783E0,-7.520103455E-2,-1.100492477E-1,-2.481365204E-2,1.355793120E-1
4.764250585E0,-5.884736776E-2,-6.782436371E-2,-6.178283691E-2,1.089966786E-1
4.769229388E0,-3.137832880E-2,-6.138753891E-2,-6.760787964E-2,9.656010999E-2
4.774185221E0,3.840696812E-2,-4.575729370E-3,-7.127285004E-2,8.109162504E-2
4.779164023E0,1.053857803E-1,4.272270203E-2,-5.853176117E-2,1.278958914E-1
4.784142825E0,1.458843350E-1,4.718351364E-2,-1.519680023E-2,1.540761692E-1
4.789121627E0,1.076307297E-1,5.664587021E-2,6.249427795E-3,1.217874539E-1
4.794100429E0,4.376947880E-2,2.592754364E-2,6.536102295E-2,8.282552816E-2
4.799079283E0,-3.123277426E-2,2.574443817E-3,1.453504562E-1,1.486905144E-1
4.804035950E0,-7.672590017E-2,-2.325773239E-2,1.487789154E-1,1.690057737E-1
4.809014752E0,-8.338677883E-2,-8.571624756E-3,1.854391098E-1,2.035055063E-1
4.813993554E0,-5.140972137E-2,-2.260112762E-2,2.075347900E-1,2.149987430E-1
4.818972356E0,-2.857297659E-2,-1.135349274E-3,1.843872070E-1,1.865913881E-1
4.823951158E0,-2.731019258E-2,1.279163361E-2,9.504032135E-2,9.971025620E-2
4.828929960E0,-3.361409903E-2,2.609252930E-3,2.797889709E-2,4.381249293E-2
4.833886054E0,-2.393877506E-2,-3.144073486E-2,-2.173137665E-2,4.509808745E-2
4.838864856E0,-5.621373653E-3,-3.902482986E-2,-6.623363495E-2,7.708068232E-2
4.843843658E0,7.364928722E-3,-5.821847916E-2,-7.005023956E-2,9.138199797E-2
4.848822460E0,8.393526077E-3,-5.801010132E-2,9.183883667E-3,5.932930856E-2
4.853801263E0,3.551834822E-2,-4.779529572E-2,3.998661041E-2,7.172776565E-2
4.858780117E0,3.653901815E-2,-2.312040329E-2,7.035827637E-2,8.258292771E-2
4.863736523E0,-2.413231134E-2,-8.009910583E-3,1.075229645E-1,1.104885289E-1
4.868715325E0,-3.896468878E-2,-1.213598251E-2,2.109298706E-1,2.148416611E-1
4.873694127E0,-5.590057373E-2,1.208686829E-2,2.898063660E-1,2.953958298E-1
4.878672929E0,-6.549650431E-2,3.385543823E-4,2.968244553E-1,3.039649058E-1
4.883651731E0,-4.635739326E-2,9.824752808E-3,2.991456985E-1,3.028756884E-1
4.888630585E0,-2.273112535E-2,4.695415497E-3,2.825994492E-1,2.835510530E-1
4.893588450E0,-3.802537918E-3,-5.812644958E-4,2.591409683E-1,2.591695172E-1
4.898567252E0,-1.134753227E-3,2.501964569E-2,2.809906006E-1,2.821045692E-1
4.903546054E0,4.697382450E-2,4.782629013E-2,2.718553543E-1,2.799986212E-1
4.908524856E0,3.526896238E-2,3.873348236E-3,1.868085861E-1,1.901482327E-1
4.913503658E0,-1.699817181E-2,-7.287549973E-2,1.095714569E-1,1.326863990E-1
4.918482460E0,-4.542624950E-2,-8.717012405E-2,2.585697174E-2,1.016403348E-1
4.923400117E0,-5.968916416E-2,-8.464574814E-2,-1.440906525E-2,1.045720812E-1
4.928378919E0,-4.290390015E-2,-4.637527466E-2,4.975318909E-3,6.337321631E-2
4.933357721E0,-9.398698807E-3,-2.972459793E-2,3.601455688E-2,4.763334514E-2
4.938336523E0,-9.148895741E-3,-2.283859253E-2,6.683349609E-2,7.121811428E-2
4.943315377E0,-3.257822990E-2,-2.567625046E-2,6.659221649E-2,7.845466333E-2
4.948294179E0,-6.786888838E-2,-5.718374252E-2,2.133178711E-2,9.127547075E-2
4.953251263E0,-1.363754869E-1,-9.326696396E-2,-9.230613708E-3,1.654756907E-1
4.958230065E0,-1.259956360E-1,-9.119224548E-2,-8.571624756E-3,1.557703395E-1
4.963208867E0,-5.414330959E-2,-9.876966476E-2,-5.455017090E-3,1.127683549E-1
4.968187669E0,-2.577590942E-2,-1.110801697E-1,-4.705429077E-3,1.141286233E-1
4.973166523E0,3.086352348E-2,-4.697895050E-2,-3.262138367E-2,6.499025730E-2
4.978145325E0,5.387586355E-2,-1.622533798E-2,-6.529426575E-2,8.619287329E-2
4.983099231E0,5.066812038E-2,-1.388216019E-2,-1.097640991E-1,1.216886611E-1
4.988078033E0,4.073846340E-2,-2.072238922E-2,-8.280658722E-2,9.458314174E-2
4.993056835E0,4.552078247E-2,-7.693529129E-2,-2.308654785E-2,9.232642836E-2
4.998035638E0,3.856045008E-2,-1.203451157E-1,-2.825641632E-2,1.294923945E-1
5.003014492E0,-1.651644707E-3,-1.300268173E-1,9.325027466E-3,1.303712288E-1
5.007993294E0,-2.030330896E-2,-1.516880989E-1,7.995891571E-2,1.726700087E-1
5.012988398E0,-8.396506310E-3,-1.425814629E-1,1.454486847E-1,2.038511583E-1
5.017967200E0,-9.043514729E-3,-7.714796066E-2,1.632499695E-1,1.807875702E-1
5.022946002E0,-1.506400108E-2,-7.695674896E-2,2.097530365E-1,2.239321363E-1
5.027924804E0,-4.762160778E-2,-5.117225647E-2,2.348079681E-1,2.449922433E-1
5.032903606E0,-5.853199959E-2,-3.553962708E-2,2.052412033E-1,2.163631475E-1
5.037882460E0,-4.632651806E-3,-4.404878616E-2,1.736278534E-1,1.791881372E-1
5.042838190E0,3.524315357E-2,-6.929540634E-2,2.040739059E-1,2.183806134E-1
5.047816992E0,8.064562082E-2,-7.317829132E-2,1.962776184E-1,2.244630971E-1
5.052795794E0,5.518627167E-2,-7.967042923E-2,1.719856262E-1,1.974131645E-1
5.057774596E0,6.286144257E-3,-1.219511032E-1,7.673072815E-2,1.442192492E-1
5.062753398E0,-3.992974758E-2,-1.331572533E-1,-3.901863098E-2,1.443873000E-1
5.067732252E0,-9.273642302E-2,-1.228394508E-1,-1.229600906E-1,1.969993876E-1
5.072652096E0,-9.288698435E-2,-1.216678619E-1,-2.468109131E-1,2.904250115E-1
5.077630898E0,-1.453595161E-1,-1.342682838E-1,-3.081140518E-1,3.661852399E-1
5.082609700E0,-1.786724925E-1,-1.344113350E-1,-3.905076981E-1,4.499850317E-1
5.087588502E0,-1.860556602E-1,-1.840333939E-1,-4.462528229E-1,5.173263773E-1
5.092567356E0,-1.820825338E-1,-1.780791283E-1,-4.566192627E-1,5.228454610E-1
5.097546158E0,-1.596623659E-1,-1.979169846E-1,-4.076671600E-1,4.804744710E-1
5.102537148E0,-6.899213791E-2,-1.745777130E-1,-3.687162399E-1,4.137498744E-1
5.107515169E0,-7.727622986E-3,-1.987624168E-1,-2.826614380E-1,3.456352167E-1
5.112493242E0,2.449810505E-2,-1.873259544E-1,-1.544504166E-1,2.440206990E-1
5.117471315E0,3.505754471E-2,-2.190260887E-1,-1.245574951E-1,2.543934523E-1
5.122449335E0,5.243521929E-2,-2.557368279E-1,-1.540098190E-1,3.031003162E-1
5.127427408E0,5.957067013E-2,-2.521848679E-1,-1.948194504E-1,3.241920581E-1
5.132387356E0,8.033823967E-2,-2.370529175E-1,-2.493524551E-1,3.533057675E-1
5.137365377E0,7.206743956E-2,-1.936950684E-1,-2.463054657E-1,3.215243036E-1
5.142343450E0,9.482663870E-2,-1.480860710E-1,-2.909231186E-1,3.399379896E-1
5.147321523E0,1.296994090E-1,-1.335849762E-1,-3.162813187E-1,3.670160148E-1
5.152299544E0,1.224736571E-1,-1.379084587E-1,-2.917833328E-1,3.451898796E-1
5.157277617E0,9.970653057E-2,-1.608042717E-1,-2.725391388E-1,3.317785228E-1
5.162237408E0,7.085102797E-2,-1.691060066E-1,-2.060995102E-1,2.758508977E-1
5.167215429E0,3.578722477E-2,-1.987233162E-1,-1.521492004E-1,2.528261479E-1
5.172193502E0,-8.114933968E-3,-1.974477768E-1,-9.380817413E-2,2.187497434E-1
5.177171575E0,-5.145555735E-2,-2.251710892E-1,-6.422710419E-2,2.397390554E-1
5.182149596E0,-1.204721332E-1,-2.578878403E-1,-6.316089630E-2,2.915629809E-1
5.187127669E0,-1.580899358E-1,-2.932209969E-1,-1.117172241E-1,3.513569680E-1
5.192088971E0,-1.791067123E-1,-3.359775543E-1,-2.688035965E-1,4.660638421E-1
5.197066992E0,-1.530889869E-1,-3.287220001E-1,-3.816423416E-1,5.264458834E-1
5.202045065E0,-1.140859723E-1,-3.167157173E-1,-5.386133194E-1,6.351604227E-1
5.207023138E0,-7.188051939E-2,-2.760972977E-1,-6.895227432E-1,7.462158805E-1
5.212001158E0,-4.042148590E-2,-2.542400360E-1,-7.847604752E-1,8.259061059E-1
5.216979231E0,2.881598473E-2,-2.317876816E-1,-7.133235931E-1,7.505907266E-1
5.221934752E0,7.893478870E-2,-2.254199982E-1,-5.740137100E-1,6.217206895E-1
5.226912773E0,6.506878138E-2,-2.256674767E-1,-5.074758530E-1,5.591882489E-1
5.231890846E0,3.514438868E-2,-2.753787041E-1,-3.776140213E-1,4.686799631E-1
5.236868919E0,8.448362350E-3,-2.651648521E-1,-2.513275146E-1,3.654439673E-1
5.241846940E0,1.132845879E-2,-2.765755653E-1,-1.165866852E-1,3.003578407E-1
5.246825013E0,-2.067929506E-2,-2.693290710E-1,5.315780640E-3,2.701740907E-1
5.251787565E0,-3.317248821E-2,-2.673406601E-1,-8.992195129E-3,2.695409099E-1
5.256765585E0,-4.558479786E-2,-2.872824669E-1,-6.090831757E-2,2.971851489E-1
5.261743658E0,-6.742399931E-2,-3.149166107E-1,-1.096324921E-1,3.402025143E-1
5.266721731E0,-8.931028843E-2,-3.332929611E-1,-2.503280640E-1,4.262917606E-1
5.271699752E0,-6.865656376E-2,-3.326926231E-1,-4.158515930E-1,5.369642936E-1
5.276677825E0,-4.607200623E-2,-3.488283157E-1,-5.656652451E-1,6.661688923E-1
5.281637356E0,-3.329879045E-2,-3.430662155E-1,-7.666797638E-1,8.405956804E-1
5.286615377E0,-8.974850178E-3,-3.724994659E-1,-8.522272110E-1,9.301223679E-1
5.291593450E0,4.147756100E-2,-3.559651375E-1,-8.352375031E-1,9.088747184E-1
5.296571523E0,5.399781466E-2,-3.389830589E-1,-8.187398911E-1,8.877839193E-1
5.301549544E0,2.404916286E-2,-3.573789597E-1,-7.503585815E-1,8.314662254E-1
5.306527617E0,-4.360771179E-2,-3.782539368E-1,-6.467866898E-1,7.505402689E-1
5.311487565E0,-7.062035799E-2,-3.804335594E-1,-5.604257584E-1,6.810241983E-1
5.316465585E0,-9.072428942E-2,-3.949594498E-1,-5.315046310E-1,6.683719297E-1
5.321443658E0,-6.601727009E-2,-3.911585808E-1,-5.071144104E-1,6.438387535E-1
5.326421731E0,-6.363594532E-2,-3.880777359E-1,-5.965261459E-1,7.144909415E-1
5.331399752E0,-5.941486359E-2,-3.521132469E-1,-7.182226181E-1,8.020957510E-1
5.336377825E0,-2.469307184E-2,-2.998080254E-1,-8.056201935E-1,8.599526127E-1
5.341336575E0,1.437371969E-2,-2.783122063E-1,-9.044218063E-1,9.463842199E-1
5.346314596E0,1.272881031E-2,-2.608289719E-1,-1.012381554E0,1.045519099E0
5.351292669E0,5.888617039E-2,-2.446107864E-1,-1.006099701E0,1.037081784E0
5.356270742E0,1.244055033E-1,-2.582497597E-1,-8.722658157E-1,9.181597469E-1
5.361248763E0,1.426836848E-1,-2.684412003E-1,-6.783590317E-1,7.433641690E-1
5.366226835E0,1.970656514E-1,-3.041315079E-1,-5.172939301E-1,6.316041918E-1
5.371188710E0,1.820068955E-1,-3.419265747E-1,-4.121847153E-1,5.656293239E-1
5.376166731E0,7.665807009E-2,-3.609342575E-1,-2.150135040E-1,4.270606571E-1
5.381144804E0,-1.104027033E-2,-3.830323219E-1,-5.704689026E-2,3.874145001E-1
5.386122877E0,-1.357811093E-1,-4.131145477E-1,-2.577781677E-2,4.356198286E-1
5.391100898E0,-1.836492419E-1,-4.085383415E-1,-5.825233459E-2,4.516901095E-1
5.396078971E0,-1.412022114E-1,-3.885507584E-1,-9.455871582E-2,4.240885604E-1
5.401000690E0,-5.900251865E-2,-3.863735199E-1,-1.775169373E-1,4.292762014E-1
5.405978763E0,-1.554477215E-2,-3.681044579E-1,-4.091672897E-1,5.506000389E-1
5.410956783E0,1.077288389E-2,-3.477969170E-1,-6.411495209E-1,7.294871202E-1
5.415934856E0,4.860216379E-2,-3.534436226E-1,-8.784914017E-1,9.481728257E-1
5.420912877E0,8.596974611E-2,-3.511800766E-1,-9.788208008E-1,1.043459824E0
5.425890950E0,8.046883345E-2,-3.314533234E-1,-1.019391060E0,1.074939380E0
5.430889492E0,6.576108932E-2,-3.586421013E-1,-9.578943253E-1,1.024944006E0
5.435867513E0,5.864471197E-2,-3.586478233E-1,-8.712453842E-1,9.439999910E-1
5.440845585E0,7.106006145E-2,-3.297796249E-1,-8.116846085E-1,8.789971769E-1
5.445823658E0,4.291790724E-2,-3.367004395E-1,-7.479066849E-1,8.213242612E-1
5.450801679E0,-1.734256744E-3,-3.816428185E-1,-6.109695435E-1,7.203735361E-1
5.455779752E0,-3.418815136E-2,-3.931875229E-1,-5.795707703E-1,7.011900852E-1
5.460703606E0,-9.496033192E-2,-3.811588287E-1,-5.506553650E-1,6.764028743E-1
5.465681679E0,-1.457929611E-1,-3.743634224E-1,-6.001663208E-1,7.222209995E-1
5.470659700E0,-1.466603279E-1,-3.818593025E-1,-7.133827209E-1,8.223385466E-1
5.475637773E0,-1.101185679E-1,-3.106532097E-1,-8.613634109E-1,9.222680963E-1
5.480615794E0,-9.121012688E-2,-2.490143776E-1,-9.750680923E-1,1.010487621E0
5.485593867E0,-4.926007986E-2,-2.154240608E-1,-1.026523590E0,1.050040362E0
5.490588815E0,3.047537804E-2,-1.858758926E-1,-9.545536041E-1,9.729600091E-1
5.495566835E0,8.617067337E-2,-1.888642311E-1,-8.647212982E-1,8.892907322E-1
5.500544908E0,9.663522243E-2,-2.148346901E-1,-7.333068848E-1,7.702150982E-1
5.505522981E0,1.217045784E-1,-2.331929207E-1,-5.128965378E-1,5.764146087E-1
5.510501002E0,8.744466305E-2,-2.395825386E-1,-2.444267273E-1,3.532573947E-1
5.515479075E0,1.095294952E-2,-2.417068481E-1,-2.069187164E-2,2.428380553E-1
5.520409283E0,-5.058115721E-2,-2.709717751E-1,1.637048721E-1,3.205985675E-1
5.525387356E0,-1.331341267E-1,-2.371001244E-1,2.617149353E-1,3.774067726E-1
5.530365377E0,-1.865276098E-1,-2.261042595E-1,2.740268707E-1,4.012560420E-1
5.535343450E0,-1.611662507E-1,-1.972656250E-1,2.345418930E-1,3.462631756E-1
5.540321523E0,-1.574556828E-1,-1.740980148E-1,8.647251129E-2,2.501597610E-1
5.545299544E0,-1.468492150E-1,-1.892986298E-1,-8.401203156E-2,2.538832106E-1
5.550253710E0,-5.832821131E-2,-1.852335930E-1,-2.721138000E-1,3.343046281E-1
5.555231783E0,-8.627474308E-3,-1.783599854E-1,-4.018735886E-1,4.397602743E-1
5.560209804E0,5.018681288E-2,-1.446933746E-1,-4.762945175E-1,5.003112594E-1
5.565187877E0,1.132646203E-1,-1.437544823E-1,-5.837764740E-1,6.117917922E-1
5.570165898E0,1.261305213E-1,-1.135239601E-1,-5.625181198E-1,5.875570041E-1
5.575143971E0,1.295363307E-1,-1.044626236E-1,-4.704275131E-1,4.989931320E-1
5.580137929E0,1.070740223E-1,-1.521096230E-1,-3.935842514E-1,4.353283205E-1
5.585115950E0,9.675455093E-2,-1.569151878E-1,-2.720861435E-1,3.286558820E-1
5.590094023E0,4.153710604E-2,-1.765375137E-1,-1.346702576E-1,2.258913527E-1
5.595072096E0,8.209943771E-3,-1.825695038E-1,-6.448554993E-2,1.937973504E-1
5.600050117E0,-5.077821016E-2,-1.754512787E-1,-1.330280304E-2,1.831353117E-1
5.605028190E0,-3.774309158E-2,-1.576714516E-1,-4.035568237E-2,1.670730640E-1
5.609990742E0,-1.030093431E-2,-1.811380386E-1,-1.167192459E-1,2.157324284E-1
5.614968190E0,-2.790856361E-2,-1.786184311E-1,-2.279272079E-1,2.909196521E-1
5.619945638E0,-4.990828037E-2,-1.500706673E-1,-3.548126221E-1,3.884636899E-1
5.624923085E0,-4.072427750E-2,-1.476454735E-1,-5.829267502E-1,6.027115800E-1
5.629900533E0,-3.917819262E-2,-1.467413902E-1,-7.644224167E-1,7.793648680E-1
5.634877981E0,-6.663364172E-2,-1.423091888E-1,-9.568500519E-1,9.696669373E-1
5.639811575E0,-6.108677387E-2,-1.792259216E-1,-1.081878662E0,1.098323707E0
5.644789023E0,-1.280438900E-2,-1.740045547E-1,-9.500732422E-1,9.659610256E-1
5.649766471E0,5.450445414E-2,-1.722707748E-1,-7.155714035E-1,7.380314281E-1
5.654743919E0,6.687855721E-2,-2.339801788E-1,-4.929237366E-1,5.497210889E-1
5.659721367E0,2.914750576E-2,-2.808885574E-1,-3.220243454E-1,4.283078774E-1
5.664698815E0,-1.822644472E-2,-2.876858711E-1,-1.307754517E-1,3.165400172E-1
5.669666835E0,-1.053774357E-1,-2.074856758E-1,1.615114212E-1,2.832678040E-1
5.674644283E0,-1.660497189E-1,-2.266931534E-1,2.454319000E-1,3.730939727E-1
5.679621731E0,-1.413934231E-1,-2.330503464E-1,2.226390839E-1,3.519555735E-1
5.684599179E0,-1.008393168E-1,-2.192645073E-1,1.746301651E-1,2.978945897E-1
5.689576627E0,-6.344878674E-2,-1.470298767E-1,3.485012054E-2,1.638843009E-1
5.694554075E0,-5.493879318E-2,-1.018447876E-1,-1.202201843E-1,1.668637902E-1
5.699515013E0,1.536780596E-2,-5.218505859E-2,-2.978124619E-1,3.027403380E-1
5.704492460E0,9.248310328E-2,-9.390830994E-3,-4.790563583E-1,4.879921173E-1
5.709469908E0,1.528211236E-1,5.443572998E-3,-6.331777573E-1,6.513816090E-1
5.714447356E0,2.248769403E-1,-2.387523651E-3,-6.987905502E-1,7.340868965E-1
5.719424804E0,2.444857955E-1,-2.334165573E-2,-6.741876602E-1,7.175284930E-1
5.724402252E0,1.549955010E-1,-6.000661850E-2,-6.050767899E-1,6.274889013E-1
5.729365325E0,7.347112894E-2,-1.078209877E-1,-4.393777847E-1,4.583407138E-1
5.734342773E0,5.614757538E-5,-1.742625237E-1,-2.061862946E-1,2.699633649E-1
5.739320221E0,-5.888104439E-3,-2.263808250E-1,-1.984786987E-2,2.273255060E-1
5.744297669E0,-3.295856714E-2,-2.597436905E-1,9.163761139E-2,2.773995381E-1
5.749275117E0,-9.773033857E-2,-2.580075264E-1,1.456031799E-1,3.119605564E-1
5.754252565E0,-1.621235013E-1,-2.739477158E-1,1.759233475E-1,3.637037322E-1
5.759213606E0,-2.165873647E-1,-2.811613083E-1,1.162109375E-1,3.734524733E-1
5.764191054E0,-2.280398011E-1,-2.556314468E-1,-4.446983337E-3,3.425921236E-1
5.769168502E0,-1.968857646E-1,-2.280950546E-1,-1.216182709E-1,3.249343965E-1
5.774145950E0,-1.307166815E-1,-1.696624756E-1,-2.877950668E-1,3.587453232E-1
5.779123398E0,-7.540959120E-2,-1.183199883E-1,-4.646663666E-1,4.853875341E-1
5.784100846E0,-3.321003914E-2,-1.190004349E-1,-5.381994247E-1,5.521979998E-1
5.789083242E0,2.425950766E-2,-8.561038971E-2,-6.660909653E-1,6.720080629E-1
5.794060690E0,5.463999510E-2,-7.991266251E-2,-6.722993851E-1,6.792334104E-1
5.799038138E0,9.648787975E-2,-8.530855179E-2,-5.268459320E-1,5.423597478E-1
5.804015585E0,9.789395332E-2,-8.298254013E-2,-3.496637344E-1,3.724702072E-1
5.808993033E0,7.850831747E-2,-1.373319626E-1,-2.240867615E-1,2.742963735E-1
5.813970481E0,4.585570097E-2,-1.104001999E-1,-4.977703094E-2,1.294940240E-1
5.818941054E0,9.738445282E-3,-1.150379181E-1,2.135019302E-1,2.427171896E-1
5.823918502E0,-3.689652681E-2,-1.254062653E-1,3.206186295E-1,3.462432535E-1
5.828895950E0,-1.059328914E-1,-1.771879196E-1,3.418235779E-1,3.993252994E-1
5.833873398E0,-1.715070605E-1,-2.225623131E-1,2.897720337E-1,4.036291448E-1
5.838850846E0,-2.124128342E-1,-2.400522232E-1,1.911382675E-1,3.731998383E-1
5.843828294E0,-1.790567636E-1,-2.224578857E-1,4.615783691E-2,2.892738866E-1
5.848789127E0,-6.541556120E-2,-1.673512459E-1,-1.354160309E-1,2.249958590E-1
5.853766575E0,-2.471262217E-2,-1.459288597E-1,-3.581857681E-1,3.875603053E-1
5.858744023E0,-1.617449522E-2,-1.217560768E-1,-5.911836624E-1,6.038081477E-1
5.863721471E0,-3.753960133E-3,-8.750104904E-2,-7.061777115E-1,7.115880030E-1
5.868698919E0,4.109114408E-2,-8.571195602E-2,-7.114439011E-1,7.177655926E-1
5.873676367E0,7.787454128E-2,-9.711933136E-2,-6.506690979E-1,6.624702889E-1
5.878639492E0,4.022258520E-2,-7.671403885E-2,-5.432901382E-1,5.501518649E-1
5.883616940E0,4.695713520E-3,-8.433961868E-2,-4.442224503E-1,4.521822711E-1
5.888594388E0,6.431001425E-2,-8.457422256E-2,-3.009357452E-1,3.191408777E-1
5.893571835E0,1.496205330E-1,-9.240198135E-2,-1.467218399E-1,2.290234232E-1
5.898549283E0,1.277825236E-1,-1.386370659E-1,-5.535125732E-2,1.965003081E-1
5.903526731E0,2.131479979E-2,-1.515598297E-1,-5.015182495E-2,1.610587105E-1
5.908417825E0,-1.212720871E-1,-1.811161041E-1,-2.602291107E-2,2.195157265E-1
5.913395273E0,-1.738165617E-1,-1.509594917E-1,-1.647758484E-2,2.308083102E-1
5.918372721E0,-1.137403250E-1,-1.114735603E-1,-1.044988632E-1,1.904815702E-1
5.923350221E0,-5.405402184E-2,-8.165597916E-2,-1.918821335E-1,2.154258326E-1
5.928327617E0,-1.874303818E-2,-1.065692902E-1,-2.786083221E-1,2.988827734E-1
5.933305117E0,6.613469124E-2,-1.263318062E-1,-2.459344864E-1,2.842838269E-1
5.938339752E0,1.409862638E-1,-1.483874321E-1,-1.279859543E-1,2.414049732E-1
5.943317200E0,1.558997631E-1,-1.920709610E-1,-7.493782043E-2,2.584795294E-1
5.948294648E0,1.158657074E-1,-2.311663628E-1,-8.617496490E-2,2.725598540E-1
5.953272096E0,1.843935251E-2,-2.421674728E-1,-1.158676147E-1,2.690918036E-1
5.958249544E0,-5.762743950E-2,-2.250676155E-1,-1.782321930E-1,2.928191728E-1
5.963226992E0,-1.100397110E-1,-1.869993210E-1,-2.422428131E-1,3.252061877E-1
5.968192304E0,-1.411561966E-1,-1.729822159E-1,-3.508195877E-1,4.158392742E-1
5.973169752E0,-1.460790038E-1,-1.229176521E-1,-4.801359177E-1,5.166994523E-1
5.978147200E0,-5.604922771E-2,-6.312847137E-2,-5.136814117E-1,5.205721012E-1
5.983124648E0,3.535485268E-2,-6.938648224E-2,-5.806941986E-1,5.858926538E-1
5.988102096E0,6.676232815E-2,-8.409404755E-2,-6.191854477E-1,6.284263170E-1
5.993079544E0,7.677549124E-2,-1.264214516E-1,-5.009984970E-1,5.223756823E-1
5.998043658E0,1.060966849E-1,-1.440634727E-1,-3.176212311E-1,3.645463443E-1
6.003021106E0,1.096121669E-1,-1.304140091E-1,-1.145830154E-1,2.053092992E-1
6.007998554E0,5.182844400E-2,-1.432013512E-1,1.105766296E-1,1.882020340E-1
6.012976002E0,4.470109940E-3,-1.517758369E-1,2.510175705E-1,2.933695745E-1
6.017953450E0,-4.490500689E-2,-1.303443909E-1,3.907938004E-1,4.143982556E-1
6.022930898E0,-7.494163513E-2,-1.387047768E-1,4.397258759E-1,4.671339312E-1
6.027856627E0,-1.310577393E-1,-1.908473969E-1,3.510646820E-1,4.205297503E-1
6.032834075E0,-1.345211267E-1,-1.909804344E-1,2.445077896E-1,3.381619716E-1
6.037811523E0,-6.415581703E-2,-1.510367393E-1,4.871559143E-2,1.711761500E-1
6.042789023E0,-8.607983589E-3,-1.280498505E-1,-1.763305664E-1,2.180901883E-1
6.047766471E0,5.821335316E-2,-1.070656776E-1,-3.855333328E-1,4.043362518E-1
6.052743919E0,9.346789122E-2,-1.020798683E-1,-5.387687683E-1,5.562628263E-1
6.057741627E0,9.732174873E-2,-8.667945862E-2,-6.341972351E-1,6.474495998E-1
6.062719075E0,8.193510771E-2,-1.037011147E-1,-6.461772919E-1,6.595546798E-1
6.067696523E0,6.191176176E-2,-9.387063980E-2,-5.324592590E-1,5.442036621E-1
6.072673971E0,5.871152878E-2,-1.169710159E-1,-3.391389847E-1,3.635168677E-1
6.077651419E0,-4.063248634E-3,-1.517047882E-1,-1.474361420E-1,2.115851335E-1
6.082628867E0,-8.539646864E-2,-1.342892647E-1,1.287460327E-4,1.591420122E-1
6.087591783E0,-1.136067510E-1,-1.769566536E-1,2.558612823E-2,2.118367321E-1
6.092569231E0,-1.035158038E-1,-1.748886108E-1,8.210659027E-2,2.191872259E-1
6.097546679E0,-9.589213133E-2,-1.807365417E-1,1.528158188E-1,2.553696788E-1
6.102524127E0,-5.040013790E-2,-1.798572540E-1,1.044015884E-1,2.139824698E-1
6.107501575E0,-5.361318588E-3,-1.484184265E-1,4.943752289E-2,1.565274472E-1
6.112479023E0,-1.555269957E-2,-1.198310852E-1,-7.382583618E-2,1.416037765E-1
6.117443085E0,-3.052645922E-2,-1.147613525E-1,-1.915521622E-1,2.253758274E-1
6.122420065E0,-2.169382572E-2,-9.021043777E-2,-3.418207169E-1,3.541891410E-1
6.127397044E0,-1.558893919E-2,-3.424072266E-2,-4.650716782E-1,4.665909428E-1
6.132374023E0,5.677837133E-2,-2.315235138E-2,-5.282669067E-1,5.318136324E-1
6.137350950E0,1.234715581E-1,-3.285980225E-2,-4.724855423E-1,4.894564127E-1
6.142327929E0,1.728058457E-1,-4.918813705E-2,-3.722410202E-1,4.133336549E-1
6.147290585E0,2.170184255E-1,-3.920269012E-2,-1.469545364E-1,2.650084596E-1
6.152267565E0,1.851528287E-1,-3.202772141E-2,1.051177979E-1,2.153069816E-1
6.157244544E0,7.551670074E-2,-3.993749619E-2,2.533159256E-1,2.673326277E-1
6.162221523E0,-5.411279202E-2,-6.522464752E-2,3.127670288E-1,3.240457733E-1
6.167198450E0,-1.012873650E-1,-8.405637741E-2,3.341217041E-1,3.591126815E-1
6.172175377E0,-1.332134008E-1,-8.687257767E-2,2.891302109E-1,3.299832325E-1
6.177140898E0,-1.690980792E-1,-1.637325287E-1,1.330394745E-1,2.703738211E-1
6.182117877E0,-1.402921677E-1,-1.782546043E-1,-5.262088776E-2,2.328638102E-1
6.187094856E0,-7.126265764E-2,-1.352152824E-1,-3.058576584E-1,3.419216960E-1
6.192071783E0,-7.909703255E-2,-1.414818764E-1,-5.241928101E-1,5.486816600E-1
6.197048763E0,-9.413623810E-2,-1.204323769E-1,-6.700248718E-1,6.872400727E-1
6.202025742E0,-4.775977135E-2,-9.380674362E-2,-6.915960312E-1,6.995611276E-1
6.206967356E0,-4.726231098E-3,-1.067914963E-1,-6.564435959E-1,6.650901860E-1
6.211944335E0,8.719980717E-3,-1.238985062E-1,-5.386457443E-1,5.527803504E-1
6.216921315E0,-3.318852186E-2,-1.452488899E-1,-3.934564590E-1,4.207216457E-1
6.221898294E0,-2.990800142E-2,-1.619815826E-1,-1.542634964E-1,2.256762016E-1
6.226875221E0,-3.396177292E-2,-1.388721466E-1,5.718040466E-2,1.539755623E-1
6.231852148E0,-4.542952776E-2,-1.358737946E-1,2.056083679E-1,2.505999421E-1
6.236841992E0,-5.932456255E-2,-9.805965424E-2,2.772121429E-1,2.999694513E-1
6.241818971E0,-9.428894520E-2,-1.160516739E-1,2.821331024E-1,3.193078196E-1
6.246795950E0,-1.022656560E-1,-1.129059792E-1,2.729110718E-1,3.125483605E-1
6.251772877E0,-2.479195595E-3,-1.005740166E-1,2.923498154E-1,3.091758299E-1
6.256749856E0,6.173837185E-2,-1.076569557E-1,2.641916275E-1,2.918884422E-1
6.261726783E0,1.141092777E-1,-7.669019699E-2,1.720848083E-1,2.202623319E-1
6.266692356E0,1.020938158E-1,-5.312395096E-2,2.609920502E-2,1.180104652E-1
6.271669335E0,6.889647245E-2,-2.515363693E-2,-5.921173096E-2,9.426270976E-2
6.276646315E0,1.685339212E-2,-1.608848572E-2,-1.582288742E-1,1.599351520E-1
6.281623242E0,-4.922729731E-2,-2.094650269E-2,-2.637367249E-1,2.691080504E-1
6.286600221E0,-6.490391493E-2,-3.969669342E-2,-2.972650528E-1,3.068466347E-1
6.291577148E0,-5.423384905E-2,-5.317735672E-2,-3.307104111E-1,3.393206708E-1
6.296541940E0,-6.045591831E-2,-5.183362961E-2,-3.332185745E-1,3.426021915E-1
6.301518919E0,-4.089933634E-2,-8.586788177E-2,-2.859220505E-1,3.013261817E-1
6.306495898E0,-2.442222834E-2,-1.171364784E-1,-2.200183868E-1,2.504505747E-1
6.311472825E0,-3.233182430E-2,-1.529288292E-1,-8.095932007E-2,1.760312051E-1
6.316449804E0,-7.131350040E-2,-1.601080894E-1,4.043674469E-2,1.798759183E-1
6.321426783E0,-1.030287147E-1,-1.815834045E-1,4.924106598E-2,2.145043856E-1
6.326384544E0,-8.940774202E-2,-2.173728943E-1,7.473373413E-2,2.466370826E-1
6.331361523E0,-2.785044909E-2,-2.173066139E-1,1.118803024E-1,2.459979960E-1
6.336338502E0,-3.247898817E-2,-1.031684875E-1,1.034784317E-1,1.496876993E-1
6.341315429E0,-7.230907679E-2,-5.395793915E-2,7.602119446E-2,1.179800144E-1
6.346292408E0,-2.859026194E-2,-5.980777740E-2,3.929138184E-2,7.705962628E-2
6.351269388E0,4.056948423E-2,-9.417104721E-2,-4.933357239E-2,1.137887101E-1
6.356242565E0,3.231638670E-2,-1.187891960E-1,-8.485984802E-2,1.495206198E-1
6.361219544E0,4.248052835E-2,-1.172580719E-1,-3.916358948E-2,1.307204554E-1
6.366196523E0,7.622367144E-2,-1.040577888E-1,1.338958740E-2,1.296817356E-1
6.371173450E0,9.820663929E-2,-1.480774879E-1,4.888916016E-2,1.842868319E-1
6.376150429E0,4.918408394E-2,-1.396522522E-1,4.376220703E-2,1.543922162E-1
6.381127408E0,3.401470184E-2,-1.102919579E-1,4.835700989E-2,1.251387882E-1
6.386091679E0,-1.868802309E-2,-1.267638206E-1,4.598903656E-2,1.361370630E-1
6.391068658E0,-6.068021059E-2,-1.171908379E-1,5.556106567E-2,1.431880318E-1
6.396045638E0,-9.209752083E-2,-1.411757469E-1,4.134368896E-2,1.735564619E-1
6.401022617E0,-9.919959307E-2,-1.578035355E-1,-4.406356812E-2,1.915309717E-1
6.405999544E0,-7.065820694E-2,-1.315240860E-1,-1.406364441E-1,2.051091827E-1
6.410976471E0,-7.096350193E-3,-8.394384384E-2,-2.293157578E-1,2.443003149E-1
6.415984544E0,-1.657485962E-3,-7.687187195E-2,-3.886089325E-1,3.961425682E-1
6.420961575E0,-2.081674337E-2,-6.939506531E-2,-5.063562393E-1,5.115131015E-1
6.425938502E0,-2.400100231E-2,-4.942369461E-2,-5.830144882E-1,5.855976803E-1
6.430915481E0,-1.616448164E-2,-3.815793991E-2,-6.119413376E-1,6.133429053E-1
6.435892460E0,2.451956272E-2,-7.210731506E-3,-5.245943069E-1,5.252165177E-1
6.440869440E0,6.740891933E-2,-9.006977081E-3,-3.457441330E-1,3.523692574E-1
6.445792044E0,7.966113091E-2,-2.462577820E-2,-1.211462021E-1,1.470670834E-1
6.450769023E0,4.035270214E-2,-3.016805649E-2,8.939838409E-2,1.026183379E-1
6.455745950E0,1.383352280E-2,-6.673669815E-2,3.124866486E-1,3.198328607E-1
6.460722981E0,7.335126400E-3,-1.228528023E-1,5.412092209E-1,5.550261578E-1
6.465699908E0,-3.484606743E-3,-1.724567413E-1,6.141395569E-1,6.379034923E-1
6.470676888E0,-6.666117907E-2,-1.727976799E-1,4.993495941E-1,5.325906196E-1
6.475643658E0,-1.482750177E-1,-1.216416359E-1,4.785556793E-1,5.155557261E-1
6.480620638E0,-1.055907011E-1,-7.651805878E-2,4.274854660E-1,4.469320229E-1
6.485597617E0,-7.539916039E-2,-7.051515579E-2,1.681976318E-1,1.973521318E-1
6.490574544E0,-8.671182394E-2,-9.091424942E-2,-2.193889618E-1,2.528158573E-1
6.495551523E0,-8.000570536E-2,-7.311630249E-2,-3.946056366E-1,4.092193972E-1
6.500528502E0,-3.113126755E-2,-6.227779388E-2,-5.043334961E-1,5.091168380E-1
6.505492408E0,-9.275496006E-3,-6.263113022E-2,-6.705150604E-1,6.734976908E-1
6.510469388E0,-4.294133186E-2,-3.337383270E-2,-8.168115616E-1,8.186201181E-1
6.515446367E0,-3.882634640E-2,-5.766105652E-2,-7.772378922E-1,7.803403255E-1
6.520423294E0,5.738973618E-3,-3.300189972E-2,-6.483697891E-1,6.492345067E-1
6.525400273E0,6.216573715E-2,-2.878665924E-2,-4.475555420E-1,4.527683887E-1
6.530377252E0,9.958928823E-2,-4.782962799E-2,-2.059736252E-1,2.337323981E-1
6.535344960E0,1.089943051E-1,-9.288120270E-2,9.055328369E-2,1.694301436E-1
6.540321940E0,7.644170523E-2,-1.616668701E-1,3.110685349E-1,3.588079494E-1
6.545298919E0,-5.137324333E-4,-1.831793785E-1,4.208488464E-1,4.589866013E-1
6.550275846E0,-6.921619177E-2,-1.791887283E-1,4.920759201E-1,5.282406580E-1
6.555252825E0,-9.200537205E-2,-1.905732155E-1,5.418682098E-1,5.817252752E-1
6.560229804E0,-6.975567341E-2,-1.697754860E-1,5.016040802E-1,5.341312787E-1
6.565190898E0,-1.940017939E-2,-1.594524384E-1,4.264736176E-1,4.557205213E-1
6.570167877E0,-9.759604931E-3,-1.496500969E-1,3.569326401E-1,3.871579922E-1
6.575144856E0,3.091460466E-2,-1.187658310E-1,3.474483490E-1,3.684852651E-1
6.580121835E0,7.865864038E-2,-8.819532394E-2,3.142900467E-1,3.357734807E-1
6.585098763E0,1.166019440E-1,-6.752014160E-2,2.078275681E-1,2.476838325E-1
6.590075690E0,1.375088096E-1,-3.278207779E-2,1.093959808E-1,1.787479173E-1
6.595042721E0,1.225411892E-1,-2.454042435E-2,5.934143066E-2,1.383473197E-1
6.600019700E0,9.859675169E-2,-4.023265839E-2,1.094942093E-1,1.527382340E-1
6.604996679E0,2.778440714E-2,-5.354547501E-2,1.687545776E-1,1.792127190E-1
6.609973658E0,-2.087414265E-2,-8.130168915E-2,1.397619247E-1,1.630309483E-1
6.614950585E0,-6.666028500E-2,-1.329846382E-1,4.944705963E-2,1.567594313E-1
6.619927565E0,-1.050129533E-1,-1.012964249E-1,-2.575111389E-2,1.481614184E-1
6.624893658E0,-1.051609516E-1,-7.720422745E-2,-1.287107468E-1,1.832642213E-1
6.629870221E0,-9.131175280E-2,-7.943582535E-2,-2.236633301E-1,2.543092050E-1
6.634846783E0,-6.584161520E-2,-5.276727676E-2,-2.918701172E-1,3.038217719E-1
6.639823346E0,-5.285924673E-2,-4.472064972E-2,-4.381752014E-1,4.436119291E-1
6.644799960E0,-2.391523123E-2,-5.016994476E-2,-5.575008392E-1,5.602643549E-1
6.649776471E0,-5.296885967E-3,-5.213642120E-2,-5.979290009E-1,6.002210872E-1
6.654717304E0,8.048653603E-3,-9.098243713E-2,-6.053028107E-1,6.121552722E-1
6.659693867E0,6.767332554E-3,-9.773206711E-2,-5.061483383E-1,5.155419421E-1
6.664670429E0,1.013225317E-2,-9.189987183E-2,-3.630065918E-1,3.745958284E-1
6.669646992E0,6.575047970E-3,-1.262578964E-1,-1.665658951E-1,2.091135698E-1
6.674623606E0,3.684383631E-2,-1.532630920E-1,6.147480011E-2,1.691927738E-1
6.679600169E0,-1.679301262E-3,-1.759958267E-1,2.475605011E-1,3.037491610E-1
6.684567252E0,-2.767699957E-2,-1.710147858E-1,3.256692886E-1,3.688801415E-1
6.689543815E0,-2.707034349E-2,-1.575465202E-1,4.226074219E-1,4.518304356E-1
6.694520377E0,-1.405179501E-2,-1.309790611E-1,4.788351059E-1,4.966246329E-1
6.699496940E0,-3.639930487E-2,-1.005921364E-1,4.303998947E-1,4.434949342E-1
6.704473554E0,-2.266836166E-2,-7.350158691E-2,2.900390625E-1,3.000649858E-1
6.709450117E0,-2.086937428E-3,-5.172872543E-2,1.344108582E-1,1.440364368E-1
6.714420638E0,2.512329817E-2,-4.659414291E-2,-6.036186218E-2,8.028542004E-2
6.719397200E0,-1.496565342E-2,-3.093242645E-3,-2.679166794E-1,2.683521679E-1
6.724373763E0,-4.824829102E-2,-2.315950394E-2,-4.551544189E-1,4.582900886E-1
6.729350325E0,-7.908737659E-2,-1.595067978E-2,-5.391654968E-1,5.451684788E-1
6.734326940E0,-3.134846687E-2,-3.370571136E-2,-5.162000656E-1,5.182483083E-1
6.739303502E0,9.167611599E-3,-6.932449341E-2,-3.870668411E-1,3.933327726E-1
6.744269023E0,6.151199341E-5,-7.076263428E-2,-1.691160202E-1,1.833237095E-1
6.749245585E0,2.056407928E-2,-9.327316284E-2,8.952999115E-2,1.309136493E-1
6.754222148E0,-5.732297897E-3,-1.468153000E-1,3.413629532E-1,3.716399566E-1
6.759198710E0,-1.312351823E-1,-1.769556999E-1,4.703235626E-1,5.193652341E-1
6.764175325E0,-1.798616648E-1,-1.818175316E-1,4.823913574E-1,5.459938232E-1
6.769151888E0,-1.813669205E-1,-1.357626915E-1,4.476318359E-1,5.016968495E-1
6.774118242E0,-1.481861472E-1,-7.727909088E-2,3.783531189E-1,4.136209312E-1
6.779094804E0,-1.088312864E-1,-5.581426620E-2,2.697896957E-1,2.962194476E-1
6.784071367E0,-6.081503630E-2,3.131437302E-2,1.197624207E-1,1.379206148E-1
6.789047929E0,3.340959549E-3,4.622030258E-2,-9.881973267E-3,4.738282154E-2
6.794024544E0,6.447559595E-2,3.524589539E-2,-1.837615967E-1,1.979083122E-1
6.799001106E0,1.226137280E-1,2.498006821E-2,-3.778753281E-1,3.980551390E-1
6.803967825E0,1.492104530E-1,4.180049896E-2,-5.019083023E-1,5.252837185E-1
6.808944388E0,1.589181423E-1,3.098392487E-2,-5.660333633E-1,5.887348707E-1
6.813920950E0,1.519237161E-1,3.092908859E-2,-5.827140808E-1,6.029868357E-1
6.818897513E0,1.263359785E-1,1.763391495E-2,-4.667806625E-1,4.838966019E-1
6.823874127E0,5.182123184E-2,-2.568674088E-2,-3.095064163E-1,3.148642096E-1
6.828850638E0,-2.836459875E-2,-4.919719696E-2,-1.395959854E-1,1.507048566E-1
6.833844283E0,-6.228399277E-2,-7.491970062E-2,7.492065430E-3,9.771585511E-2
6.838820846E0,-5.757588148E-2,-1.058754921E-1,1.346778870E-1,1.807283464E-1
6.843797408E0,-1.098588705E-1,-1.302666664E-1,2.042074203E-1,2.659681303E-1
6.848773971E0,-1.761536598E-1,-1.815509796E-1,2.166576385E-1,3.330636612E-1
6.853750585E0,-1.614381075E-1,-1.882433891E-1,2.200298309E-1,3.315282229E-1
6.858727148E0,-9.726583958E-2,-1.505084038E-1,1.715307236E-1,2.480649356E-1
6.863695325E0,-4.345959425E-2,-1.586303711E-1,1.677703857E-2,1.653293682E-1
6.868671888E0,2.048790455E-3,-1.285820007E-1,-1.770515442E-1,2.188259074E-1
6.873648450E0,1.804322004E-2,-9.148359299E-2,-2.790269852E-1,2.941952821E-1
6.878625013E0,4.976791143E-2,-5.407047272E-2,-3.423919678E-1,3.501895496E-1
6.883601627E0,8.759045601E-2,-1.364517212E-2,-3.818893433E-1,3.920430451E-1
6.888578138E0,1.248493195E-1,-8.350849152E-3,-3.311948776E-1,3.540439750E-1
6.893543710E0,1.143456697E-1,1.655578613E-2,-1.601095200E-1,1.974438772E-1
6.898520273E0,1.022300124E-1,8.426666260E-3,8.766078949E-2,1.349310867E-1
6.903496835E0,5.772650242E-2,-1.403188705E-2,3.286161423E-1,3.339428273E-1
6.908473398E0,9.612977505E-3,-6.524181366E-2,4.228067398E-1,4.279187339E-1
6.913450013E0,-4.227131605E-2,-8.577299118E-2,4.309616089E-1,4.414428372E-1
6.918426523E0,-8.862632513E-2,-8.332633972E-2,4.418773651E-1,4.583159502E-1
6.923395169E0,-1.200202107E-1,-5.078268051E-2,3.414144516E-1,3.654415950E-1
6.928371731E0,-1.130315661E-1,-8.074235916E-2,2.063846588E-1,2.487771913E-1
6.933348294E0,-1.059883833E-1,-7.488155365E-2,-1.539134979E-2,1.306815906E-1
6.938324856E0,-5.864411592E-2,-1.396322250E-2,-2.426853180E-1,2.500605276E-1
6.943301471E0,2.822268009E-2,2.814435959E-2,-4.232635498E-1,4.251360456E-1
6.948278033E0,8.984434605E-2,6.102132797E-2,-5.146923065E-1,5.260264056E-1
6.953245429E0,9.566980600E-2,2.310609818E-2,-5.391674042E-1,5.480767221E-1
6.958221992E0,1.319602132E-1,9.787559509E-3,-4.092645645E-1,4.301241425E-1
6.963198554E0,1.489719152E-1,-1.504945755E-2,-1.689243317E-1,2.257311399E-1
6.968175117E0,1.022396684E-1,-7.784080505E-2,4.568672180E-2,1.363796806E-1
6.973151731E0,3.935754299E-3,-9.309673309E-2,1.613407135E-1,1.863151033E-1
6.978128242E0,-6.737387180E-2,-8.054018021E-2,2.194356918E-1,2.432652505E-1
6.983057096E0,-9.770750999E-2,-5.706930161E-2,2.371015549E-1,2.627181189E-1
6.988033710E0,-1.229692698E-1,-2.959775925E-2,1.765079498E-1,2.171463217E-1
6.993010273E0,-1.386619210E-1,-2.516746521E-3,6.187629700E-2,1.518622352E-1
6.997986835E0,-8.540499210E-2,-6.296157837E-3,-1.398134232E-1,1.639556268E-1
7.002963450E0,-1.610291004E-2,1.925373077E-2,-2.570724487E-1,2.582948969E-1
7.007939960E0,4.538172483E-2,5.253458023E-2,-3.215007782E-1,3.289105250E-1
7.012945273E0,6.580942869E-2,4.353618622E-2,-4.285268784E-1,4.357310706E-1
7.017921835E0,5.500608683E-2,-7.247924805E-3,-4.377088547E-1,4.412111099E-1
7.022898398E0,7.999897003E-2,-3.084850311E-2,-3.212404251E-1,3.324859036E-1
7.027874960E0,1.221352816E-1,-2.552700043E-2,-5.388736725E-2,1.359135869E-1
7.032851523E0,1.671797633E-1,-5.122470856E-2,2.515869141E-1,3.063805140E-1
7.037828138E0,8.647537231E-2,-1.273922920E-1,4.669818878E-1,4.917101480E-1
7.042793815E0,-5.993908644E-2,-1.471352577E-1,5.267858505E-1,5.502225100E-1
7.047770377E0,-1.866210103E-1,-1.492352486E-1,5.109024048E-1,5.640211238E-1
7.052746940E0,-2.104997039E-1,-1.432223320E-1,4.317674637E-1,5.012443560E-1
7.057723502E0,-2.131984830E-1,-1.026778221E-1,3.372383118E-1,4.119781635E-1
7.062700117E0,-1.591441631E-1,-6.310796738E-2,1.559572220E-1,2.315861293E-1
7.067676679E0,-4.859858751E-2,-9.516239166E-3,-7.374191284E-2,8.882708610E-2
7.072644804E0,4.200154543E-2,4.430484772E-2,-2.947435379E-1,3.009996719E-1
7.077621367E0,6.263291836E-2,1.089096069E-3,-4.572744370E-1,4.615452083E-1
7.082597929E0,4.716217518E-2,1.190090179E-2,-6.333971024E-1,6.352619865E-1
7.087574492E0,3.632295132E-2,5.252504349E-2,-7.065992355E-1,7.094791869E-1
7.092551106E0,2.986478806E-2,4.415369034E-2,-6.990118027E-1,7.010413356E-1
7.097527669E0,6.357055902E-2,5.361604691E-2,-5.898981094E-1,5.957312112E-1
7.102492513E0,1.183840036E-1,4.726409912E-2,-3.443727493E-1,3.672073772E-1
7.107469075E0,1.397829652E-1,1.757621765E-2,-9.398078918E-2,1.693534455E-1
7.112445638E0,9.497642517E-2,-1.433658600E-2,1.377019882E-1,1.678925150E-1
7.117422200E0,1.770079136E-2,-5.611753464E-2,3.297338486E-1,3.349431394E-1
7.122398815E0,-6.319844723E-2,-9.374332428E-2,4.683427811E-1,4.817954080E-1
7.127375377E0,-1.312951446E-1,-1.296634674E-1,4.898767471E-1,5.234789940E-1
7.132335377E0,-1.629179716E-1,-1.163406372E-1,4.926834106E-1,5.318029263E-1
7.137311679E0,-1.489350200E-1,-1.063489914E-1,4.531192780E-1,4.886807017E-1
7.142287877E0,-8.022373915E-2,-9.246015549E-2,3.548717499E-1,3.753913791E-1
7.147264127E0,4.380404949E-3,-4.342317581E-2,1.911315918E-1,1.960511299E-1
7.152240377E0,7.339668274E-2,-5.194282532E-2,1.225471497E-2,9.074859877E-2
7.157216627E0,8.918130398E-2,-5.546712875E-2,-1.152963638E-1,1.559588371E-1
7.162195898E0,6.894719601E-2,-3.480958939E-2,-2.158336639E-1,2.292369818E-1
7.167172148E0,8.195543289E-2,-1.839256287E-2,-3.111124039E-1,3.222513106E-1
7.172148398E0,7.797217369E-2,1.986026764E-2,-3.512392044E-1,3.603374374E-1
7.177124648E0,5.716300011E-2,3.006076813E-2,-3.652744293E-1,3.709402473E-1
7.182100898E0,3.406232595E-2,9.920120239E-3,-2.916088104E-1,2.937589984E-1
7.187077148E0,2.061098814E-2,-2.702713013E-3,-1.545267105E-1,1.559186382E-1
7.192044179E0,1.933771372E-2,-3.651094437E-2,5.103111267E-3,4.162977270E-2
7.197020429E0,-2.193903923E-2,-4.865455627E-2,1.111049652E-1,1.232594848E-1
7.201996679E0,-4.829412699E-2,-7.279729843E-2,1.830501556E-1,2.028278305E-1
7.206972929E0,-4.813736677E-2,-5.205583572E-2,1.880979538E-1,2.010170548E-1
7.211949179E0,-4.325455427E-2,1.062583923E-2,1.863088608E-1,1.915590158E-1
7.216925429E0,1.715064049E-3,2.700185776E-2,1.231250763E-1,1.260627867E-1
7.221892565E0,1.983171701E-2,-2.269744873E-3,-1.532363892E-2,2.516471043E-2
7.226868815E0,1.352930069E-2,3.027105331E-2,-1.477184296E-1,1.513939004E-1
7.231845065E0,4.014283419E-2,2.708053589E-2,-2.553052902E-1,2.598568717E-1
7.236821315E0,3.544819355E-2,3.008842468E-3,-3.598413467E-1,3.615956615E-1
7.241797565E0,2.835172415E-2,3.714275360E-2,-4.497537613E-1,4.521745793E-1
7.246773815E0,3.335928917E-2,1.972198486E-2,-4.824256897E-1,4.839796948E-1
7.251744648E0,2.698659897E-2,5.958080292E-3,-4.038066864E-1,4.047513005E-1
7.256720898E0,-4.487335682E-3,-2.801752090E-2,-2.599582672E-1,2.615022339E-1
7.261697148E0,-1.318234205E-2,-4.185485840E-2,5.678176880E-3,4.424754237E-2
7.266673398E0,-2.770227194E-2,-9.570407867E-2,2.688550949E-1,2.867224243E-1
7.271649648E0,-8.167535067E-2,-1.399221420E-1,4.919214249E-1,5.179148163E-1
7.276625898E0,-1.490144730E-1,-1.800041199E-1,6.874618530E-1,7.260926908E-1
7.281596263E0,-2.372026443E-1,-1.928296089E-1,7.277727127E-1,7.893677685E-1
7.286572513E0,-2.537839413E-1,-2.429599762E-1,7.568111420E-1,8.343853687E-1
7.291548763E0,-2.448666096E-1,-2.184114456E-1,7.010488510E-1,7.740366319E-1
7.296525013E0,-1.749832630E-1,-1.529140472E-1,5.706119537E-1,6.161167502E-1
7.301501263E0,-1.159311533E-1,-1.153187752E-1,3.469295502E-1,3.835343075E-1
7.306477513E0,-1.785022020E-2,-1.454448700E-2,1.207685471E-1,1.229439483E-1
7.311445585E0,9.525203705E-2,3.074789047E-2,-9.867858887E-2,1.405554952E-1
7.316421888E0,1.166303158E-1,8.093738556E-2,-3.521442413E-1,3.796828382E-1
7.321398085E0,1.184827685E-1,1.221532822E-1,-5.611820221E-1,5.864169615E-1
7.326374335E0,1.199997067E-1,1.310148239E-1,-6.431751251E-1,6.672623587E-1
7.331350585E0,1.476653814E-1,1.006217003E-1,-6.395778656E-1,6.640705065E-1
7.336326835E0,1.159739494E-1,9.778404236E-2,-5.772418976E-1,5.968415906E-1
7.341294596E0,6.638711691E-2,1.197581291E-1,-3.901262283E-1,4.134582601E-1
7.346270898E0,3.954714537E-2,1.041798592E-1,-2.097387314E-1,2.375031688E-1
7.351247096E0,-1.005738974E-2,6.288433075E-2,-5.957794189E-2,8.720734661E-2
7.356223346E0,-2.329087257E-2,-2.046108246E-3,3.002643585E-2,3.805572433E-2
7.361199596E0,-7.677829266E-2,-6.202507019E-2,9.292507172E-2,1.355621057E-1
7.366175846E0,-1.158045530E-1,-1.053342819E-1,1.674346924E-1,2.292168878E-1
7.371147252E0,-1.188070774E-1,-1.085572243E-1,1.822643280E-1,2.431462067E-1
7.376123502E0,-8.387202024E-2,-1.098918915E-1,1.592321396E-1,2.108687219E-1
7.381099752E0,-8.977919817E-2,-1.351561546E-1,1.174974442E-1,2.003325733E-1
7.386076002E0,-1.079847813E-1,-1.437149048E-1,-2.170562744E-3,1.797759666E-1
7.391052252E0,-9.569412470E-2,-1.093745232E-1,-1.136980057E-1,1.845193440E-1
7.396028502E0,-5.555886030E-2,-8.914518356E-2,-1.793270111E-1,2.078264363E-1
7.400995794E0,-2.341622114E-2,-6.630420685E-2,-1.923027039E-1,2.047557012E-1
7.405972044E0,1.043814421E-2,-1.717948914E-2,-2.005548477E-1,2.015597595E-1
7.410948294E0,7.470983267E-2,-1.094150543E-2,-1.661033630E-1,1.824598664E-1
7.415924596E0,7.882761955E-2,1.202392578E-2,-1.106128693E-1,1.363582606E-1
7.420900794E0,7.611435652E-2,-8.014678955E-3,6.081199646E-2,9.775341048E-2
7.425877044E0,8.113402128E-2,-2.549552917E-2,2.259950638E-1,2.414674311E-1
7.430845898E0,4.381996393E-2,-3.632831573E-2,2.974271774E-1,3.028248035E-1
7.435822200E0,-1.447135210E-2,-5.960798264E-2,2.973241806E-1,3.035855728E-1
7.440798398E0,-7.225310802E-2,-6.188631058E-2,2.547492981E-1,2.719331387E-1
7.445774648E0,-6.795257330E-2,-4.570531845E-2,1.914510727E-1,2.082307412E-1
7.450750898E0,-7.095485926E-2,-5.140256882E-2,1.146240234E-1,1.442757183E-1
7.455727148E0,-1.163895726E-1,-2.378177643E-2,3.840255737E-2,1.248473545E-1
7.460696835E0,-1.156826615E-1,-2.686834335E-2,1.481151581E-2,1.196819412E-1
7.465673138E0,-5.941414833E-2,8.617877960E-3,4.331779480E-2,7.403202137E-2
7.470649335E0,-5.060195923E-3,-7.951259613E-3,1.353836060E-1,1.357112703E-1
7.475625585E0,9.060859680E-3,-2.653598785E-2,2.407665253E-1,2.423938479E-1
7.480601835E0,-9.727954865E-3,-4.736137390E-2,2.858486176E-1,2.899088909E-1
7.485578085E0,-2.114117146E-3,-9.685325623E-2,3.449678421E-1,3.583124821E-1
7.490546627E0,6.584525108E-4,-6.571960449E-2,4.537639618E-1,4.584988909E-1
7.495522877E0,-3.900349140E-3,-5.976104736E-2,4.957437515E-1,4.993480376E-1
7.500499127E0,-3.996074200E-3,-4.547071457E-2,4.738321304E-1,4.760256740E-1
7.505475377E0,-2.139639854E-2,-1.556396484E-2,3.575963974E-1,3.585738784E-1
7.510451627E0,-3.448402882E-2,-8.093833923E-3,1.881570816E-1,1.914621261E-1
7.515427877E0,-6.474471092E-2,-3.312110901E-3,-2.243900299E-2,6.860289007E-2
7.520383085E0,-8.604502678E-2,4.217815399E-2,-2.741479874E-1,2.904132612E-1
7.525359335E0,-9.596890211E-2,3.812885284E-2,-4.789266586E-1,4.899332444E-1
7.530335585E0,-9.453862906E-2,3.257989883E-2,-6.111021042E-1,6.192291853E-1
7.535311783E0,-8.603620529E-2,6.854772568E-2,-6.738309860E-1,6.827512117E-1
7.540288033E0,-5.612778664E-2,9.594583511E-2,-6.582822800E-1,6.676012971E-1
7.545264283E0,4.284471273E-2,8.610630035E-2,-5.293855667E-1,5.380511524E-1
7.550247773E0,8.696347475E-2,4.850578308E-2,-3.496971130E-1,3.635980305E-1
7.555224023E0,6.243085861E-2,1.148700714E-2,-1.812028885E-1,1.920001308E-1
7.560200273E0,2.890223265E-2,-7.752704620E-2,-2.241134644E-3,8.276958759E-2
7.565176523E0,5.409479141E-3,-1.282429695E-1,1.303005219E-1,1.829036568E-1
7.570152773E0,-2.709048986E-2,-1.599202156E-1,2.048959732E-1,2.613249507E-1
7.575129023E0,-3.994643688E-2,-1.466279030E-1,3.004341125E-1,3.366839998E-1
7.580096002E0,-1.660281420E-2,-1.198091507E-1,3.693161011E-1,3.886184099E-1
7.585072252E0,-1.914161444E-2,-9.607219696E-2,2.786674500E-1,2.953841839E-1
7.590048502E0,4.424750805E-3,-1.180329323E-1,1.533317566E-1,1.935509729E-1
7.595024752E0,3.217154741E-2,-1.449637413E-1,7.204055786E-2,1.650434389E-1
7.600001002E0,2.102643251E-2,-1.479611397E-1,-2.274227142E-2,1.511681866E-1
7.604977252E0,9.345591068E-3,-1.059422493E-1,-1.189785004E-1,1.595837830E-1
7.609945533E0,2.308088541E-2,-6.894922256E-2,-2.880172729E-1,2.970533152E-1
7.614921835E0,3.021955490E-4,-5.557966232E-2,-3.797845840E-1,3.838300672E-1
7.619898033E0,-1.583284140E-2,8.065223694E-3,-4.187145233E-1,4.190913728E-1
7.624874283E0,-3.678864241E-2,5.506992340E-2,-4.813222885E-1,4.858572281E-1
7.629850533E0,-7.906228304E-2,7.152366638E-2,-4.796266556E-1,4.913330929E-1
7.634826783E0,-9.217393398E-2,4.824113846E-2,-3.786020279E-1,3.926356289E-1
7.639795481E0,-6.185775995E-2,4.704904556E-2,-2.312250137E-1,2.439364715E-1
7.644771523E0,-3.573501110E-2,1.554918289E-2,-2.842712402E-2,4.823763559E-2
7.649747513E0,-3.752529621E-2,-2.261543274E-2,1.036138535E-1,1.124963834E-1
7.654723502E0,-2.689003944E-2,-5.346155167E-2,2.084369659E-1,2.168575120E-1
7.659699544E0,1.006573439E-2,-7.034587860E-2,2.817602158E-1,2.905833458E-1
7.664675533E0,2.316743135E-2,-6.868505478E-2,3.476324081E-1,3.551093604E-1
7.669621419E0,1.500403881E-2,-6.773710251E-2,3.230209351E-1,3.303875917E-1
7.674597460E0,-1.471835375E-2,-5.793094635E-2,2.799577713E-1,2.862673195E-1
7.679573450E0,-6.147271395E-2,-6.520748138E-2,1.424818039E-1,1.683210463E-1
7.684549440E0,-7.527941465E-2,-8.237314224E-2,2.544975281E-2,1.144552959E-1
7.689525481E0,-5.172896385E-2,-7.332515717E-2,-9.525775909E-2,1.308682736E-1
7.694501471E0,-1.274484396E-2,-4.037618637E-2,-2.387332916E-1,2.424587635E-1
7.699469283E0,2.501374483E-2,-2.392435074E-2,-4.096412659E-1,4.111009957E-1
7.704445325E0,7.384687662E-2,4.042768478E-2,-4.415655136E-1,4.495195899E-1
7.709421315E0,7.476735115E-2,7.886791229E-2,-3.904628754E-1,4.053042825E-1
7.714397304E0,7.388669252E-2,2.507972717E-2,-2.855806351E-1,2.960481974E-1
7.719373294E0,4.541254044E-2,1.044988632E-2,-1.392536163E-1,1.468436877E-1
7.724349335E0,6.593942642E-2,-2.519655228E-2,6.262493134E-2,9.436501591E-2
7.729322356E0,1.135395169E-1,-5.830287933E-2,3.221721649E-1,3.465333339E-1
7.734298398E0,8.318728209E-2,-5.843114853E-2,4.443559647E-1,4.558360959E-1
7.739274388E0,-8.235454559E-3,-6.673097610E-2,4.757404327E-1,4.804683187E-1
7.744250377E0,-1.247492433E-1,-7.838058472E-2,5.002403259E-1,5.214846819E-1
7.749226419E0,-1.261748672E-1,-1.122550964E-1,4.608678818E-1,4.908365392E-1
7.754202408E0,-7.553851604E-2,-1.202363968E-1,3.389635086E-1,3.675039030E-1
7.759170794E0,-4.475021362E-2,-4.783678055E-2,1.993417740E-1,2.098286969E-1
7.764146835E0,2.095198631E-2,5.149841309E-5,2.299594879E-2,3.110951693E-2
7.769122825E0,8.077490330E-2,4.744529724E-4,-2.138137817E-1,2.285632153E-1
7.774098815E0,5.614376068E-2,3.713893890E-2,-3.847475052E-1,3.905919423E-1
7.779074856E0,7.105886936E-3,3.870248795E-2,-5.165920258E-1,5.180885033E-1
7.784050846E0,-1.357114315E-2,3.279209137E-3,-5.907993317E-1,5.909642793E-1
7.789021731E0,2.557253838E-2,7.297515869E-3,-4.606962204E-1,4.614631252E-1
7.793997773E0,6.049895287E-2,3.581619263E-2,-2.157506943E-1,2.269169122E-1
7.798973763E0,1.557391882E-2,2.659940720E-2,5.053424835E-2,5.919278391E-2
7.803949752E0,-8.254605532E-2,-2.053928375E-2,2.075977325E-1,2.243491297E-1
7.808925794E0,-1.484574676E-1,-8.452892303E-2,3.398628235E-1,3.803833557E-1
7.813901783E0,-2.255843282E-1,-1.416850090E-1,4.405555725E-1,5.148321507E-1
7.818900742E0,-2.996380329E-1,-2.159070969E-1,4.814805984E-1,6.068133090E-1
7.823876783E0,-2.878016829E-1,-1.787347794E-1,4.441385269E-1,5.586008961E-1
7.828852773E0,-2.289030552E-1,-1.045799255E-1,3.457393646E-1,4.276321758E-1
7.833828763E0,-1.619247794E-1,-6.475877762E-2,1.415786743E-1,2.246282584E-1
7.838804752E0,-3.986567259E-2,-4.670953751E-2,-7.497882843E-2,9.691685848E-2
7.843780794E0,3.455281258E-2,-2.866697311E-2,-2.706651688E-1,2.743634921E-1
7.848747513E0,9.983730316E-2,1.097679138E-2,-4.433994293E-1,4.546328529E-1
7.853723554E0,1.088221669E-1,3.435373306E-2,-5.816831589E-1,5.927712378E-1
7.858699544E0,1.527898312E-1,5.119991302E-2,-5.980072021E-1,6.193373696E-1
7.863675533E0,1.728056669E-1,5.671501160E-2,-5.124073029E-1,5.437275375E-1
7.868651575E0,1.886063218E-1,4.136371613E-2,-3.542261124E-1,4.034345552E-1
7.873627565E0,1.886711121E-1,4.572963715E-2,-9.798145294E-2,2.174588544E-1
7.878595377E0,1.593672633E-1,3.587245941E-2,1.725807190E-1,2.376317793E-1
7.883571419E0,1.580842733E-1,1.932621002E-3,4.456930161E-1,4.729023547E-1
7.888547408E0,7.783252001E-2,-2.765750885E-2,6.121797562E-1,6.177271994E-1
7.893523398E0,-9.905457497E-3,-2.933216095E-2,6.374197006E-1,6.381711122E-1
7.898499440E0,-3.656983376E-2,-2.713298798E-2,6.034231186E-1,6.051388368E-1
7.903475429E0,-4.116660357E-2,-2.327775955E-2,5.130100250E-1,5.151852377E-1
7.908423398E0,-8.350509405E-2,-4.864978790E-2,3.690404892E-1,3.814849738E-1
7.913399440E0,-8.063197136E-2,-5.258798599E-2,1.764936447E-1,2.010398411E-1
7.918375429E0,-8.342093229E-2,-5.646848679E-2,-3.575611115E-2,1.068935986E-1
7.923351419E0,-6.606620550E-2,-7.904195786E-2,-2.296323776E-1,2.516811544E-1
7.928327513E0,1.936912537E-3,-5.354738235E-2,-4.243192673E-1,4.276890393E-1
