"Time (s)","Linear Acceleration x (m/s^2)","Linear Acceleration y (m/s^2)","Linear Acceleration z (m/s^2)","Absolute acceleration (m/s^2)"
-1.552999951E-3,-8.219339680E-3,-7.408539176E-2,-3.698363900E-3,7.463163346E-2
8.391000098E-3,-1.021493956E-2,-3.455704451E-2,1.857514232E-2,4.054096974E-2
1.833500015E-2,-1.878603495E-2,-1.109684587E-2,1.987351656E-2,2.951290832E-2
2.827899996E-2,-1.367414321E-2,-6.720438838E-2,1.911454797E-3,6.860805834E-2
3.822200000E-2,2.138243624E-2,-7.434617758E-2,-7.521419674E-2,1.078968864E-1
4.816600005E-2,1.944091396E-2,-4.115679681E-2,-5.437004238E-2,7.090791612E-2
5.811000010E-2,-1.154710888E-2,-5.169698775E-2,-6.979236603E-3,5.342868152E-2
6.805400015E-2,-1.813402472E-2,-2.673580885E-2,1.706100583E-2,3.653387808E-2
7.799799996E-2,-1.142310223E-2,2.014950514E-3,3.005848914E-2,3.221893946E-2
8.794100001E-2,3.508146666E-4,-3.717659712E-2,-6.506138384E-2,7.493467897E-2
9.788500005E-2,2.846348749E-2,-6.437901378E-2,-6.306280553E-2,9.450790960E-2
1.078290001E-1,2.633502790E-2,-5.674839735E-2,-3.296660185E-2,7.071570641E-2
1.177730002E-1,6.738075502E-3,-4.956743181E-2,-5.556082785E-2,7.476187229E-2
1.277170000E-1,-7.221649373E-3,-1.329715312E-2,2.081608772E-2,2.573472379E-2
1.376600000E-1,5.977526335E-3,-1.083839893E-2,1.931335330E-2,2.293920941E-2
1.476040001E-1,-2.546827868E-3,-5.336169004E-2,4.210229158E-2,6.801881544E-2
1.575480001E-1,-1.377444123E-2,-1.045482159E-2,2.067283094E-2,2.695189167E-2
1.674920002E-1,1.711589657E-3,-2.400457442E-2,-4.545069963E-2,5.142873933E-2
1.774360000E-1,1.044486305E-3,-4.406637132E-2,-3.175447404E-2,5.432570897E-2
1.873800000E-1,8.967892919E-3,-3.058970869E-2,-8.355846584E-2,8.943249183E-2
1.973230001E-1,-1.360131796E-2,-6.814462066E-2,-9.951961040E-3,7.019776851E-2
2.072670001E-1,6.238705013E-3,-6.563499570E-2,-2.303861439E-2,6.984018796E-2
2.172110002E-1,-8.748713695E-3,-1.389298439E-2,-4.618657172E-2,4.901789891E-2
2.271550000E-1,-1.155963471E-2,-3.312740028E-2,1.693909138E-2,3.896129645E-2
2.370990000E-1,-7.361726733E-3,-2.411157846E-2,1.775390089E-2,3.083446502E-2
2.470420001E-1,-1.545936210E-2,-3.639248550E-2,4.591058314E-2,6.059031706E-2
2.569860001E-1,-1.155335809E-2,-3.106040955E-2,2.927934766E-2,4.422114114E-2
2.669300002E-1,-2.533115233E-2,-3.683278084E-2,-2.978922486E-2,5.371888812E-2
2.768740000E-1,1.143148933E-2,-4.498379946E-2,-3.134136826E-2,5.600448666E-2
2.868180000E-1,3.794993707E-2,-5.656362534E-2,-2.178964913E-2,7.151524484E-2
2.967610001E-1,2.399309012E-2,-6.769847810E-2,-2.568828017E-2,7.628001081E-2
3.067050001E-1,1.194080008E-2,-4.242798150E-2,-6.484445214E-2,7.840611771E-2
3.166490002E-1,-3.814970171E-3,-3.540138245E-2,-9.453310490E-2,1.010164333E-1
3.265930000E-1,-1.265508316E-2,-5.336227477E-2,4.295832396E-2,6.966420239E-2
3.365370000E-1,5.724424124E-4,-4.213620543E-2,5.493137509E-2,6.923325406E-2
3.464800001E-1,6.892487677E-3,-1.626286089E-2,-1.476568133E-2,2.302199765E-2
3.564240001E-1,-3.973124564E-2,2.218433619E-3,2.562483788E-2,4.732996560E-2
3.663680002E-1,-3.304455254E-2,-1.038874805E-2,4.380149245E-3,3.491495734E-2
3.763120000E-1,1.442579364E-2,-6.418313205E-2,7.756740868E-2,1.017068378E-1
3.862560000E-1,2.079407844E-2,-5.884871721E-2,-3.091247499E-2,6.965017104E-2
3.962000001E-1,1.030895183E-2,-2.560378790E-2,-9.643637359E-2,1.003085370E-1
4.061430001E-1,8.401252041E-3,-6.246346593E-2,-7.051742077E-2,9.457786339E-2
4.160870002E-1,4.639729075E-3,-6.841885507E-2,-6.835278153E-2,9.682339365E-2
4.260310000E-1,3.999943184E-3,-4.115094960E-2,-7.128340602E-3,4.195489766E-2
4.359750000E-1,-8.416838525E-3,-1.898766339E-2,-3.139603972E-2,3.764420064E-2
4.459190001E-1,-2.869437941E-2,-2.366835952E-2,-1.848158687E-2,4.153465668E-2
4.558620001E-1,-1.340625850E-2,3.011900783E-3,1.413710564E-2,1.971438737E-2
4.658060002E-1,-8.131339084E-3,-2.418525338E-2,3.647288471E-2,4.451198126E-2
4.757500000E-1,-9.526073607E-3,-5.019483805E-2,5.912119746E-3,5.143171205E-2
4.856940000E-1,-6.058802633E-3,-3.546979487E-2,-8.247409970E-2,8.998217911E-2
4.956380001E-1,7.906385735E-3,-2.089502513E-2,-7.002830118E-2,7.350561868E-2
5.055810001E-1,3.094246024E-3,-6.421880007E-2,1.583045930E-2,6.621353398E-2
5.155250002E-1,-2.703423612E-5,-3.735201359E-2,-3.383111268E-2,5.039561325E-2
5.254690000E-1,7.502361406E-3,-3.464592218E-2,-4.238997459E-2,5.525880289E-2
5.354130000E-1,-5.749183428E-3,-4.592110813E-2,-3.650592148E-2,5.894475028E-2
5.453570001E-1,-1.146899373E-2,-6.301427364E-2,1.319775045E-2,6.539508481E-2
5.553000001E-1,-2.700176580E-2,-4.554630160E-2,6.240820974E-2,8.184342117E-2
5.652439999E-1,-2.186955499E-2,-1.716099322E-2,3.282802284E-2,4.301692931E-2
5.751880000E-1,-3.163072321E-2,-2.359000683E-2,2.299300611E-2,4.566912965E-2
5.851320000E-1,2.419370444E-2,-4.181460857E-2,-6.451817751E-2,8.060019884E-2
5.950760001E-1,1.171430270E-2,-4.502940774E-2,-2.294447422E-2,5.187794663E-2
6.050200001E-1,-7.493215995E-3,-8.088044107E-2,1.166110218E-2,8.205958407E-2
6.149629999E-1,2.097769015E-2,-5.561813056E-2,-5.231708497E-2,7.918659805E-2
6.249070000E-1,1.155278251E-2,-1.518638849E-2,-4.636783540E-2,5.014049600E-2
6.348510000E-1,-3.150132615E-3,-1.594184875E-2,-1.303549021E-2,2.083242382E-2
6.447950001E-1,1.560305743E-2,-6.216233432E-2,4.091764569E-2,7.603857533E-2
6.547390001E-1,-2.255207123E-3,-2.627738714E-2,2.619669557E-2,3.717329543E-2
6.646819999E-1,-3.219153514E-2,2.234221101E-3,-3.947923064E-2,5.098917857E-2
6.746260000E-1,1.416283339E-2,-3.337473750E-2,-3.892491460E-2,5.319405916E-2
6.845700000E-1,1.006473921E-2,-4.471131921E-2,-2.016412318E-2,5.006988021E-2
6.945140001E-1,-1.573574354E-2,-3.684505999E-2,-1.161958694E-2,4.171554712E-2
7.044580001E-1,-1.827040189E-2,-4.428739607E-2,1.155117452E-2,4.928093616E-2
7.144009999E-1,-1.155574266E-3,-2.604174435E-2,-6.475440502E-2,6.980430338E-2
7.243450000E-1,6.283216942E-3,-1.735629022E-2,-4.462653458E-2,4.829334544E-2
7.342890000E-1,1.677767169E-3,-4.097670257E-2,3.014298141E-2,5.089699779E-2
7.442330001E-1,-1.624908339E-2,-5.170517385E-2,-1.121992975E-2,5.534748899E-2
7.541770001E-1,-1.715076973E-2,-5.169055581E-2,-1.538343966E-2,5.659251433E-2
7.641199999E-1,1.259395234E-2,-2.806429625E-2,-7.041100144E-2,7.683697992E-2
7.740640000E-1,-1.341130173E-2,-4.999427855E-2,-3.930673778E-2,6.499469622E-2
7.840080000E-1,1.007648846E-3,-5.345992327E-2,7.153483629E-3,5.394581615E-2
7.939518334E-1,1.082257491E-2,-2.865369558E-2,-2.941675723E-2,4.246772897E-2
8.038958334E-1,2.203870397E-3,-5.369088829E-2,-2.991318583E-2,6.150095297E-2
8.138398335E-1,-1.071340556E-2,-4.104920805E-2,-1.241773188E-2,4.420423741E-2
8.237828333E-1,4.876577854E-4,-3.379515231E-2,3.434069753E-3,3.397267968E-2
8.337268333E-1,-7.101872815E-3,-6.131858110E-2,1.746037066E-2,6.415036656E-2
8.436708334E-1,-1.387277495E-2,-4.078199029E-2,-9.789993167E-3,4.417542963E-2
8.536148334E-1,-7.902539363E-3,-2.523132026E-2,-1.513434827E-2,3.046503156E-2
8.635588335E-1,-4.617071114E-3,-4.402251720E-2,-2.518688142E-2,5.092816865E-2
8.735018333E-1,-8.496022616E-3,-5.001591325E-2,5.657181144E-3,5.104681848E-2
8.834458333E-1,-2.471465481E-2,-3.016929388E-2,1.389064550E-2,4.139988512E-2
8.933898334E-1,-9.313079640E-3,-2.105816245E-2,-9.561367035E-3,2.493189519E-2
9.033338334E-1,-3.739321819E-3,-3.753035367E-2,-1.103954315E-2,3.929861940E-2
9.132778335E-1,-2.591539881E-2,-2.379816771E-2,-9.662523866E-3,3.648732724E-2
9.232208333E-1,-9.905914217E-3,-3.093469441E-2,-2.895833552E-3,3.261086179E-2
9.331648333E-1,4.132793751E-4,-4.962473452E-2,-1.252122760E-2,5.118169806E-2
9.431088334E-1,-3.806241374E-2,-3.542594075E-2,3.662929773E-2,6.360385264E-2
9.530528334E-1,-1.226681890E-2,-3.997799814E-2,-1.388421357E-3,4.184068468E-2
9.629968335E-1,-1.813465512E-2,-4.296651006E-2,-5.294361413E-3,4.693630754E-2
9.729398333E-1,-9.748094212E-3,-6.128700614E-2,-2.655659169E-2,6.750092610E-2
9.828838333E-1,-7.268463643E-3,-4.967326641E-2,-1.682653248E-2,5.294710715E-2
9.928278334E-1,3.572740126E-3,-4.939552367E-2,-4.117609262E-2,6.440615525E-2
1.002771833E0,-1.025208766E-2,-5.144672692E-2,-1.299602151E-2,5.404412629E-2
1.012715833E0,2.633231442E-2,-3.617438436E-2,-1.315331161E-2,4.663675024E-2
1.022659833E0,1.343385005E-2,-3.324843764E-2,-3.101918668E-2,4.741431087E-2
1.032602833E0,-2.348232670E-3,-4.775830328E-2,-1.757497609E-2,5.094359149E-2
1.042546833E0,1.606194508E-2,-4.652220190E-2,-2.399697304E-3,4.927534775E-2
1.052490833E0,9.924643580E-4,-2.974186242E-2,-7.082147598E-3,3.058954364E-2
1.062434833E0,5.342856757E-3,-3.711520135E-2,-1.327493370E-2,3.977823720E-2
1.072378833E0,1.735148454E-2,-3.750579536E-2,1.316792965E-3,4.134601123E-2
1.082321833E0,-8.059199061E-4,-3.539728940E-2,-2.955825984E-2,4.612275283E-2
1.092265833E0,-5.787236011E-3,-5.257231593E-2,-7.560449839E-2,9.226798296E-2
1.102209833E0,1.309314924E-2,-6.676877081E-2,-2.207440853E-2,7.153166309E-2
1.112153833E0,-8.179551205E-3,-4.898855746E-2,-1.676221311E-2,5.241903860E-2
1.122097833E0,-5.296864752E-3,-2.498047471E-2,-3.606854975E-2,4.419299915E-2
1.132040833E0,-4.365960611E-3,-1.745569289E-2,3.495465517E-3,1.832978738E-2
1.141984833E0,-1.453335500E-2,-3.028857708E-2,-8.878412247E-3,3.474827353E-2
1.151928833E0,-2.333914300E-2,-4.232097745E-2,1.903122514E-2,5.194197011E-2
1.161872834E0,-1.114798159E-2,-3.106450260E-2,6.088120937E-3,3.356107912E-2
1.171816833E0,-2.847745685E-2,-3.032073677E-2,-6.019708514E-3,4.203034044E-2
1.181760833E0,-1.434779727E-2,-3.933772802E-2,2.011763781E-2,4.645466052E-2
1.191703833E0,3.927912796E-3,-3.348934293E-2,-2.765294462E-2,4.360791138E-2
1.201647833E0,-1.036979942E-2,-5.550118625E-2,-2.254160106E-2,6.079505073E-2
1.211591834E0,-1.085711916E-2,-4.961771786E-2,-1.262823164E-2,5.233800910E-2
1.221535833E0,-1.368016401E-2,-4.419793367E-2,-1.913442850E-2,5.006726059E-2
1.231479833E0,8.827897785E-3,-3.942602098E-2,7.706630230E-3,4.113070701E-2
1.241422833E0,-2.070108030E-2,-2.943020582E-2,-4.492415786E-3,3.626090925E-2
1.251366833E0,6.729542222E-3,-5.066963196E-2,-2.428933382E-2,5.659213796E-2
1.261310833E0,1.848617328E-2,-3.484355807E-2,-2.335670292E-2,4.584045935E-2
1.271254833E0,1.173330615E-2,-4.683444321E-2,-1.912039518E-2,5.193000150E-2
1.281198833E0,-7.857835572E-4,-3.887638271E-2,-2.115522623E-3,3.894182872E-2
1.291141833E0,3.463399021E-2,-1.687564909E-2,-3.848403454E-2,5.445476769E-2
1.301085833E0,1.212895252E-2,-2.471442640E-2,-5.039071977E-2,5.742071926E-2
1.311029833E0,1.092037872E-2,-4.489024401E-2,-2.457350850E-2,5.232825239E-2
1.320973833E0,2.175539724E-2,-4.084397078E-2,-5.511994779E-2,7.197038212E-2
1.330917833E0,9.862772729E-3,-1.757029831E-2,-3.867670029E-2,4.361051266E-2
1.340860833E0,5.118515538E-3,-3.328585982E-2,3.682284057E-3,3.387782285E-2
1.350804833E0,5.332304360E-3,-3.720290959E-2,-2.723896176E-2,4.641606391E-2
1.360748833E0,-2.456117453E-2,-1.041739941E-2,1.375265121E-3,2.671450652E-2
1.370692833E0,-2.382748601E-2,-3.226025820E-2,-2.110844851E-2,4.532151748E-2
1.380636833E0,5.640114583E-3,-6.542741954E-2,-2.111517280E-2,6.898121950E-2
1.390580833E0,-3.827507881E-2,-2.588328481E-2,-1.684348941E-2,4.917956105E-2
1.400523833E0,-3.339370441E-2,-3.935936272E-2,-9.499386549E-3,5.248368578E-2
1.410467833E0,-1.122181183E-3,-6.594606757E-2,9.135105014E-3,6.658523307E-2
1.420411833E0,-2.276866489E-2,-3.164571583E-2,-3.342560828E-2,5.135304003E-2
1.430355833E0,-5.923907368E-2,-4.390791178E-2,1.848246396E-2,7.601824808E-2
1.440299833E0,-1.305436576E-2,-6.901936412E-2,1.270775378E-2,7.138330403E-2
1.450242833E0,-3.002439257E-2,-4.401491582E-2,2.795699984E-2,6.016951723E-2
1.460186833E0,-2.175218127E-2,-3.538208663E-2,-1.563545465E-3,4.156313413E-2
1.470130833E0,-1.523930579E-4,-4.487036347E-2,-3.944034666E-2,5.974038572E-2
1.480074833E0,-4.613233879E-3,-6.449888170E-2,-2.561957538E-2,6.955393813E-2
1.490018833E0,8.198892698E-5,-6.086834550E-2,-1.134681433E-2,6.191697991E-2
1.499961833E0,1.354687491E-2,-5.180223763E-2,7.870352268E-4,5.355006132E-2
1.509905833E0,2.765283499E-2,-5.062168479E-2,-1.054779232E-2,5.863864064E-2
1.519849833E0,4.067195300E-4,-1.239843607E-2,-2.444691628E-2,2.741419985E-2
1.529793833E0,1.917268208E-2,-3.736253858E-2,-1.449904829E-2,4.442716994E-2
1.539737833E0,3.025527536E-2,-3.679711282E-2,-1.591202796E-2,5.022550978E-2
1.549680833E0,1.963990202E-2,-2.317310035E-2,-2.744595319E-2,4.093896283E-2
1.559624833E0,2.659231452E-3,-3.575630844E-2,-2.583007514E-3,3.594797675E-2
1.569568833E0,3.122673542E-2,-8.975476027E-3,-3.383491337E-2,4.690916262E-2
1.579512833E0,-4.634137675E-3,-1.750539422E-2,-1.782172859E-2,2.540724441E-2
1.589456833E0,-7.005558209E-3,-3.396121323E-2,-4.389124721E-2,5.593642312E-2
1.599400833E0,3.034339473E-3,-2.883262038E-2,-3.380304605E-2,4.453283212E-2
1.609343833E0,3.475667210E-3,-2.687614202E-2,-2.814147949E-2,3.906853134E-2
1.619287833E0,-8.005907172E-3,-2.729597211E-2,-3.704737365E-2,4.670837760E-2
1.629231833E0,-1.313318440E-2,-5.248987019E-2,-1.627894074E-2,5.650372480E-2
1.639175833E0,-2.331064696E-2,-3.344841242E-2,1.102200150E-4,4.077002212E-2
1.649119833E0,-3.346155038E-2,-2.693110585E-2,-3.130950093E-2,5.315303063E-2
1.659062833E0,-1.726331036E-2,-6.436790407E-2,-5.224779546E-3,6.684719351E-2
1.669006833E0,-2.749197260E-2,-3.568438768E-2,-1.945222467E-2,4.906702688E-2
1.678950833E0,-1.779012621E-2,-2.372917056E-2,-1.985188186E-2,3.568836421E-2
1.688894833E0,-1.059586739E-2,-6.421821535E-2,-1.937416434E-2,6.790883471E-2
1.698838833E0,-1.344236506E-2,-4.449029446E-2,-2.992020249E-2,5.527478626E-2
1.708781833E0,-1.406625384E-2,-3.209068894E-2,-1.054662287E-2,3.659102442E-2
1.718725833E0,2.346340547E-2,-4.955690682E-2,-2.817188501E-2,6.164473631E-2
1.728669833E0,-2.081215912E-3,-4.324015975E-2,2.443843782E-3,4.335914260E-2
1.738613833E0,1.110068310E-2,-3.375188291E-2,-1.326645523E-2,3.792642350E-2
1.748557833E0,1.114104716E-2,-2.835724175E-2,-2.196594268E-2,3.756006828E-2
1.758500833E0,-2.798870271E-3,-3.632641196E-2,1.778810710E-2,4.054452657E-2
1.768444833E0,2.986675529E-3,-2.946119606E-2,3.190854818E-2,4.353203132E-2
1.778388833E0,2.307681316E-2,-2.860457897E-2,-6.910239458E-3,3.739669308E-2
1.788332708E0,1.908299128E-2,-6.110223413E-2,-3.441086411E-2,7.267565714E-2
1.798276708E0,1.347891930E-2,-3.253858566E-2,-4.512354791E-2,5.724137838E-2
1.808220708E0,2.814077600E-2,-4.930489182E-2,-2.117452204E-2,6.059072549E-2
1.818163708E0,1.215076081E-2,-4.247709811E-2,-2.462847233E-2,5.058168148E-2
1.828107708E0,-7.243759157E-3,-4.082935274E-2,-2.403000981E-2,4.792650063E-2
1.838051708E0,-2.357139624E-2,-2.988862753E-2,2.353328884E-2,4.475216709E-2
1.847995708E0,7.964273170E-4,-7.616583109E-3,-5.730271339E-3,9.564655997E-3
1.857939708E0,-1.979266053E-2,-5.246765077E-2,1.246626377E-2,5.744572674E-2
1.867882708E0,-2.271314375E-2,-5.147537827E-2,1.529631615E-3,5.628446713E-2
1.877826708E0,-2.157829969E-2,-2.764505088E-2,-3.372206211E-2,4.865233118E-2
1.887770708E0,-1.263663702E-2,-4.575095415E-2,-3.254735649E-2,5.755141019E-2
1.897714708E0,1.655952486E-2,-6.207345665E-2,-4.720574141E-2,7.972273142E-2
1.907658708E0,-2.689173765E-2,-5.250507295E-2,-1.669380069E-3,5.901470214E-2
1.917601708E0,-4.896389865E-2,-3.229475677E-2,8.046938181E-3,5.920445845E-2
1.927545708E0,-2.281045421E-2,-3.035582006E-2,-1.094803423E-2,3.951774394E-2
1.937489708E0,-7.004991760E-3,-3.512071609E-2,-2.025183141E-3,3.586970833E-2
1.947433708E0,-2.414854383E-2,-2.382915795E-2,1.859999299E-3,3.397705895E-2
1.957377708E0,-6.902309172E-3,-3.635915637E-2,-5.661858916E-3,3.743910750E-2
1.967321708E0,7.551478017E-3,-5.175195158E-2,-1.059690893E-2,5.336275659E-2
1.977264708E0,1.255307665E-2,-1.675636590E-2,-2.818650305E-2,3.511174285E-2
1.987208708E0,1.658699764E-2,-3.154338956E-2,-4.802376688E-2,5.980297735E-2
1.997152708E0,3.018239530E-2,-3.742334962E-2,-2.748366773E-2,5.537902197E-2
2.007096708E0,4.126864308E-3,-3.512363970E-2,-1.504488587E-2,3.843240385E-2
2.017040708E0,2.298682085E-2,-4.006979942E-2,-3.434332877E-2,5.756254850E-2
2.026983708E0,3.801850481E-2,-3.824254453E-2,-4.549513847E-2,7.055286347E-2
2.036927708E0,-6.937438147E-3,-1.784745634E-2,1.174062431E-2,2.246112207E-2
2.046871708E0,-5.307307513E-3,-2.904662848E-2,-3.069320440E-2,4.259045592E-2
2.056815708E0,2.110949004E-2,-3.888749242E-2,-2.030854940E-2,4.868557091E-2
2.066759708E0,2.677522274E-3,-5.536670029E-2,-1.324043512E-2,5.699078653E-2
2.076702708E0,-2.033069573E-2,-2.814264894E-2,-3.430269063E-2,4.880594700E-2
2.086646708E0,3.948442005E-3,-5.131925762E-2,-2.942435861E-2,5.928785100E-2
2.096590708E0,-1.296894159E-2,-3.768588960E-2,-3.050667822E-2,5.019040882E-2
2.106534708E0,-4.703500271E-3,-4.474289417E-2,-1.189002067E-2,4.653409594E-2
2.116478708E0,-2.324362325E-2,-5.825990260E-2,-1.117929161E-2,6.371388258E-2
2.126421708E0,-2.442365533E-2,-3.546570182E-2,-3.433309615E-2,5.507351846E-2
2.136365708E0,-3.157299109E-2,-3.716724157E-2,4.716364145E-3,4.899491507E-2
2.146309708E0,-8.984210305E-3,-4.844827473E-2,-7.281537652E-3,4.980935806E-2
2.156253708E0,-3.911396239E-2,-2.110610962E-2,-2.965707779E-3,4.454397086E-2
2.166197708E0,-4.428120168E-2,-2.083187521E-2,-2.595929861E-2,5.539564090E-2
2.176141708E0,-4.561568247E-3,-5.824411511E-2,-3.496401072E-2,6.808573195E-2
2.186084708E0,-8.114848109E-3,-3.598493457E-2,5.414229333E-3,3.728377871E-2
2.196028708E0,-2.535507110E-2,-2.880163014E-2,-2.062956154E-2,4.356595389E-2
2.205972708E0,-4.502648413E-3,-4.155323803E-2,-1.771940231E-2,4.539738596E-2
2.215916708E0,1.187568585E-2,-3.592412353E-2,-3.784668803E-2,5.351585149E-2
2.225860708E0,-6.360034738E-4,-3.044645190E-3,-2.305557132E-3,3.871686769E-3
2.235803708E0,2.046823321E-2,-5.073862910E-2,1.836873561E-2,5.771280189E-2
2.245747708E0,6.715097772E-3,-4.460606933E-2,-3.174453378E-3,4.522025114E-2
2.255691708E0,1.859371637E-2,-2.557922959E-2,-7.260780036E-3,3.244598899E-2
2.265635708E0,2.302964257E-2,-4.234612048E-2,6.812298596E-3,4.868229420E-2
2.275579708E0,1.635438809E-2,-4.490720093E-2,-1.889147669E-2,5.139076373E-2
2.285522708E0,-1.093121435E-2,-2.894196332E-2,-7.534429729E-3,3.184173863E-2
2.295466708E0,2.806654377E-3,-4.729052603E-2,-2.019569814E-2,5.149890664E-2
2.305410708E0,1.446880722E-2,-5.162799060E-2,-1.795329094E-2,5.654304954E-2
2.315354708E0,-1.407670573E-2,-3.248537600E-2,-9.084234238E-3,3.655101380E-2
2.325298708E0,-8.920850242E-3,-2.706208348E-2,-4.284956574E-2,5.145894690E-2
2.335241708E0,9.432938425E-3,-5.156308651E-2,-1.227798343E-2,5.383754354E-2
2.345185708E0,-2.052105915E-2,-3.772155762E-2,9.996984601E-3,4.409046925E-2
2.355129708E0,-2.389064508E-2,-1.427714646E-2,-1.104480565E-2,2.994307207E-2
2.365073708E0,1.621527918E-2,-5.990413964E-2,-3.087329865E-2,6.931523493E-2
2.375017708E0,-1.485388292E-2,-3.804841697E-2,-2.323683500E-2,4.699223737E-2
2.384961708E0,-2.657091737E-2,-3.307769895E-2,-2.182005465E-2,4.771019390E-2
2.394904708E0,-4.819741091E-3,-5.579647064E-2,-2.085935712E-2,5.976277118E-2
2.404848708E0,-1.308700053E-2,-3.756485224E-2,-2.033632368E-2,4.467609839E-2
2.414792708E0,-2.424018066E-2,-2.501672745E-2,-1.564130187E-2,3.818472646E-2
2.424736708E0,-1.312471507E-2,-3.538617969E-2,-3.551657259E-2,5.182534889E-2
2.434680708E0,-2.196420679E-2,-3.136504948E-2,-6.277278364E-3,3.880202227E-2
2.444623708E0,-1.884811593E-2,-1.386784136E-2,-2.944043845E-2,3.760728539E-2
2.454567708E0,-1.854042448E-3,-4.330447912E-2,-2.657617986E-2,5.084298104E-2
2.464511708E0,-4.714317620E-4,-4.459086657E-2,-1.579917669E-2,4.730942415E-2
2.474455708E0,-1.369545814E-2,-2.439750731E-2,-6.782770157E-3,2.878905882E-2
2.484399708E0,1.230975025E-2,-4.256889939E-2,1.445139349E-3,4.433654897E-2
2.494342708E0,1.650925708E-2,-5.525384903E-2,-3.517363340E-2,6.754796731E-2
2.504286708E0,1.164239109E-2,-3.007398427E-2,-1.234873474E-2,3.453231891E-2
2.514230708E0,-1.591073060E-3,-5.322954297E-2,1.209262669E-2,5.460904118E-2
2.524174708E0,6.552060954E-3,-6.915268064E-2,2.943780720E-3,6.952473363E-2
2.534118708E0,7.760808337E-3,-3.132002592E-2,3.939853907E-3,3.250687033E-2
2.544062708E0,1.756259643E-2,-1.215109885E-2,-4.338721722E-2,4.835850096E-2
2.554005708E0,1.877577491E-3,-5.564853609E-2,-4.308403909E-2,7.040255173E-2
2.563949708E0,-8.830053946E-3,-5.022816718E-2,3.542535603E-2,6.209504393E-2
2.573893708E0,1.065561863E-2,-3.245847881E-2,-1.252239704E-2,3.638551199E-2
2.583837708E0,2.210951010E-2,-2.742402613E-2,-4.412221223E-2,5.645951876E-2
2.593781708E0,-1.319877371E-2,-3.275610209E-2,-4.096734703E-2,5.408783018E-2
2.603724708E0,-2.066952361E-2,-1.768548846E-2,8.437532187E-4,2.721612808E-2
2.613668708E0,3.471190436E-3,-4.315946817E-2,3.802912116E-2,5.762814341E-2
2.623612708E0,5.821442222E-3,-2.164112985E-2,-3.373872668E-2,4.050344885E-2
2.633556708E0,-1.455564751E-2,5.596954823E-3,-4.315654457E-2,4.588769025E-2
2.643500708E0,-9.007553486E-3,-3.370568991E-2,-2.430629075E-2,4.252064583E-2
2.653443708E0,-1.235659193E-2,-6.143727958E-2,-8.493665457E-3,6.324054901E-2
2.663387708E0,-1.410318266E-2,-3.576858759E-2,-2.073159546E-2,4.368169719E-2
2.673331708E0,-6.998240054E-3,-2.182414770E-2,-6.659130782E-2,7.042493212E-2
2.683275708E0,-1.669266779E-2,-4.810972095E-2,-2.916591167E-2,5.868424670E-2
2.693219708E0,-2.637679894E-2,-5.001182020E-2,1.189265192E-2,5.777848087E-2
2.703162708E0,3.046719125E-3,-4.835238039E-2,-3.215091527E-2,5.814564936E-2
2.713106708E0,-1.152706389E-2,-4.108779967E-2,-2.800670117E-2,5.104366556E-2
2.723050708E0,-2.718287417E-2,-3.843140960E-2,-1.933674216E-3,4.711285374E-2
2.732994708E0,-1.982678452E-2,-3.908746719E-2,2.897529244E-2,5.254045154E-2
2.742938708E0,1.144368625E-2,-6.136418939E-2,1.365909576E-3,6.243706754E-2
2.752882708E0,9.216335630E-3,-4.434294462E-2,-7.956306338E-3,4.598413195E-2
2.762825708E0,-6.751131238E-3,-4.994867027E-2,-8.687208295E-3,5.114601668E-2
2.772769708E0,-7.740927804E-3,-4.856755793E-2,-3.086043477E-2,5.806114089E-2
2.782713708E0,2.094520155E-2,-4.292850316E-2,-5.046147108E-4,4.776832096E-2
2.792658333E0,-3.616046067E-4,-2.068569481E-2,1.042032301E-2,2.316488419E-2
2.802602333E0,-1.322060027E-2,-4.044869900E-2,-2.040385902E-2,4.719320910E-2
2.812545333E0,-3.546866197E-3,-3.718946099E-2,-2.256762117E-2,4.364554724E-2
2.822489333E0,4.562500147E-3,-1.126583040E-2,-2.278484523E-2,2.582410723E-2
2.832433333E0,2.174296277E-3,-2.467115700E-2,-6.037250161E-3,2.549199760E-2
2.842377333E0,-2.563839611E-3,-6.802065969E-3,1.193241298E-2,1.397225302E-2
2.852321333E0,1.716974577E-2,5.747696042E-2,-1.037646890E-2,6.087751848E-2
2.862264333E0,2.249689727E-2,8.963606179E-2,1.528257519E-2,9.367118588E-2
2.872208333E0,1.645443030E-3,7.826147318E-2,3.099784434E-2,8.419282642E-2
2.882152333E0,-1.253268449E-3,1.742546278E-1,7.296038747E-2,1.889165534E-1
2.892096333E0,1.631705727E-2,2.075399029E-1,7.708852172E-2,2.219948149E-1
2.902040333E0,-1.914506312E-3,2.129567635E-1,8.764245361E-2,2.302942642E-1
2.911984333E0,-3.323524486E-2,2.815346628E-1,1.366891909E-1,3.147225489E-1
2.921927333E0,-1.525849197E-2,3.243333578E-1,1.272894993E-1,3.487514376E-1
2.931871333E0,-1.094727592E-2,2.845430553E-1,1.145668352E-1,3.069367246E-1
2.941815333E0,-3.594988782E-2,3.308828241E-1,1.332849419E-1,3.585257500E-1
2.951759333E0,-3.577417899E-2,3.580501574E-1,1.346023196E-1,3.841841896E-1
2.961703333E0,-1.367869307E-2,3.154689789E-1,1.335047972E-1,3.428284034E-1
2.971646333E0,-2.598204793E-2,3.089440709E-1,1.332033733E-1,3.374383565E-1
2.981590333E0,-4.518459650E-2,3.139335001E-1,1.455021143E-1,3.489509356E-1
2.991534333E0,-2.306445178E-2,2.683953846E-1,9.843670607E-2,2.868062700E-1
3.001478333E0,-1.678196574E-3,2.335775542E-1,1.104191127E-1,2.583673173E-1
3.011422333E0,-2.156638599E-2,2.487382150E-1,1.445943341E-1,2.885192022E-1
3.021365333E0,-1.721804925E-2,2.119861257E-1,1.013784403E-1,2.356102011E-1
3.031309333E0,7.406494478E-3,1.823834270E-1,9.626680434E-2,2.063634372E-1
3.041253333E0,1.280668136E-3,1.673572522E-1,8.652914375E-2,1.884074911E-1
3.051197333E0,-7.932634251E-3,1.701405269E-1,5.613882512E-2,1.793384880E-1
3.061141333E0,1.169581088E-2,1.517077643E-1,9.032603323E-2,1.769486649E-1
3.071084333E0,1.776693835E-2,1.510505372E-1,7.250605881E-2,1.684905263E-1
3.081028333E0,1.008952592E-2,1.623912120E-1,6.106656611E-2,1.737867364E-1
3.090972333E0,-3.853388205E-3,1.977288598E-1,9.756225497E-2,2.205219812E-1
3.100916333E0,7.952679237E-3,1.736219591E-1,9.024300277E-2,1.958357203E-1
3.110860333E0,2.787468201E-3,2.269281006E-1,1.003762275E-1,2.481522111E-1
3.120803333E0,1.190716946E-2,2.373057389E-1,7.211371064E-2,2.483066283E-1
3.130747333E0,-5.653069820E-3,2.392873603E-1,1.197755349E-1,2.676501014E-1
3.140691333E0,1.180004664E-3,2.504707450E-1,1.264717662E-1,2.805923986E-1
3.150635333E0,1.879705329E-2,3.001545364E-1,9.611565381E-2,3.157281961E-1
3.160579333E0,4.115096787E-3,2.909428328E-1,1.137710291E-1,3.124236116E-1
3.170523333E0,-1.784353687E-2,3.303349400E-1,1.451468959E-1,3.612577830E-1
3.180466333E0,-1.498079491E-2,3.355611813E-1,1.388924217E-1,3.634787964E-1
3.190410333E0,1.988866450E-3,3.398442668E-1,1.462154746E-1,3.699689801E-1
3.200354334E0,-2.672101722E-2,3.940263212E-1,1.496723485E-1,4.223417650E-1
3.210298333E0,-2.650734717E-2,3.857039791E-1,1.528853935E-1,4.157452856E-1
3.220242333E0,-6.485037245E-3,3.729582185E-1,1.499424899E-1,4.020231818E-1
3.230185333E0,-1.940810560E-2,4.003278655E-1,1.812841505E-1,4.398897790E-1
3.240129333E0,-2.732069487E-2,4.196260160E-1,1.799667728E-1,4.574062232E-1
3.250073334E0,-1.204985065E-2,4.084075481E-1,1.568930751E-1,4.376726645E-1
3.260017333E0,-1.016555800E-2,4.003652877E-1,1.633831921E-1,4.325387492E-1
3.269961333E0,-2.342583711E-2,4.239348292E-1,1.786353618E-1,4.606301138E-1
3.279904333E0,-2.996569200E-2,4.221093285E-1,1.812534526E-1,4.603553432E-1
3.289848333E0,-3.914267770E-2,4.380809981E-1,1.939357710E-1,4.806851291E-1
3.299792333E0,-2.599763442E-3,4.609681696E-1,1.619365910E-1,4.885917228E-1
3.309736333E0,-1.635868214E-3,4.766796380E-1,2.123974773E-1,5.218609410E-1
3.319680333E0,-1.496072251E-2,4.706499892E-1,2.078606227E-1,5.147244642E-1
3.329624333E0,-1.483799494E-2,5.162272811E-1,1.971242577E-1,5.527827284E-1
3.339567333E0,3.796999119E-3,5.307850939E-1,1.952303445E-1,5.655635424E-1
3.349511333E0,8.511271058E-3,5.546189296E-1,2.406521004E-1,6.046387618E-1
3.359455333E0,-9.619674738E-3,6.315466529E-1,2.709181657E-1,6.872702274E-1
3.369399333E0,2.730147215E-3,5.893478823E-1,2.418484408E-1,6.370471320E-1
3.379343333E0,1.222630866E-2,6.386188602E-1,2.637912869E-1,6.910639438E-1
3.389286333E0,-1.668514864E-2,6.933213168E-1,3.040458584E-1,7.572428452E-1
3.399230333E0,4.517348679E-3,6.669714242E-1,2.913246560E-1,7.278333205E-1
3.409174333E0,-8.766237069E-3,6.980604851E-1,3.201736486E-1,7.680341484E-1
3.419118333E0,-1.390024773E-2,7.527904236E-1,3.105818760E-1,8.144616262E-1
3.429062333E0,-5.696101673E-3,7.460655409E-1,3.368920076E-1,8.186222949E-1
3.439005333E0,-1.888250487E-2,7.576371807E-1,3.376790428E-1,8.296974042E-1
3.448949333E0,-1.835089247E-2,7.861522973E-1,3.307576936E-1,8.530960331E-1
3.458893333E0,-5.541716907E-3,7.868709201E-1,3.463261977E-1,8.597315806E-1
3.468837333E0,-1.488593297E-2,8.020830363E-1,3.270014423E-1,8.663075270E-1
3.478781333E0,-1.289999926E-2,8.168706447E-1,3.667437977E-1,8.955138599E-1
3.488724333E0,-1.872727043E-2,8.179336685E-1,3.255425620E-1,8.805362891E-1
3.498668333E0,-2.782332701E-2,8.062702274E-1,3.386859334E-1,8.749594154E-1
3.508612333E0,-1.615340833E-2,8.145569015E-1,3.758259854E-1,8.972229654E-1
3.518556333E0,-2.139709996E-2,8.151638424E-1,3.491547883E-1,8.870507269E-1
3.528500333E0,-1.568744006E-2,8.163508272E-1,3.259811032E-1,8.791691808E-1
3.538444333E0,-3.485743607E-2,8.036033124E-1,3.671998805E-1,8.842109911E-1
3.548387333E0,-2.059360117E-2,7.733287686E-1,3.169971487E-1,8.360315024E-1
3.558331333E0,-2.140168637E-2,7.512865198E-1,3.331035966E-1,8.220994301E-1
3.568275333E0,-1.576294223E-2,7.878316176E-1,3.430836242E-1,8.594378984E-1
3.578219333E0,-6.747211777E-3,7.831900978E-1,3.574554956E-1,8.609336127E-1
3.588163333E0,1.216679497E-2,7.554655248E-1,3.021443439E-1,8.137366863E-1
3.598106333E0,6.232949160E-3,7.553140819E-1,3.022960791E-1,8.135853560E-1
3.608050333E0,-1.007304409E-2,7.881999922E-1,3.095896035E-1,8.468804027E-1
3.617994333E0,4.381528823E-3,7.582710189E-1,3.080658191E-1,8.184733867E-1
3.627938333E0,-3.853031890E-3,7.587715405E-1,3.121267104E-1,8.204707063E-1
3.637882333E0,-2.895183049E-2,8.788511306E-1,3.657877779E-1,9.523750399E-1
3.647825333E0,-4.092979694E-2,1.041736432E0,4.286044157E-1,1.127205300E0
3.657769333E0,-2.042838992E-2,1.024697646E0,4.553349620E-1,1.121495659E0
3.667713333E0,-3.054544344E-2,9.214340633E-1,4.151634210E-1,1.011105545E0
3.677657333E0,-4.870461118E-2,1.076630276E0,4.375459778E-1,1.163164380E0
3.687601333E0,-1.244197955E-2,1.111641650E0,4.723129374E-1,1.207883053E0
3.697545333E0,3.019379737E-2,9.405942196E-1,4.361964405E-1,1.037254301E0
3.707488333E0,2.424922558E-3,9.591918737E-1,4.138758641E-1,1.044676104E0
3.717432333E0,-1.278331990E-2,1.002962376E0,3.489074510E-1,1.061994986E0
3.727376333E0,9.381327610E-3,8.977797371E-1,4.058131385E-1,9.852820759E-1
3.737320333E0,-6.311173942E-3,9.136455721E-1,4.097044605E-1,1.001322030E0
3.747264333E0,-2.448389992E-2,8.945614296E-1,3.635591117E-1,9.659269333E-1
3.757207333E0,-2.021144908E-2,8.255321252E-1,3.437855825E-1,8.944832694E-1
3.767151333E0,-3.793360141E-2,8.608259189E-1,4.024732089E-1,9.510230831E-1
3.777095333E0,-2.831649397E-2,8.456161416E-1,4.229878727E-1,9.459319337E-1
3.787039333E0,-3.565373548E-2,8.127851951E-1,3.605381477E-1,8.898756757E-1
3.796982708E0,-3.203101994E-2,8.956840950E-1,3.356073743E-1,9.570309786E-1
3.806925708E0,-5.061386414E-3,9.077387148E-1,3.669098586E-1,9.791006263E-1
3.816869708E0,-2.810299750E-3,8.341743100E-1,3.700635543E-1,9.125797014E-1
3.826813708E0,-1.829163459E-2,9.052858078E-1,3.665154639E-1,9.768370197E-1
3.836757708E0,-2.940778540E-2,9.480763167E-1,3.474032548E-1,1.010149762E0
3.846701708E0,-1.769317207E-2,9.361819106E-1,3.945034540E-1,1.016062298E0
3.856644708E0,-2.352961605E-2,9.402422172E-1,4.058406204E-1,1.024361108E0
3.866588708E0,-9.411184955E-3,8.913822985E-1,3.819769639E-1,9.698233722E-1
3.876532708E0,7.171345046E-3,8.963144249E-1,3.695750195E-1,9.695445691E-1
3.886476708E0,1.603407945E-2,9.211802942E-1,3.592055672E-1,9.888674661E-1
3.896420708E0,-1.429745640E-2,8.615737778E-1,3.642955685E-1,9.355346349E-1
3.906364708E0,-3.893496450E-3,8.535116369E-1,3.853549004E-1,9.364804711E-1
3.916307708E0,3.291068785E-4,8.949473459E-1,3.909518552E-1,9.766136458E-1
3.926251708E0,9.776398391E-3,8.540279460E-1,3.838954353E-1,9.363946902E-1
3.936195708E0,-5.062482767E-3,8.462318534E-1,3.444027561E-1,9.136450278E-1
3.946139708E0,-2.494322612E-2,8.875623125E-1,3.662117010E-1,9.604686528E-1
3.956083708E0,-2.270134882E-2,9.243687809E-1,4.397515476E-1,1.023891800E0
3.966026708E0,-9.726788420E-3,9.270848125E-1,4.135016423E-1,1.015167212E0
3.975970708E0,-1.495594424E-2,8.786570030E-1,4.011254257E-1,9.660038387E-1
3.985914708E0,-2.461453951E-2,9.270924139E-1,4.006915623E-1,1.010277164E0
3.995858708E0,-1.549835572E-2,9.955276412E-1,4.506261992E-1,1.092876688E0
4.005802708E0,2.281309459E-3,9.708406967E-1,4.493965298E-1,1.069810312E0
4.015745708E0,-6.138544036E-3,8.685576922E-1,3.662801135E-1,9.426511910E-1
4.025689708E0,-2.239075203E-2,8.635723561E-1,3.312231320E-1,9.251850211E-1
4.035633708E0,9.956967719E-3,9.158973348E-1,4.223970115E-1,1.008655692E0
4.045577708E0,2.440650654E-2,8.919898242E-1,3.733441347E-1,9.672783296E-1
4.055521708E0,-6.349263070E-3,8.837797487E-1,3.523280722E-1,9.514420780E-1
4.065465708E0,-2.173802918E-2,8.544536233E-1,3.177932471E-1,9.118969702E-1
4.075408708E0,7.870196952E-3,7.949827623E-1,3.416276675E-1,8.653143912E-1
4.085352708E0,5.304329088E-3,8.484011704E-1,3.796883637E-1,9.295030583E-1
4.095296708E0,-2.987322377E-2,9.594333637E-1,3.785744691E-1,1.031854359E0
4.105240708E0,-7.007475914E-2,8.301023090E-1,3.427263594E-1,9.008005732E-1
4.115184708E0,-3.568164680E-2,7.592703080E-1,3.520789808E-1,8.376897930E-1
4.125127708E0,-1.596933067E-2,9.127334064E-1,4.317087024E-1,1.009806761E0
4.135071708E0,-2.358168368E-2,9.680691165E-1,4.019539762E-1,1.048465979E0
4.145015708E0,-5.217856991E-2,8.757485980E-1,3.077670264E-1,9.297197172E-1
4.154959708E0,-3.889689364E-2,8.795329159E-1,2.896997148E-1,9.268317233E-1
4.164903709E0,-1.010870297E-2,9.102074093E-1,4.136717963E-1,9.998520235E-1
4.174846708E0,2.747067595E-2,9.738987905E-1,4.366922843E-1,1.067676750E0
4.184790708E0,4.153533094E-3,8.613580155E-1,3.796003631E-1,9.413029897E-1
4.194734708E0,-3.248904878E-3,8.228739810E-1,3.408622670E-1,8.906846968E-1
4.204678708E0,1.434676487E-2,1.008818362E0,4.225203878E-1,1.093820733E0
4.214622709E0,1.911817507E-2,1.019719911E0,4.458639345E-1,1.113098760E0
4.224566708E0,9.173358595E-3,7.165756935E-1,4.468149841E-1,8.445167287E-1
4.234509708E0,-1.968383837E-2,8.288650382E-1,3.847029358E-1,9.140027647E-1
4.244453708E0,-4.298872948E-3,1.103638566E0,3.670186168E-1,1.163073183E0
4.254397708E0,2.966823318E-2,8.995105129E-1,3.309763795E-1,9.589289498E-1
4.264341708E0,-8.594146203E-3,6.720216644E-1,3.633635223E-1,7.640157237E-1
4.274285708E0,-5.456460848E-2,8.923979598E-1,4.031573331E-1,9.807585077E-1
4.284228708E0,-1.838328056E-2,1.038030467E0,3.957091498E-1,1.111049471E0
4.294172708E0,1.412690956E-2,8.219021738E-1,3.547879958E-1,8.953196495E-1
4.304116708E0,-2.681719478E-2,7.648292559E-1,3.810846788E-1,8.549318599E-1
4.314060708E0,-5.616195817E-2,9.920222354E-1,4.281647050E-1,1.081936826E0
4.324004708E0,-4.073684796E-2,9.340073311E-1,3.513626969E-1,9.987416734E-1
4.333947708E0,-4.693534423E-2,6.947421902E-1,3.343806285E-1,7.724506729E-1
4.343891708E0,-4.550014514E-2,9.016336370E-1,4.349141461E-1,1.002079734E0
4.353835708E0,3.328353921E-3,1.097780825E0,4.489962879E-1,1.186057117E0
4.363779708E0,3.225524238E-2,7.890519315E-1,3.413896859E-1,8.603431111E-1
4.373723708E0,-3.915088207E-2,8.629700929E-1,3.642058137E-1,9.374945587E-1
4.383666708E0,-6.952135672E-2,1.126987082E0,4.456464180E-1,1.213892019E0
4.393610708E0,2.635737523E-2,8.594670260E-1,4.011844826E-1,9.488557683E-1
4.403554708E0,3.907430182E-2,7.650993973E-1,3.774535578E-1,8.540345878E-1
4.413498708E0,-4.349793060E-2,1.127960644E0,4.397500858E-1,1.211431972E0
4.423442708E0,-4.161767618E-2,9.369192445E-1,3.451710802E-1,9.993461744E-1
4.433386708E0,2.935941797E-3,6.864116621E-1,3.454359591E-1,7.684371096E-1
4.443329708E0,-1.324677570E-3,1.043586491E0,4.667072117E-1,1.143192959E0
4.453273708E0,-3.061285087E-2,9.362333661E-1,3.268102384E-1,9.921063423E-1
4.463217708E0,-5.029784954E-2,6.947749346E-1,2.329095098E-1,7.344990968E-1
4.473161708E0,-1.955751110E-2,1.028543360E0,4.722863325E-1,1.131962154E0
4.483105708E0,1.915712301E-3,9.906194884E-1,5.134346509E-1,1.115771384E0
4.493048708E0,-2.304199481E-2,6.452893639E-1,3.323808807E-1,7.262274757E-1
4.502992708E0,-5.122692643E-2,9.795144564E-1,3.504215875E-1,1.041569996E0
4.512936708E0,3.131501011E-2,9.927987456E-1,3.684105465E-1,1.059413191E0
4.522880708E0,3.819674439E-2,6.878056383E-1,3.404588091E-1,7.684060047E-1
4.532824708E0,-5.093628326E-2,1.007838954E0,3.156818175E-1,1.057349929E0
4.542767708E0,3.770430833E-3,8.869881159E-1,2.943301249E-1,9.345546299E-1
4.552711708E0,2.180305204E-2,7.391453612E-1,3.309547448E-1,8.101495425E-1
4.562655708E0,-3.629395992E-2,1.130805314E0,4.690838125E-1,1.224776524E0
4.572599708E0,-1.648892887E-2,9.193185407E-1,4.025597477E-1,1.003729453E0
4.582543708E0,-2.216615500E-3,7.022196096E-1,3.348706251E-1,7.779817666E-1
4.592487708E0,-5.609305238E-2,1.085961848E0,3.789527839E-1,1.151548860E0
4.602430708E0,-1.759541393E-2,9.290155631E-1,4.552566093E-1,1.034716432E0
4.612374708E0,-3.294446466E-2,7.395032108E-1,4.288423973E-1,8.554859077E-1
4.622318708E0,-6.215977617E-2,1.005987725E0,3.704380685E-1,1.073824708E0
4.632262708E0,-1.706592115E-2,9.543725985E-1,3.697676852E-1,1.023643709E0
4.642206708E0,-5.072185490E-2,8.494355428E-1,4.039095774E-1,9.419428829E-1
4.652149708E0,-7.946294809E-2,9.494194221E-1,4.319221258E-1,1.046072809E0
4.662093708E0,-1.693681645E-2,9.948926336E-1,4.381359619E-1,1.087226439E0
4.672037708E0,3.975128149E-2,8.725647891E-1,3.603802729E-1,9.448933361E-1
4.681981708E0,-2.836574762E-2,8.747861463E-1,3.846906567E-1,9.560556044E-1
4.691925708E0,-4.132303133E-2,1.041615395E0,4.618984616E-1,1.140184377E0
4.701868708E0,2.842593740E-2,8.656510413E-1,4.051506490E-1,9.561939173E-1
4.711812708E0,5.273068411E-2,7.667266774E-1,3.352670664E-1,8.384833503E-1
4.721756708E0,3.129795268E-3,1.023466807E0,3.013766044E-1,1.066921721E0
4.731700708E0,3.755056310E-2,9.116288674E-1,3.726094320E-1,9.855531571E-1
4.741644708E0,4.425794072E-2,8.716654873E-1,4.040426016E-1,9.617743555E-1
4.751587708E0,2.118694738E-2,9.704992193E-1,3.509528071E-1,1.032223568E0
4.761531708E0,-1.940243198E-3,9.398218024E-1,3.814653325E-1,1.014290188E0
4.771475708E0,-7.511625588E-3,8.723022491E-1,3.671943256E-1,9.464667511E-1
4.781419708E0,-1.633894779E-2,8.295643651E-1,4.021855259E-1,9.220613832E-1
4.791365250E0,-1.051260852E-2,9.223906678E-1,4.218172601E-1,1.014319900E0
4.801309250E0,-2.696634446E-2,9.840600818E-1,3.402360302E-1,1.041567081E0
4.811252250E0,-1.013500721E-1,8.866764593E-1,3.694142210E-1,9.658850073E-1
4.821196250E0,-7.402962394E-2,8.192908072E-1,4.540555912E-1,9.396192271E-1
4.831140250E0,-1.271037589E-2,9.399440092E-1,4.619005081E-1,1.047381675E0
4.841084250E0,-3.442274127E-2,9.102857620E-1,3.784867609E-1,9.864366790E-1
4.851028250E0,-4.548562760E-2,7.577202111E-1,2.411532068E-1,7.964695411E-1
4.860971250E0,-3.239053234E-2,8.731436634E-1,3.572812486E-1,9.439697528E-1
4.870915250E0,-1.324043512E-2,8.586735588E-1,3.841772711E-1,9.407910317E-1
4.880859250E0,-2.886091542E-2,7.037118191E-1,2.897254425E-1,7.615668774E-1
4.890803250E0,-1.123051870E-2,8.018041241E-1,2.460499576E-1,8.387827845E-1
4.900747250E0,1.523588883E-2,8.883008158E-1,3.375784707E-1,9.504050166E-1
4.910690250E0,4.490545590E-2,7.645439118E-1,4.271484590E-1,8.769262791E-1
4.920634250E0,-2.848927919E-3,5.248109937E-1,2.306589165E-1,5.732697718E-1
4.930578250E0,-2.430385136E-2,2.153880358E-2,-4.098167270E-2,5.228857187E-2
4.940522250E0,-3.680858798E-2,1.634606677E-1,6.885096431E-2,1.811483296E-1
4.950466250E0,3.888244006E-2,3.084067118E-1,1.176793081E-1,3.323777423E-1
4.960410250E0,-5.052725226E-4,-4.532182699E-1,-5.886275053E-2,4.570250309E-1
4.970353250E0,-7.126903466E-2,-4.540626079E-1,-1.553453171E-1,4.851641936E-1
4.980297250E0,-1.814403808E-2,-1.056907618E-1,-2.323987556E-1,2.559471133E-1
4.990241250E0,-3.109284332E-3,-4.907386833E-1,-1.817513430E-1,5.233236796E-1
5.000185250E0,-3.672056912E-2,-4.198406088E-1,-1.525772452E-1,4.482123970E-1
5.010129250E0,-1.305551693E-2,-2.148325503E-1,-1.187347305E-1,2.458076634E-1
5.020072250E0,-9.235731941E-3,-3.885977662E-1,-2.150395417E-1,4.442246359E-1
5.030016250E0,2.956315689E-3,-2.715394324E-1,-1.044222084E-1,2.909405451E-1
5.039960250E0,2.542093450E-2,5.095322192E-2,4.211807907E-2,7.082645917E-2
5.049904250E0,-1.908129193E-3,-1.258695030E-1,-7.776504457E-3,1.261239342E-1
5.059848250E0,-2.217417665E-2,3.244035244E-2,-2.783596247E-2,4.815507640E-2
5.069791250E0,1.068999843E-2,1.786757076E-1,6.043565154E-2,1.889226099E-1
5.079735250E0,5.171172456E-2,2.983132482E-2,7.636522114E-2,9.693119930E-2
5.089679250E0,-3.988246012E-2,5.731148422E-2,1.390885958E-1,1.556305058E-1
5.099623250E0,-4.710530634E-2,2.277391094E-1,6.860216528E-2,2.424670471E-1
5.109567250E0,1.748528528E-2,7.081679821E-2,1.073437697E-1,1.297822754E-1
5.119511250E0,3.579195818E-2,3.337005973E-2,4.169298649E-2,6.428787039E-2
5.129454250E0,-2.167291495E-2,3.193515301E-2,-2.731760681E-2,4.728446766E-2
5.139398250E0,-3.343580436E-2,-1.341123229E-1,4.313958764E-2,1.447932740E-1
5.149342250E0,-3.146577691E-2,-5.389963388E-2,-4.467857480E-2,7.675572093E-2
5.159286250E0,-6.925548200E-2,-6.789319038E-2,-7.330946624E-2,1.215733726E-1
5.169230250E0,5.344601786E-3,-2.330132979E-1,-7.020137876E-2,2.434173276E-1
5.179173250E0,2.205355042E-2,-2.894026762E-1,-5.982637167E-2,2.963434879E-1
5.189117250E0,5.627177618E-3,-1.264360982E-1,-4.684321404E-2,1.349519869E-1
5.199061250E0,2.457268624E-2,-2.163727069E-1,-1.114262956E-1,2.446155853E-1
5.209005250E0,-2.457308823E-2,-1.561879009E-1,-9.333296388E-2,1.836015773E-1
5.218949250E0,-5.792046259E-2,-1.360693860E-1,6.279383361E-2,1.606633852E-1
5.228892250E0,4.045990007E-3,-1.401869953E-2,5.698111653E-3,1.566404954E-2
5.238836250E0,3.010821789E-2,-4.937155008E-2,4.759516597E-2,7.489562447E-2
5.248780250E0,-1.994612253E-2,4.897043109E-2,-5.792222589E-2,7.842789795E-2
5.258724250E0,3.022606669E-2,1.903151751E-2,3.383783698E-3,3.587845814E-2
5.268668250E0,-3.559368275E-2,9.779058874E-2,1.012205654E-1,1.451740761E-1
5.278612250E0,1.877351825E-2,4.380733967E-3,-3.106040955E-3,1.952647710E-2
5.288555250E0,5.419811597E-3,3.988034964E-2,-3.280287981E-2,5.192153280E-2
5.298499250E0,1.771569299E-2,7.925316095E-3,-8.067695796E-3,2.101770988E-2
5.308443250E0,7.653913926E-3,-1.824214339E-2,2.629142046E-2,3.290284158E-2
5.318387250E0,-8.327604532E-3,4.919145584E-2,8.897708058E-3,5.067857075E-2
5.328331250E0,-1.140753401E-2,-5.098538160E-2,-2.634463012E-2,5.851222527E-2
5.338274250E0,2.802819883E-2,-1.115368080E-1,-5.571577907E-2,1.277900133E-1
5.348218250E0,-3.804534718E-2,-8.576871336E-2,1.420054793E-2,9.489666061E-2
5.358162250E0,-3.460240611E-2,-4.718644559E-2,-1.174308014E-1,1.312016779E-1
5.368106250E0,1.672000352E-2,-1.210204071E-1,-2.303627551E-2,1.243228355E-1
5.378050250E0,-4.095521405E-2,2.012845516E-2,-3.783499360E-2,5.927875679E-2
5.387993250E0,-2.446849616E-2,-4.002536058E-2,2.146454394E-2,5.158937333E-2
5.397937250E0,-1.095195369E-2,1.946421146E-2,-6.858199239E-2,7.212690550E-2
5.407881250E0,-7.054793593E-3,1.395204127E-2,-8.887767792E-5,1.563449607E-2
5.417825250E0,-1.806393122E-2,9.571248829E-2,5.970825791E-2,1.142464971E-1
5.427769250E0,-3.209877455E-2,1.111573237E-1,6.563558042E-2,1.330199660E-1
5.437713250E0,-9.061581759E-2,1.705299515E-1,4.167427540E-2,1.975561590E-1
5.447656250E0,1.154553744E-2,7.021511972E-2,4.892043740E-2,8.635202179E-2
5.457600250E0,2.424453867E-2,1.105240703E-1,5.403411984E-3,1.132809102E-1
5.467544250E0,-2.492992370E-2,7.538347363E-2,6.624252141E-2,1.034032922E-1
5.477488250E0,3.197713419E-2,-1.057878256E-2,-2.369291782E-3,3.376479372E-2
5.487432250E0,-9.374411451E-3,1.976358891E-3,-3.577911258E-2,3.703957993E-2
5.497375250E0,-4.100497020E-2,-4.739577591E-2,3.908161998E-2,7.385892076E-2
5.507319250E0,2.191611344E-2,-4.788694203E-2,1.980832011E-2,5.626584035E-2
5.517263250E0,-1.020719200E-2,-1.292135257E-1,1.394034684E-2,1.303635503E-1
5.527207250E0,-6.158430965E-2,-9.271403611E-2,-6.967659116E-2,1.313139255E-1
5.537151250E0,6.212800020E-2,-1.946234035E-1,-2.028457582E-2,2.053037302E-1
5.547094250E0,-6.454174910E-3,-1.170899087E-1,-4.474932611E-2,1.255157571E-1
5.557038250E0,-3.026385432E-2,-1.459576124E-1,-2.482961655E-2,1.511159666E-1
5.566982250E0,4.071217088E-2,-6.129811585E-2,-6.717983007E-2,9.963969808E-2
5.576926250E0,3.935603712E-2,-5.392360747E-2,-3.523824513E-2,7.548766137E-2
5.586870250E0,-9.149238830E-3,7.981449366E-3,-2.347247779E-2,2.642667817E-2
5.596813250E0,1.095893380E-2,4.248586893E-2,5.552925289E-2,7.077178262E-2
5.606757250E0,1.208729111E-2,6.924155831E-2,-2.048425823E-2,7.321270955E-2
5.616701250E0,5.678797569E-3,2.935068369E-2,6.113468617E-2,6.805263572E-2
5.626645250E0,-2.817878290E-2,8.213349938E-2,2.138326764E-2,8.942706336E-2
5.636589250E0,3.822799958E-4,8.474311173E-2,9.472196996E-3,8.527170480E-2
5.646533250E0,-1.370967418E-2,9.689011753E-2,1.378454778E-1,1.690474069E-1
5.656476250E0,-1.761422552E-2,1.042184329E-1,3.981369138E-2,1.129463267E-1
5.666420250E0,-4.834902738E-2,5.981350780E-2,4.290102124E-2,8.806691653E-2
5.676364250E0,9.664177531E-3,7.841817856E-2,-2.524213761E-2,8.294560005E-2
5.686308250E0,-1.328415220E-2,-2.704629600E-2,-4.584450960E-2,5.486064060E-2
5.696252250E0,-1.189543848E-2,-4.404356718E-2,1.161958694E-2,4.707814851E-2
5.706195250E0,-1.320429202E-3,-2.144758701E-2,1.837253630E-2,2.827176351E-2
5.716139250E0,-8.401177123E-2,1.786909103E-2,-8.447472453E-3,8.630551495E-2
5.726083250E0,-2.295145433E-2,-1.610557079E-1,-6.087243855E-2,1.736984861E-1
5.736027250E0,5.481151630E-2,-1.174103361E-1,-5.778861701E-2,1.418767550E-1
5.745971250E0,2.476241925E-2,-1.213186151E-1,3.475292623E-3,1.238687266E-1
5.755915250E0,-2.265648058E-2,-1.079051024E-1,-9.697110146E-2,1.468339938E-1
5.765858250E0,-1.693172755E-2,-1.048171878E-1,-7.953207314E-2,1.326600049E-1
5.775802250E0,-3.227627409E-2,-4.671048224E-2,4.352258027E-2,7.153909430E-2
5.785746250E0,3.881429259E-2,-2.146922171E-2,5.719161630E-3,4.472343457E-2
5.795688958E0,-3.563410163E-2,-5.714776218E-2,4.777175188E-2,8.256994731E-2
5.805632958E0,-5.135919227E-2,2.856014013E-2,-3.858869970E-3,5.889260661E-2
5.815575958E0,6.957667686E-2,4.525569499E-2,1.157924116E-2,8.380376315E-2
5.825519958E0,7.723176023E-3,7.800711930E-2,1.659966052E-2,8.012681722E-2
5.835463958E0,-4.296641869E-2,-2.721060276E-2,1.049955279E-2,5.193044046E-2
5.845407958E0,3.717250407E-2,8.145405293E-2,-5.518426716E-2,1.051753828E-1
5.855351958E0,8.896716773E-2,4.396872282E-2,-7.125767827E-2,1.221722646E-1
5.865294958E0,1.904640050E-2,6.337738574E-2,-1.986123741E-2,6.909361147E-2
5.875238958E0,-1.129837381E-2,2.155049801E-2,3.068150997E-2,3.915906369E-2
5.885182958E0,-1.885660353E-2,3.268710494E-2,-3.488448858E-2,5.139013397E-2
5.895126958E0,-1.718026162E-2,1.777553558E-4,4.476920664E-3,1.775488116E-2
5.905070958E0,-2.440718262E-2,4.390732706E-2,-4.646957695E-2,6.843234261E-2
5.915013958E0,-3.373534625E-2,-9.986459613E-2,-6.582444549E-2,1.242733631E-1
5.924957958E0,-5.116837204E-2,-1.989807487E-3,-4.246832728E-3,5.138284947E-2
5.934901958E0,-1.649711497E-2,5.349032879E-3,-3.225441098E-2,3.662122312E-2
5.944845958E0,-2.695401049E-2,-9.778298736E-2,4.639297843E-2,1.115362710E-1
5.954789958E0,-2.112550593E-2,-2.069037259E-2,-9.604577959E-2,1.004946282E-1
5.964733958E0,-2.845272495E-2,6.126127839E-3,-7.387138367E-2,7.939816323E-2
5.974676958E0,3.347713687E-3,-8.299713314E-2,-2.238138735E-2,8.602707594E-2
5.984620958E0,-1.943390644E-2,-5.320966244E-3,2.367537618E-2,3.108878959E-2
5.994564958E0,-6.135001902E-2,3.312506139E-2,-1.981796801E-2,7.248342143E-2
6.004508958E0,-1.408973406E-2,-8.297315955E-2,3.362441361E-2,9.062928336E-2
6.014452958E0,4.935861312E-2,7.917714715E-3,-6.714942455E-3,5.043860969E-2
6.024395958E0,4.886392954E-2,-8.124706149E-3,4.498993903E-2,6.691628407E-2
6.034339958E0,9.579301542E-3,1.074718237E-2,-7.433682203E-2,7.571808276E-2
6.044283958E0,7.920684004E-3,-9.587036312E-2,-2.416391104E-2,9.918547452E-2
6.054227958E0,2.945808973E-3,-3.724384010E-2,5.013344228E-2,6.252314332E-2
6.064171958E0,3.989352414E-2,-7.325099409E-2,3.056836635E-2,8.883482664E-2
6.074115958E0,4.224686399E-2,-1.858829856E-2,-3.544085115E-2,5.819257934E-2
6.084058958E0,-2.966743832E-2,-8.138622522E-2,-6.016814142E-2,1.054707533E-1
6.094002958E0,-1.519453896E-1,-5.799034595E-2,6.650389194E-2,1.757072830E-1
6.103946958E0,-3.394218054E-1,-8.498752534E-2,2.021060854E-1,4.040753782E-1
6.113890958E0,-1.697784381E-1,-1.080898744E-1,9.977104068E-2,2.246383750E-1
6.123834958E0,-1.141668856E-3,-2.103184998E-2,-3.209127367E-2,3.838609080E-2
6.133777958E0,-4.744850135E-2,6.042512655E-3,-8.479690611E-2,9.735701067E-2
6.143721958E0,-8.408747440E-2,-7.473618686E-2,-3.341040552E-2,1.173561084E-1
6.153665958E0,8.934801333E-3,-7.409065425E-2,6.011873245E-2,9.583067210E-2
6.163609958E0,5.458057869E-2,2.466063201E-2,6.780051202E-2,9.046599235E-2
6.173553958E0,3.143761891E-2,-5.216184139E-2,2.740882337E-2,6.678641463E-2
6.183496958E0,1.334262435E-2,-9.974765182E-3,-1.067204565E-2,1.978418872E-2
6.193440958E0,4.495441720E-2,5.621747017E-2,8.214928687E-2,1.092236646E-1
6.203384958E0,1.071726107E-2,2.815960586E-2,7.137930036E-2,7.747791689E-2
6.213328958E0,7.418700540E-3,-4.507735491E-2,3.890737295E-2,6.000657225E-2
6.223272958E0,4.366095828E-2,6.133904636E-2,-1.996882617E-2,7.789423538E-2
6.233215958E0,5.051177541E-2,-8.004838228E-4,-1.309989730E-1,1.404023189E-1
6.243159958E0,-1.155220692E-2,-3.226318181E-2,-2.839817226E-2,4.450643294E-2
6.253103958E0,-2.247412054E-2,-4.928501129E-2,1.646692872E-2,5.661499954E-2
6.263047958E0,6.344932476E-3,2.373969555E-2,-5.592072397E-2,6.108157400E-2
6.272991958E0,-5.459757216E-2,-7.161318898E-2,-9.584755898E-3,9.056053924E-2
6.282935958E0,-4.362137080E-2,-4.873946607E-2,-3.736663163E-3,6.551581637E-2
6.292878958E0,3.796334912E-2,-1.224465430E-2,4.633918405E-4,3.989188097E-2
6.302822958E0,3.685944049E-2,-9.759119868E-2,-2.260738224E-2,1.067415296E-1
6.312766958E0,-4.557614981E-2,-4.361672044E-2,-8.143183351E-2,1.030084814E-1
6.322710958E0,1.853158970E-2,-6.950000525E-2,-4.838161647E-2,8.668593518E-2
6.332654958E0,8.645358676E-2,-5.587073028E-2,4.246364951E-2,1.113504499E-1
6.342597958E0,2.205058113E-3,5.540236831E-3,6.587473154E-3,8.885454855E-3
6.352541958E0,-2.935230081E-2,3.829926252E-2,-7.373338938E-2,8.811925886E-2
6.362485958E0,1.937835789E-2,-8.763631403E-2,-7.502416223E-2,1.169797812E-1
6.372429958E0,-1.253940878E-2,5.696357489E-3,4.035280466E-2,4.263841115E-2
6.382373958E0,-7.290958065E-2,2.903902709E-2,7.405206263E-2,1.079017147E-1
6.392317958E0,-2.078903521E-2,-6.555898190E-2,-5.348974407E-2,8.712816314E-2
6.402260958E0,-4.053039556E-2,-1.183301032E-2,-4.313023210E-2,6.035685560E-2
6.412204958E0,-3.465952610E-2,6.000003397E-2,-1.801351726E-2,7.159450838E-2
6.422148958E0,3.876064438E-4,-9.051138997E-2,-1.700574964E-2,9.209591454E-2
6.432092958E0,-3.592986111E-2,2.384319127E-2,-3.614573300E-2,5.626692370E-2
6.442036958E0,-5.785060664E-2,3.384602308E-2,-1.280013978E-2,6.823554459E-2
6.451979958E0,-6.316194325E-2,-1.005744481E-1,-1.361991942E-2,1.195414275E-1
6.461923959E0,-1.832382169E-2,-7.272299051E-2,1.859122217E-3,7.501901176E-2
6.471867958E0,-4.646628790E-2,3.826300979E-2,1.891457319E-2,6.309465039E-2
6.481811958E0,-4.571568813E-2,-7.261832535E-2,-2.427763939E-3,8.584427387E-2
6.491755958E0,-6.552998336E-2,-1.042090774E-2,6.909274668E-2,9.579447625E-2
6.501698958E0,6.677364958E-3,-3.396062851E-3,9.591450959E-2,9.620661930E-2
6.511642959E0,-3.725306774E-3,-2.679252684E-2,2.035532713E-2,3.385345991E-2
6.521586958E0,-4.084307542E-3,-2.924543381E-2,-3.979907334E-3,2.979625193E-2
6.531530958E0,4.660527804E-2,-5.215599418E-2,-2.709482789E-2,7.500952852E-2
6.541474958E0,3.924247323E-2,4.634620070E-2,-2.531552017E-2,6.579375036E-2
6.551418958E0,1.012144807E-2,-5.244309247E-2,9.068739116E-2,1.052469694E-1
6.561361958E0,4.598234857E-2,-7.727680206E-3,2.328332037E-2,5.211723735E-2
6.571305958E0,9.060154673E-2,-2.702232242E-2,-1.153655648E-3,9.455250975E-2
6.581249958E0,2.990351966E-2,-1.473205984E-2,-4.796646416E-2,5.841263356E-2
6.591193958E0,-1.363345938E-2,-9.090666175E-2,1.089482456E-2,9.256667633E-2
6.601137958E0,-1.816062955E-3,-3.073588908E-2,2.916006446E-2,4.240639482E-2
6.611080958E0,1.026955621E-2,-9.807125509E-2,1.015193582E-2,9.912868737E-2
6.621024958E0,-7.278394774E-3,-8.106053531E-2,-3.192872107E-2,8.742556059E-2
6.630968958E0,-3.122761250E-2,-8.716327429E-2,2.415484786E-3,9.261983985E-2
6.640912958E0,-4.459218219E-2,-5.832305253E-2,-2.044683605E-2,7.621098525E-2
6.650856958E0,-6.846747832E-2,-2.638263702E-3,-1.109801531E-2,6.941125245E-2
6.660799958E0,-1.494115261E-2,-6.076660395E-2,-6.033741832E-3,6.286671804E-2
6.670743958E0,-2.557074199E-2,-4.877221048E-2,-3.825833201E-2,6.705439083E-2
6.680687958E0,2.097462036E-2,-1.886194825E-2,-3.549259901E-2,4.533687655E-2
6.690631958E0,-9.037557011E-3,-2.662763536E-2,-5.948284775E-2,6.579451024E-2
6.700575958E0,-4.072265932E-3,-3.128903568E-2,-8.613942683E-2,9.173651376E-2
6.710519958E0,1.210592911E-2,2.901037574E-2,-3.905618459E-2,5.013522688E-2
6.720462958E0,2.765851775E-2,-2.511729956E-2,9.431880444E-2,1.014490474E-1
6.730406958E0,-2.698900242E-2,5.615081191E-3,-3.805017114E-2,4.698670995E-2
6.740350958E0,1.031051413E-2,4.584801793E-3,-5.681096256E-2,5.792074392E-2
6.750294958E0,-1.633135554E-2,2.422559917E-2,-3.607849002E-2,4.642467309E-2
6.760238958E0,-2.919160288E-2,-3.540547550E-2,4.638362288E-2,6.524674586E-2
6.770181958E0,-1.074523634E-2,3.628431201E-2,3.675208926E-2,5.275156365E-2
6.780125958E0,-2.148719276E-2,4.775654912E-2,-7.658683062E-3,5.292487943E-2
6.790069958E0,-3.829752663E-2,6.400946975E-3,-4.423213989E-2,5.885707151E-2
6.800014250E0,9.234535089E-3,-9.065581620E-2,-3.061894476E-2,9.613154231E-2
6.809958250E0,-2.269475243E-2,1.299836040E-2,-7.981566310E-2,8.399136406E-2
6.819901250E0,-7.892769031E-2,-4.211690962E-2,-3.528326869E-2,9.616820381E-2
6.829845250E0,1.847898304E-2,-5.503516316E-2,-3.397027642E-2,6.726307812E-2
6.839789250E0,4.688446431E-2,1.907946467E-3,-3.291982412E-2,5.731935165E-2
6.849733250E0,2.009224811E-2,-6.967834532E-2,2.794092000E-2,7.771399649E-2
6.859677250E0,-7.544406541E-3,-1.023081475E-1,-5.798566818E-2,1.178397761E-1
6.869621250E0,8.586553959E-3,-6.603319108E-2,8.577280641E-3,6.713926554E-2
6.879564250E0,5.941913137E-3,-5.368328691E-3,7.799016237E-3,1.117810086E-2
6.889508250E0,-1.258484348E-2,-5.113740921E-2,-8.686038852E-3,5.337471477E-2
6.899452250E0,-9.403236397E-3,-3.614573300E-2,2.530791879E-2,4.511569153E-2
6.909396250E0,4.498756360E-3,-1.032325923E-1,-8.912326097E-3,1.037142058E-1
6.919340250E0,-1.487340714E-2,7.728264928E-3,-1.874149561E-2,2.514334855E-2
6.929283250E0,-1.966964060E-2,-5.478548706E-2,6.630011648E-2,8.822726222E-2
6.939227250E0,-7.361708460E-3,-6.346860230E-2,2.753424615E-2,6.957436985E-2
6.949171250E0,9.206623770E-5,3.200298071E-2,1.622543871E-2,3.588125014E-2
6.959115250E0,4.258952910E-2,-9.538562894E-3,-5.071407080E-2,6.690866273E-2
6.969059250E0,7.817243105E-3,-5.599001348E-2,-3.179978997E-2,6.486306762E-2
6.979002250E0,1.259786267E-2,3.798936009E-2,-3.180242121E-2,5.112036404E-2
6.988946250E0,2.435733511E-2,-7.354978681E-2,3.344314992E-2,8.438776683E-2
6.998890250E0,-2.031229528E-2,-7.168160141E-2,4.066913903E-2,8.488121222E-2
7.008834250E0,-2.537364515E-2,-2.167738259E-2,-3.510054320E-2,4.843324186E-2
7.018778250E0,2.130864255E-2,-9.141478479E-2,-1.358863682E-2,9.484393589E-2
7.028722250E0,-2.284497106E-2,-6.922050834E-2,1.430872142E-2,7.428398876E-2
7.038665250E0,-3.589033758E-2,-3.246783435E-2,3.573788971E-2,6.016205914E-2
7.048609250E0,-4.412327204E-2,-2.737257063E-2,6.019182265E-2,7.949324671E-2
7.058553250E0,-4.141157096E-2,-2.617213726E-2,-2.013488710E-2,5.296520232E-2
7.068497250E0,1.029743099E-2,-6.454741359E-2,-1.880376846E-2,6.801461162E-2
7.078441250E0,3.594879147E-2,-8.484543800E-2,-5.511059225E-2,1.073696481E-1
7.088384250E0,-5.079053228E-2,4.339744985E-2,-3.740580797E-2,7.656507881E-2
7.098328250E0,-3.037056601E-2,-2.928870320E-3,3.350045264E-2,4.531257980E-2
7.108272250E0,5.816812872E-2,-9.173170388E-2,-4.296884894E-2,1.168099254E-1
7.118216250E0,2.218869419E-2,-3.777769089E-2,4.608132184E-2,6.358443442E-2
7.128160250E0,-1.572998769E-2,3.024589241E-2,1.943029761E-2,3.924006862E-2
7.138104250E0,2.029454350E-2,-8.494250178E-2,-8.044277698E-2,1.187355780E-1
7.148047250E0,1.398763619E-3,-2.446065724E-2,3.764262021E-2,4.491377459E-2
7.157991250E0,-1.890739208E-2,-1.884499133E-2,3.437461138E-2,4.352283402E-2
7.167935250E0,-3.339199592E-2,-8.335907578E-2,-4.484814405E-3,8.991036908E-2
7.177879250E0,-2.715503594E-2,1.138043582E-2,5.560702085E-4,2.944859098E-2
7.187823250E0,1.441889576E-2,-4.685373902E-3,-1.096516657E-1,1.106948286E-1
7.197766250E0,-5.413812719E-2,-4.843365669E-2,2.764183491E-2,7.772275699E-2
7.207710250E0,-5.492962092E-2,-3.012310088E-2,-9.298242331E-3,6.333341749E-2
7.217654250E0,4.165300615E-3,-7.650847793E-2,1.326382399E-2,7.776133969E-2
7.227598250E0,3.859403528E-2,-8.212414384E-3,-4.475868165E-2,5.966810616E-2
7.237542250E0,3.785158508E-3,-2.012787044E-2,-9.886501461E-2,1.009641011E-1
7.247485250E0,-6.302348301E-3,-7.532441676E-2,-2.942494333E-2,8.111297457E-2
7.257429250E0,-7.059845952E-3,-3.529671729E-2,1.083986074E-2,3.759258247E-2
7.267373250E0,1.021699523E-2,-1.038944972E-1,-2.319356561E-2,1.069410820E-1
7.277317250E0,-2.944316106E-2,-5.152917266E-2,-7.492154360E-2,9.557925017E-2
7.287261250E0,-1.853094103E-2,3.218950689E-2,-8.041558743E-2,8.857892994E-2
7.297205250E0,-7.791688945E-3,7.227158546E-3,4.164182335E-2,4.297654813E-2
7.307148250E0,-2.783790850E-2,-3.840334296E-2,6.439772487E-2,7.998020298E-2
7.317092250E0,-3.981432178E-2,2.115113318E-2,4.984400511E-2,6.720844812E-2
7.327036250E0,-5.270148458E-2,1.576292396E-2,-1.011977613E-2,5.593144122E-2
7.336980250E0,-2.658318738E-2,2.288015485E-2,-8.022292167E-2,8.755503697E-2
7.346924250E0,5.878650832E-2,-7.703414261E-2,6.545928687E-2,1.169402879E-1
7.356867250E0,1.287925992E-2,2.867474556E-2,-4.695723474E-2,5.650750626E-2
7.366811250E0,-8.678486807E-2,5.045386970E-2,-6.091103017E-2,1.174195890E-1
7.376755250E0,-1.232743808E-2,-5.011122286E-2,1.260104209E-2,5.312143304E-2
7.386699250E0,8.373545375E-2,-9.624107659E-2,2.022142589E-2,1.291622124E-1
7.396643250E0,6.134702233E-2,-7.311943173E-3,6.314583600E-2,8.834205264E-2
7.406586250E0,-2.440253226E-2,-1.069631159E-2,-9.305317461E-2,9.679249955E-2
7.416530250E0,-1.108651274E-2,-5.767459631E-2,-6.826975107E-2,9.005569796E-2
7.426474250E0,3.499510146E-2,-1.359846014E-1,7.188391507E-2,1.577458912E-1
7.436418250E0,-2.042665402E-2,-8.964717150E-2,4.261947781E-2,1.013424069E-1
7.446362250E0,-6.947208479E-2,-6.415506542E-2,-3.444185436E-2,1.006403712E-1
7.456306250E0,1.133619798E-3,-1.256098866E-1,-1.471051285E-1,1.934400360E-1
7.466249250E0,9.834733503E-3,-3.946578205E-2,-6.143230945E-2,7.367630949E-2
7.476193250E0,-7.283508346E-2,-4.912596703E-2,1.044014508E-1,1.364476931E-1
7.486137250E0,-4.787528414E-2,-1.207011491E-1,-2.600315273E-2,1.324272411E-1
7.496081250E0,1.253820280E-2,-1.937007129E-2,-2.637006551E-2,3.503978519E-2
7.506025250E0,3.493954377E-2,5.672033072E-2,-1.487151593E-1,1.629544913E-1
7.515968250E0,8.051780406E-3,-7.674236655E-2,-2.760645926E-2,8.195327074E-2
7.525912250E0,-4.133653474E-2,2.377010107E-2,1.216127300E-1,1.306268843E-1
7.535856250E0,-9.161198214E-3,6.174075007E-3,6.164076269E-2,6.262292216E-2
7.545800250E0,1.933630362E-2,-3.051720321E-2,-2.603765130E-2,4.453259048E-2
7.555744250E0,-6.359004166E-2,-3.197082102E-2,-4.935196191E-2,8.661087079E-2
7.565687250E0,-2.876167721E-2,1.956595302E-2,4.170000315E-2,5.430424344E-2
7.575631250E0,7.700097794E-3,-6.378552139E-2,1.000826973E-1,1.189303600E-1
7.585575250E0,-3.496541770E-2,7.130679488E-3,-1.007884562E-2,3.708112935E-2
7.595519250E0,-3.250532049E-2,3.258302450E-2,3.712397218E-2,5.913069132E-2
7.605463250E0,-3.606432879E-2,-3.951372921E-2,-3.987596422E-2,6.672378235E-2
7.615407250E0,3.813033281E-2,-6.987247288E-2,-1.644500166E-2,8.128051935E-2
7.625350250E0,5.051877379E-2,-7.809541225E-2,9.792332053E-3,9.352502172E-2
7.635294250E0,-1.757488472E-2,-8.883440852E-2,-1.786034945E-1,2.002489374E-1
7.645238250E0,-8.021812513E-2,-4.079193056E-2,-8.604470193E-3,9.040445843E-2
7.655182250E0,5.931411903E-2,-1.431018323E-1,9.542071223E-3,1.552009995E-1
7.665126250E0,8.205647145E-2,-1.610779274E-1,-1.003411442E-2,1.810526074E-1
7.675069250E0,1.409035533E-2,-3.236901641E-2,-6.155013084E-2,7.095569000E-2
7.685013250E0,-2.668258091E-2,-1.100972235E-1,-1.443823725E-1,1.835201031E-1
7.694957250E0,1.433150729E-2,-1.686202508E-1,-1.767671764E-2,1.701488978E-1
7.704901250E0,-3.359919749E-3,-8.049569428E-2,1.332305628E-1,1.556959496E-1
7.714845250E0,-2.486660932E-2,-5.731733143E-2,-5.787574053E-3,6.274648002E-2
7.724789250E0,-3.575979849E-2,-9.544410110E-3,-5.375257641E-2,6.526253461E-2
7.734732250E0,7.986775814E-3,-2.812042952E-2,-1.759357023E-1,1.783477460E-1
7.744676250E0,-5.446118586E-2,-7.969404101E-2,5.988367438E-2,1.135923210E-1
7.754620250E0,-6.967095408E-2,1.800299227E-2,1.162835777E-1,1.367480165E-1
7.764564250E0,-9.903081972E-4,-7.594246745E-2,-2.180543661E-2,7.901718888E-2
7.774508250E0,8.475338090E-3,-1.347783208E-2,-7.804629564E-2,7.965367271E-2
7.784451250E0,-8.259329153E-3,3.888983130E-2,-8.575965017E-2,9.452699664E-2
7.794394625E0,-9.075929364E-3,-2.202412248E-2,4.984488219E-2,5.524442728E-2
7.804338625E0,8.584863748E-3,-7.907014310E-2,6.140599698E-2,1.004812613E-1
7.814282625E0,-2.763850931E-3,9.850804210E-3,-8.598915339E-3,1.336482550E-2
7.824226625E0,-1.733988147E-2,7.654005289E-4,-4.643273950E-2,4.957072346E-2
7.834170625E0,-8.156838426E-3,-4.433885157E-2,-2.632591903E-2,5.220653010E-2
7.844113625E0,7.153291767E-3,-1.741008461E-2,3.853022754E-2,4.288192001E-2
7.854057625E0,-1.525934164E-2,-3.265026748E-2,3.912985951E-2,5.319805804E-2
7.864001625E0,-1.098482600E-2,-7.193303168E-2,-6.249737978E-2,9.592158218E-2
7.873945625E0,-2.499218741E-3,-7.383863926E-2,1.905022860E-2,7.629745705E-2
7.883889625E0,-9.884873377E-3,-1.760304272E-2,-7.124569148E-2,7.405083652E-2
7.893832625E0,3.956805350E-2,-7.601029515E-2,-8.539273739E-3,8.611686840E-2
7.903776625E0,4.204777543E-2,-4.868391752E-3,-1.024207065E-1,1.108229117E-1
7.913720625E0,-4.485965576E-2,-1.364564717E-2,-8.489367753E-2,9.698210601E-2
7.923664625E0,-3.374968107E-2,-7.097701192E-2,2.835344106E-2,8.355055244E-2
7.933608625E0,4.750117198E-2,-1.641079545E-2,1.902596265E-2,5.373697797E-2
7.943551625E0,2.320344192E-2,5.585669696E-2,-8.738079071E-3,6.111239104E-2
7.953495625E0,-2.469962563E-2,-5.527256012E-2,-4.832665265E-2,7.746349311E-2
7.963439625E0,-7.547913043E-2,-4.010488272E-2,-2.426857620E-2,8.885079932E-2
7.973383625E0,-2.835163208E-2,-1.735979855E-2,9.325665772E-2,9.900495875E-2
7.983327625E0,-2.084613693E-2,-3.014064252E-2,1.793691874E-2,4.080138246E-2
7.993271625E0,-2.997275434E-2,-8.395724595E-2,-6.847089529E-2,1.124075115E-1
8.003214625E0,-5.632525080E-2,5.784650445E-3,-6.904333770E-2,8.929153677E-2
8.013158625E0,-2.400324966E-2,-4.307994604E-2,-6.910122514E-2,8.489415210E-2
8.023102625E0,-4.730014653E-2,-9.960731864E-2,8.127249688E-2,1.369822636E-1
8.033046625E0,-3.817610554E-2,-1.011568308E-2,-1.940924764E-2,4.400523801E-2
8.042990625E0,3.254138136E-2,-5.261090755E-2,-2.992488027E-2,6.871933901E-2
8.052933625E0,2.351261345E-2,-5.947378457E-2,-4.756066740E-2,7.969937970E-2
8.062877625E0,-4.661053140E-4,-3.561831415E-2,-2.980442762E-2,4.644551069E-2
8.072821625E0,3.925633295E-2,-3.105222344E-2,3.012456268E-2,5.841908536E-2
8.082765625E0,5.736482179E-2,-1.319453448E-1,2.788683325E-2,1.465536498E-1
8.092709625E0,-6.220194921E-3,-1.945251703E-2,-1.924055547E-2,2.805869239E-2
8.102653625E0,2.186328750E-2,-1.673823953E-2,-3.785195053E-2,4.680750112E-2
8.112596625E0,3.851487860E-2,-6.359431744E-2,-8.521322787E-2,1.130881395E-1
8.122540625E0,9.569370411E-3,-8.428702891E-2,5.737755775E-2,1.024112310E-1
8.132484625E0,-5.441788905E-2,5.031762958E-2,4.927565575E-2,8.900146484E-2
8.142428625E0,5.175935196E-2,-6.670620561E-2,-1.375820607E-2,8.554552365E-2
8.152372625E0,-6.775497682E-3,1.839709461E-2,-3.424977332E-2,3.946400172E-2
8.162315625E0,-3.316469455E-2,1.683413386E-3,-5.638294637E-2,6.543521595E-2
8.172259625E0,1.552450374E-2,-6.466669679E-2,-1.856783330E-2,6.904749324E-2
8.182203625E0,-1.828724004E-2,-6.548413754E-2,-7.901985705E-2,1.042436244E-1
8.192147625E0,-7.043924167E-2,-1.134476781E-2,3.124752045E-3,7.141536669E-2
8.202091625E0,1.381179032E-2,-2.844319582E-2,-3.113993168E-2,4.437878193E-2
8.212034625E0,3.877109628E-2,-5.654842257E-2,-6.198633313E-2,9.242958129E-2
8.221978625E0,2.995035220E-3,1.313167691E-2,2.614056230E-2,2.940646479E-2
8.231922625E0,-2.598161853E-2,-6.938072205E-2,-4.547964334E-2,8.693173789E-2
8.241866625E0,-6.181271651E-2,-4.734607458E-2,-1.680957556E-2,7.965566226E-2
8.251810625E0,2.404228896E-3,2.150488973E-2,7.061565399E-2,7.385669359E-2
8.261754625E0,-2.642101851E-2,-4.146903813E-2,1.129682064E-2,5.045165507E-2
8.271697625E0,-9.204893360E-2,-1.740248322E-2,2.042607844E-2,9.588053650E-2
8.281641625E0,-5.087582854E-2,3.319464326E-2,-1.162461555E-1,1.311617434E-1
8.291585625E0,-3.256816892E-3,-1.005522287E-1,-1.658767372E-2,1.019632702E-1
8.301529625E0,-9.781390451E-2,-2.694923222E-2,6.494853258E-2,1.204663144E-1
8.311473625E0,-2.539280391E-2,-6.987247288E-2,-2.952522308E-2,7.999184805E-2
8.321416625E0,5.368286664E-2,-4.758639514E-2,-1.855175346E-2,7.409779167E-2
8.331360625E0,-2.394188130E-2,-2.800056159E-2,-1.008910748E-1,1.074069556E-1
8.341304625E0,-3.003767671E-2,-6.201907754E-2,-2.967315763E-2,7.502749019E-2
8.351248625E0,3.732246688E-2,-9.809347451E-2,3.732160807E-2,1.113920944E-1
8.361192625E0,3.184297713E-2,-3.761747718E-2,-3.245789409E-3,4.939215455E-2
8.371136625E0,1.684620288E-2,-7.874796152E-2,-3.917634487E-5,8.052973072E-2
8.381079625E0,5.804275163E-5,-5.070763886E-2,-3.832323611E-2,6.356051002E-2
8.391023625E0,2.810559221E-2,-6.448835671E-2,-2.213814318E-2,7.374801589E-2
8.400967625E0,6.795286853E-4,-3.742101073E-2,2.582071960E-2,4.546980717E-2
8.410911625E0,-3.479248630E-3,-1.672712982E-2,-3.549084485E-2,3.938911158E-2
8.420855625E0,2.211834488E-2,-3.504119396E-2,6.401531696E-3,4.192953687E-2
8.430798625E0,1.431962100E-2,-2.853441238E-4,-6.252661586E-2,6.414601046E-2
8.440742625E0,2.453428647E-2,-7.143543363E-3,-8.110088110E-3,2.680923262E-2
8.450686625E0,2.162099350E-4,4.271683395E-2,5.026266575E-3,4.301206813E-2
8.460630625E0,-4.873244028E-2,-6.583964825E-3,-7.993728518E-2,9.385184543E-2
8.470574625E0,-3.100265002E-2,1.036652863E-2,2.340640426E-2,4.020558399E-2
8.480518625E0,5.059561900E-2,-2.110669434E-2,-1.263992608E-2,5.625990525E-2
8.490461625E0,-9.468195308E-4,-3.171880603E-2,-1.005721092E-3,3.174886766E-2
8.500405625E0,2.808640603E-2,-1.235925972E-1,-4.770743251E-3,1.268334983E-1
8.510349625E0,-6.069203367E-2,3.601592481E-2,-1.138505512E-1,1.339500572E-1
8.520293625E0,2.108836697E-2,-9.305317461E-2,-5.589967400E-2,1.105820333E-1
8.530237625E0,5.346812764E-3,-9.625335574E-2,3.120249689E-2,1.013256765E-1
8.540180625E0,-6.043669308E-2,-7.570682466E-2,1.455635101E-2,9.795919827E-2
8.550124625E0,-5.287044170E-2,-1.425258815E-2,-1.012737751E-2,5.568647637E-2
8.560068625E0,-1.518913851E-2,-6.823408306E-2,-1.044166535E-1,1.256560287E-1
8.570012625E0,-9.417061407E-2,-1.624005675E-2,8.474077284E-3,9.593567628E-2
8.579956625E0,-7.303233563E-2,-1.054931259E-1,-1.410348415E-2,1.290791615E-1
8.589899625E0,1.419175884E-2,-1.406834239E-1,1.752001226E-2,1.424787093E-1
8.599843625E0,-4.263835335E-3,2.536580622E-2,2.346429169E-2,3.481633814E-2
8.609787625E0,-3.429914575E-2,-1.449641705E-2,-1.029849628E-1,1.095101825E-1
8.619731625E0,-7.767203730E-3,-8.880692661E-2,-5.895045877E-2,1.068744883E-1
8.629675625E0,1.880385982E-2,-3.343262494E-2,2.093654037E-2,4.369970568E-2
8.639619625E0,8.664093520E-3,-5.857916057E-2,2.542603254E-2,6.444429921E-2
8.649562625E0,-1.361157800E-2,-1.057264298E-1,4.309397936E-3,1.066861000E-1
8.659506625E0,-3.939121177E-2,6.809258044E-2,-6.274150103E-2,1.006218815E-1
8.669450625E0,4.445658160E-2,-4.323255837E-2,4.530831993E-2,7.680029691E-2
8.679394625E0,-3.395528379E-2,-2.906826317E-2,9.484505385E-2,1.048499378E-1
8.689338625E0,-3.552405520E-2,1.555944085E-2,3.782885402E-2,5.417634996E-2
8.699281625E0,-1.751140589E-2,-9.118732810E-3,-4.238909751E-2,4.676148214E-2
8.709225625E0,2.411526038E-2,-3.646908402E-2,-8.111842275E-2,9.215062877E-2
8.719169625E0,1.620975173E-2,-1.891925097E-2,7.102700561E-2,7.526971260E-2
8.729113625E0,2.864450449E-2,4.145091176E-3,-3.362149000E-4,2.894481748E-2
8.739057625E0,-7.325546172E-2,1.813513935E-2,-8.725507557E-2,1.153633138E-1
8.749001625E0,3.430692072E-2,-1.450898856E-1,-4.238646626E-3,1.491509498E-1
8.758944625E0,3.817025833E-2,-5.450715959E-2,3.006579816E-2,7.302021149E-2
8.768888625E0,4.677834649E-2,-6.701844692E-2,6.889803439E-2,1.068953931E-1
8.778832625E0,-1.713334685E-3,-3.509148002E-2,-8.226096869E-2,8.944950785E-2
8.788776625E0,-2.897978749E-2,5.952874839E-2,-1.821401829E-1,1.938002739E-1
8.798720833E0,2.711137368E-2,-4.349100530E-2,4.779572546E-2,7.007799582E-2
8.808663833E0,-2.581546624E-2,-1.332790947E-1,6.934914708E-2,1.524436276E-1
8.818607833E0,-6.011945422E-2,-6.316513181E-2,5.781171352E-2,1.046249343E-1
8.828551833E0,1.916927425E-3,-1.551558673E-2,-1.250058693E-1,1.259796626E-1
8.838495833E0,-2.461980200E-2,2.273982167E-2,-1.423498803E-1,1.462420000E-1
8.848439833E0,-8.492871515E-2,-3.468509853E-2,3.467223465E-2,9.807194590E-2
8.858382833E0,-2.922147850E-2,-8.064772189E-2,7.585680574E-2,1.145085361E-1
8.868326833E0,2.253170648E-2,1.130266786E-3,-4.334453255E-2,4.886413615E-2
8.878270833E0,3.061318891E-2,-7.269901693E-2,-9.602414489E-2,1.242696697E-1
8.888214833E0,3.908553030E-3,-3.700644314E-2,-9.242459893E-2,9.963463308E-2
8.898158833E0,-1.239417857E-2,-3.441203356E-2,1.100007445E-1,1.159222476E-1
8.908102833E0,-2.885559811E-2,-9.334261179E-2,6.752072275E-2,1.187625224E-1
8.918045833E0,-3.856753095E-2,-6.888195455E-2,9.812212586E-3,7.955160352E-2
8.927989833E0,-5.781660142E-2,-2.614465535E-2,-6.746429712E-2,9.261605578E-2
8.937933833E0,-1.693891780E-2,-1.077875733E-1,-6.505202830E-2,1.270309186E-1
8.947877833E0,-4.805172388E-2,-3.543938935E-2,1.550213814E-1,1.661220851E-1
8.957821833E0,-6.053309904E-2,-6.466377318E-2,3.146766812E-2,9.399932861E-2
8.967764833E0,-1.033920021E-1,-1.900578976E-2,-1.531999737E-2,1.062347799E-1
8.977708833E0,-5.804298003E-2,-5.542926550E-2,-8.561580867E-2,1.173518543E-1
8.987652833E0,4.312567309E-2,-1.031612563E-1,2.473927706E-2,1.145168124E-1
8.997596833E0,3.690778965E-2,-3.237720251E-2,5.158062816E-2,7.121116050E-2
9.007540833E0,-7.464856999E-2,1.030431426E-1,-5.053426892E-2,1.369087673E-1
9.017484833E0,-3.925767599E-2,2.781111181E-2,-7.724054933E-2,9.099849188E-2
9.027427833E0,8.650311450E-2,-1.444905460E-1,5.796754181E-2,1.781026182E-1
9.037371833E0,3.496998584E-2,3.220880270E-2,7.965632647E-2,9.276549589E-2
9.047315833E0,3.156687892E-2,-2.232466936E-2,2.340903550E-2,4.519780581E-2
9.057259833E0,1.001836348E-2,1.600967646E-3,-1.652896768E-1,1.656007487E-1
9.067203833E0,1.735808093E-2,-3.471491933E-3,3.368171632E-2,3.805012805E-2
9.077146833E0,3.445983455E-3,-4.200932086E-2,1.303932014E-1,1.370366550E-1
9.087090833E0,-2.796957135E-2,-3.306249619E-2,7.598398268E-2,8.745851131E-2
9.097034833E0,2.231620003E-2,1.444846988E-3,-4.240810096E-2,4.794316838E-2
9.106978833E0,2.728786823E-2,9.760757089E-3,-1.518849349E-1,1.546251389E-1
9.116922833E0,-6.128366226E-2,-5.384759367E-2,2.705448210E-2,8.594879642E-2
9.126866833E0,-3.075266328E-2,-1.274365568E-1,7.697508574E-2,1.520229132E-1
9.136809833E0,3.060541394E-2,-6.099523008E-2,-5.247759104E-2,8.608720588E-2
9.146753833E0,3.241353747E-2,-4.633684516E-2,-1.428609270E-1,1.536456478E-1
9.156697833E0,-4.377015503E-3,-8.077811480E-2,-1.151287526E-1,1.407085348E-1
9.166641833E0,2.885619197E-3,-1.007989812E-1,-9.076925218E-3,1.012479727E-1
9.176585833E0,-1.062072719E-2,-5.930713892E-2,8.141399950E-2,1.012836408E-1
9.186528833E0,2.273895373E-2,-1.258583933E-1,-6.987715065E-3,1.280867805E-1
9.196472833E0,-2.523064418E-2,-5.605082452E-2,-6.453221083E-2,8.912175138E-2
9.206416833E0,-4.620499958E-2,3.042832553E-2,-9.892845690E-2,1.133473624E-1
9.216360833E0,2.361871300E-2,1.760187328E-2,1.040857011E-1,1.081734844E-1
9.226304833E0,1.245185587E-2,-1.741651654E-2,1.122185934E-1,1.142427086E-1
9.236248833E0,-5.239050407E-2,6.116772294E-3,-1.173653126E-2,5.403633949E-2
9.246191833E0,-2.114004174E-2,2.631247044E-3,-9.574874103E-2,9.808999049E-2
9.256135833E0,7.070288714E-3,-3.587851524E-2,5.090293586E-3,3.692110409E-2
9.266079833E0,2.548749226E-2,-4.143921733E-3,4.481890798E-2,5.172541794E-2
9.276023833E0,-2.200586820E-2,1.593600154E-2,-3.278679997E-2,4.258155272E-2
9.285967833E0,-1.001173968E-1,5.108595371E-2,-7.567817330E-2,1.355007518E-1
9.295910833E0,-1.084227271E-2,-7.743292272E-2,5.139497906E-2,9.356738893E-2
9.305854833E0,3.991288391E-2,-4.184267521E-2,-1.243936658E-2,5.914884286E-2
9.315798834E0,-2.845995175E-2,-4.349159002E-2,-5.000246465E-2,7.212304574E-2
9.325742833E0,-6.575796995E-2,-3.394250214E-2,-1.395063794E-1,1.579184408E-1
9.335686833E0,-6.341285275E-2,-9.691292167E-2,-9.530727625E-2,1.499892702E-1
9.345629833E0,-1.882550365E-2,-1.367318755E-1,6.808380961E-2,1.539006514E-1
9.355573833E0,-3.104713454E-2,-9.959445477E-2,2.530236393E-2,1.073461206E-1
9.365517834E0,-7.603332770E-2,-3.707251668E-2,-7.269901693E-2,1.115373726E-1
9.375461833E0,-4.887236232E-2,-8.978165746E-2,-1.457003349E-1,1.779826997E-1
9.385405833E0,-6.173206148E-2,-2.544123530E-3,-3.342385411E-2,7.024581128E-2
9.395349833E0,-4.463651139E-2,-1.299175304E-1,5.695860475E-2,1.487120221E-1
9.405292833E0,-1.718879490E-2,-8.212589800E-2,-6.373465061E-4,8.390783041E-2
9.415236833E0,4.320545104E-2,2.228373885E-2,-1.392239588E-1,1.474672395E-1
9.425180833E0,-2.336693555E-4,1.581964195E-2,-7.097204179E-2,7.271414160E-2
9.435124833E0,1.792245601E-2,4.105680943E-2,-7.051449716E-2,8.354142888E-2
9.445068833E0,1.688163335E-2,-9.063184261E-4,5.662619054E-2,5.909599321E-2
9.455012833E0,5.036982511E-2,-3.274967015E-2,-3.523473680E-2,6.965017483E-2
9.464955833E0,2.371792381E-2,5.248460770E-3,-3.585044861E-2,4.330520656E-2
9.474899833E0,-1.661331925E-2,6.084788024E-2,-4.984692872E-2,8.039392520E-2
9.484843833E0,1.713238754E-2,2.071259201E-2,1.524193704E-2,3.090059571E-2
9.494787833E0,6.353484029E-3,-1.683413386E-3,6.635771155E-2,6.668243039E-2
9.504731833E0,-1.016292675E-2,-4.121117592E-2,9.458923817E-2,1.036762754E-1
9.514674833E0,-3.779485795E-2,1.955893636E-3,2.947025925E-2,4.796637351E-2
9.524618833E0,1.000958352E-2,-9.362737119E-2,-2.355287701E-2,9.706191021E-2
9.534562833E0,-4.967154879E-3,-4.422833920E-3,-4.995948762E-2,5.040024296E-2
9.544506833E0,4.073609878E-2,-8.956764936E-2,-4.172456145E-2,1.068771846E-1
9.554450833E0,-4.881944502E-2,-3.082359731E-2,-2.025826335E-2,6.118684170E-2
9.564393833E0,-1.028701563E-2,-6.738155901E-2,1.963787377E-2,7.093478182E-2
9.574337833E0,7.051579451E-2,-1.057515728E-1,1.586612731E-2,1.280921794E-1
9.584281833E0,7.248912016E-3,-8.445776761E-2,-1.049417335E-1,1.349015517E-1
9.594225833E0,-1.540576871E-3,-1.206233811E-1,-2.015535235E-3,1.206500553E-1
9.604169833E0,2.029423286E-2,-6.122034788E-2,3.330018550E-2,7.258573714E-2
9.614113833E0,-4.241890004E-3,-5.610169530E-2,6.742629021E-2,8.781627673E-2
9.624056833E0,-1.123083847E-2,-4.387926042E-2,1.163537443E-2,4.676433647E-2
9.634000833E0,-1.563017389E-2,-3.466580272E-2,4.681280851E-3,3.831363470E-2
9.643944833E0,-2.392512538E-2,-8.763222098E-3,-5.955272198E-2,6.477447322E-2
9.653888833E0,-7.006560459E-2,-4.676369190E-2,1.419119239E-2,8.542494816E-2
9.663832833E0,-8.952486419E-2,6.501519084E-3,4.149944365E-2,9.888971070E-2
9.673775833E0,-7.641562597E-2,-9.673048854E-3,7.850237846E-2,1.099797217E-1
9.683719833E0,-1.446135202E-3,8.556230664E-3,-3.023624450E-2,3.145680962E-2
9.693663833E0,-1.716893264E-2,-1.905432165E-2,-5.468900800E-2,6.040469367E-2
9.703607833E0,-5.188728721E-2,-4.287587821E-2,-5.036148369E-2,8.406491864E-2
9.713551833E0,3.466403028E-3,-8.972786307E-2,-1.690488517E-2,9.137220860E-2
9.723495833E0,-7.409344995E-3,7.116061449E-3,7.576178849E-2,7.645511964E-2
9.733438833E0,7.327191615E-3,-8.474428117E-2,-1.500512481E-2,8.637380795E-2
9.743382833E0,-4.547906776E-2,-3.265377581E-2,-7.817259550E-2,9.615388378E-2
9.753326833E0,1.157034243E-2,-5.887035191E-2,-5.528630108E-2,8.158533106E-2
9.763270833E0,1.104951083E-2,-1.058030283E-1,5.837567747E-2,1.213428705E-1
9.773214833E0,-3.647420947E-2,-7.768610716E-2,1.570094347E-2,8.724688435E-2
9.783157833E0,-3.114312024E-2,5.955915391E-2,-4.241277874E-2,7.947345817E-2
9.793101833E0,1.533860796E-2,-3.471316516E-2,-5.117395431E-2,6.371067673E-2
9.803045833E0,-1.455536429E-2,-8.340059102E-2,-1.709842801E-2,8.637055894E-2
9.812989833E0,1.114132125E-3,2.557922959E-2,-2.235507488E-2,3.398952265E-2
9.822933833E0,4.291177464E-2,-5.139468670E-2,-4.756359100E-2,8.212873683E-2
9.832877833E0,-6.125400592E-2,-5.750736594E-3,-9.789583862E-2,1.156231786E-1
9.842820833E0,2.293596835E-2,4.534340322E-2,2.016529262E-2,5.466920418E-2
9.852764833E0,5.888825901E-2,-6.241902709E-3,1.618216932E-3,5.924024835E-2
9.862708833E0,2.488772325E-2,-7.730194509E-2,3.017455637E-2,8.663425036E-2
9.872652833E0,1.303500599E-2,2.902557850E-3,-5.103800654E-2,5.275617817E-2
9.882596833E0,-1.551924124E-3,-6.853170633E-2,-4.781180531E-2,8.357614473E-2
9.892539833E0,-1.662151448E-2,-4.779104769E-2,-1.876313031E-2,5.396585997E-2
9.902483833E0,1.243054094E-2,-7.804863453E-2,2.537106872E-2,8.300481208E-2
9.912427833E0,1.758648779E-2,-5.439957082E-2,-4.730280519E-2,7.420345839E-2
9.922371833E0,-4.661029385E-2,-4.095214427E-2,-7.448534131E-2,9.694154777E-2
9.932315833E0,-5.856250514E-2,-9.471319914E-3,-3.597557902E-2,6.937950126E-2
9.942259833E0,-2.417598920E-2,-9.903019845E-2,-1.258086920E-2,1.027119123E-1
9.952202833E0,-1.972958369E-2,-4.243148983E-2,2.270298421E-2,5.201070365E-2
9.962146833E0,1.888382963E-2,-1.985480547E-2,-5.491997302E-2,6.137601940E-2
9.972090833E0,-2.003879176E-2,-3.672402263E-2,-3.706959307E-2,5.589599041E-2
9.982034833E0,5.258318810E-3,-2.544123530E-3,-2.094267994E-2,2.174208648E-2
9.991978833E0,-3.510109138E-2,7.119043529E-2,2.734391928E-2,8.395150156E-2
1.000192183E1,2.813104587E-2,-8.729015887E-2,4.800564051E-3,9.183666475E-2
1.001186583E1,-1.524720867E-2,-1.671426594E-2,-1.207917809E-2,2.564664894E-2
1.002180983E1,-2.035051231E-2,1.723583758E-2,-7.210084677E-2,7.687489547E-2
1.003175383E1,1.973329302E-2,-9.742981553E-2,6.427434862E-2,1.183772094E-1
1.004169783E1,-4.042076027E-2,-6.716111898E-3,1.104772925E-2,4.243814724E-2
1.005164083E1,-4.019541406E-2,3.774962425E-3,-1.331586421E-2,4.251157363E-2
1.006158483E1,-1.023077273E-2,-2.898815632E-2,-6.320898592E-2,7.028767900E-2
1.007152883E1,-3.866767365E-2,-5.201858461E-2,9.563121200E-4,6.482311828E-2
1.008147283E1,-2.524076717E-2,-3.972130537E-2,-1.287410706E-2,4.879160850E-2
1.009141683E1,3.867056072E-2,-1.030682856E-1,-4.288523376E-2,1.181424015E-1
1.010136083E1,-5.895656180E-2,-2.540147424E-2,-9.895827770E-3,6.495412596E-2
1.011130383E1,-3.147075618E-2,-4.879559934E-2,4.426342249E-3,5.823239232E-2
1.012124783E1,6.355164190E-2,-5.945565820E-2,-4.159387618E-2,9.645639956E-2
1.013119183E1,2.828284507E-2,-6.138290048E-2,2.368999422E-2,7.161700651E-2
1.014113583E1,2.587922830E-2,-6.188634574E-2,-1.150819749E-2,6.805948028E-2
1.015107983E1,3.339370441E-2,-9.873257518E-2,-3.929211974E-2,1.113873043E-1
1.016102383E1,-2.989159682E-2,3.044820607E-2,-1.573193371E-3,4.269749115E-2
1.017096683E1,-1.835328617E-2,-4.201224446E-3,-1.697212815E-2,2.534850162E-2
1.018091083E1,3.736820307E-2,-1.188119137E-1,3.610714138E-2,1.296779823E-1
1.019085483E1,4.923995119E-4,-3.995227039E-2,9.147091806E-3,4.098896992E-2
1.020079883E1,-5.072686158E-2,3.020086884E-3,-2.194957048E-2,5.535448541E-2
1.021074283E1,-4.652361802E-2,-7.226339936E-2,-6.267805874E-2,1.063719181E-1
1.022068583E1,-7.259643484E-2,-4.133689106E-2,1.328838229E-2,8.459055513E-2
1.023062983E1,-6.643021703E-3,-2.786081314E-2,2.914252281E-2,4.086124425E-2
1.024057383E1,6.785255224E-3,-5.012291729E-2,-3.959383607E-2,6.423409049E-2
1.025051783E1,-6.972649349E-3,-5.144965053E-2,-9.967514634E-2,1.123869173E-1
1.026046183E1,-3.338774756E-2,1.075244486E-2,-3.138785362E-2,4.706967296E-2
1.027040583E1,1.796575282E-3,-3.954764307E-2,2.109850824E-2,4.485967905E-2
1.028034883E1,2.851361822E-2,-8.066760242E-2,7.584364951E-2,1.143352425E-1
1.029029283E1,-4.786593773E-2,7.125066161E-2,-4.918911695E-2,9.893115789E-2
1.030023683E1,1.985358121E-3,-9.282104015E-2,-1.154690605E-1,1.481647431E-1
1.031018083E1,2.861362388E-3,-3.532946169E-2,-4.940370977E-2,6.080365776E-2
1.032012483E1,-2.825528093E-2,-5.727932453E-2,3.878575087E-2,7.472359995E-2
1.033006783E1,-3.093799260E-2,-5.809325695E-2,5.548247516E-2,8.608304676E-2
1.034001183E1,-2.552465863E-2,-5.951354563E-2,-6.386972129E-2,9.095444799E-2
1.034995583E1,-4.438895490E-2,7.619506717E-3,-5.589675039E-2,7.178358381E-2
1.035989983E1,2.041613817E-2,-8.542782068E-2,-2.325963914E-2,9.086111411E-2
1.036984383E1,6.537369825E-3,-2.318011701E-2,-3.594868183E-3,2.435114178E-2
1.037978783E1,-8.397214721E-2,3.846415401E-2,1.566469073E-3,9.237568119E-2
1.038973083E1,3.564635337E-2,1.105182230E-2,-6.904041409E-2,7.848174350E-2
1.039967483E1,5.842710556E-2,-2.531844378E-2,-1.268524200E-2,6.492815740E-2
1.040961883E1,-1.137740258E-3,-3.112940669E-2,6.239329934E-2,6.973706487E-2
1.041956283E1,6.351994816E-4,-2.282051325E-2,-1.855350763E-2,2.941788484E-2
1.042950683E1,-8.527012859E-3,-4.667715311E-2,-2.500327885E-2,5.363422903E-2
1.043944983E1,-5.572460471E-3,-1.428416312E-2,-1.377574772E-2,2.061215313E-2
1.044939383E1,1.930805426E-3,-5.797455847E-2,7.126586437E-2,9.188906825E-2
1.045933783E1,3.273625810E-2,-1.078279191E-1,5.625606179E-3,1.128280558E-1
1.046928183E1,-3.854116366E-2,-5.853062868E-4,-1.395955494E-1,1.448194783E-1
1.047922583E1,-2.822506727E-2,-9.439744949E-3,-5.323802143E-2,6.099221371E-2
1.048916983E1,-2.387728784E-2,-1.049165905E-1,2.916006446E-3,1.076388356E-1
1.049911283E1,-4.868226386E-2,-4.811966121E-2,3.792971849E-2,7.825680900E-2
1.050905683E1,1.733130251E-2,-5.280854344E-2,2.502432883E-2,6.095353428E-2
1.051900083E1,2.492632401E-2,-5.676652372E-2,-1.135751474E-1,1.293950306E-1
1.052894483E1,-1.556331463E-2,1.408594251E-3,-5.123798132E-2,5.356800939E-2
1.053888883E1,-4.982987129E-2,-5.813886523E-3,4.413186014E-2,6.681645328E-2
1.054883183E1,5.468516163E-2,-1.236908305E-1,6.736226320E-2,1.510879312E-1
1.055877583E1,-1.642697579E-2,2.376776218E-2,5.869727433E-3,2.948229559E-2
1.056871983E1,-3.269727361E-2,-1.185172141E-2,-9.159078598E-2,9.797166467E-2
1.057866383E1,-9.489720371E-3,-2.814732671E-2,-5.219136983E-2,6.005219295E-2
1.058860783E1,-1.012678365E-2,-7.773990154E-2,6.057189167E-2,9.907067224E-2
1.059855183E1,-3.442855194E-2,6.268215179E-4,5.206477761E-2,6.242162415E-2
1.060849483E1,-4.895380307E-2,-7.913036942E-3,3.149485767E-2,5.874535767E-2
1.061843883E1,-2.963018060E-2,-1.261302888E-2,-5.727113843E-2,6.570402877E-2
1.062838283E1,-3.517256445E-2,-4.826350272E-2,-5.712729692E-3,5.999258509E-2
1.063832683E1,2.543326847E-2,-9.416414559E-2,-2.523161262E-2,1.007490533E-1
1.064827083E1,-3.056249172E-2,-1.264811218E-2,-7.057296932E-2,7.793962176E-2
1.065821383E1,-3.704102394E-2,1.384562194E-2,-5.447090685E-2,6.731135413E-2
1.066815783E1,6.821210118E-2,-7.745455742E-2,-4.513202637E-2,1.126454572E-1
1.067810183E1,4.359849357E-2,-7.101501882E-2,4.107932121E-2,9.290571656E-2
1.068804583E1,-6.008836348E-4,-7.752647817E-2,-7.399768353E-2,1.071744981E-1
1.069798983E1,3.583621429E-3,-7.874796152E-2,-9.804084957E-2,1.258017964E-1
1.070793383E1,-3.305421872E-3,-5.331725121E-2,-1.558546096E-2,5.564675807E-2
1.071787683E1,-1.238755477E-2,-4.792553365E-2,7.781036049E-2,9.222125833E-2
1.072782083E1,-1.538843720E-2,-2.796138525E-3,7.379478514E-2,7.543402882E-2
1.073776483E1,6.436368311E-3,-6.502103806E-3,-6.880974144E-2,6.941530600E-2
1.074770883E1,-5.126666008E-2,1.065187275E-2,-1.070487776E-1,1.191686772E-1
1.075765283E1,-1.750411514E-2,-9.022487640E-2,3.101509362E-2,9.699927011E-2
1.076759583E1,-4.931304138E-2,-1.286855221E-2,3.956343055E-2,6.451853007E-2
1.077753983E1,-4.336550944E-3,-2.997575104E-2,2.290851384E-2,3.797566762E-2
1.078748383E1,1.605604305E-2,2.753687739E-2,-5.216798097E-2,6.113570457E-2
1.079742746E1,2.823763878E-2,-1.227330565E-2,-5.210746229E-2,6.052425879E-2
1.080737146E1,-4.794110186E-2,4.440726399E-2,4.614681065E-2,7.999926548E-2
1.081731546E1,1.977728418E-2,-5.878030479E-2,4.171023577E-2,7.473960777E-2
1.082725846E1,6.801519619E-2,-3.753386199E-2,4.906457126E-2,9.188139019E-2
1.083720246E1,-1.162694165E-2,-1.092318356E-2,-3.902431726E-2,4.215921073E-2
1.084714646E1,-5.047601603E-2,-5.327865958E-2,-6.853229105E-2,1.004147334E-1
1.085709046E1,2.808855305E-2,-1.294655406E-1,1.468879044E-2,1.332893604E-1
1.086703446E1,1.945088164E-2,-8.152538896E-2,2.903025627E-2,8.869882536E-2
1.087697746E1,-4.020716331E-2,-1.128015608E-1,-5.025681853E-2,1.298713051E-1
1.088692146E1,-8.677905740E-2,-8.944310367E-2,-6.194247901E-3,1.247759685E-1
1.089686546E1,-6.703074435E-3,-9.863317251E-2,-5.918844044E-2,1.152245868E-1
1.090680946E1,2.282712791E-2,-8.944544256E-2,2.381921768E-2,9.533582797E-2
1.091675346E1,-8.638365772E-3,-2.834437788E-2,-8.380755723E-2,8.889168560E-2
1.092669746E1,-9.101774971E-2,2.756611347E-2,-6.991691172E-2,1.180359942E-1
1.093664046E1,4.344960884E-2,-3.745960236E-2,1.078401983E-2,5.837281388E-2
1.094658446E1,7.359355870E-2,-1.593775570E-2,8.039863050E-2,1.101542724E-1
1.095652846E1,7.708567120E-3,-3.013304114E-2,2.472495139E-2,3.973342921E-2
1.096647246E1,-1.355312412E-2,3.227779984E-2,-1.430518386E-1,1.472731206E-1
1.097641646E1,-1.590131111E-2,3.017221749E-2,-9.856183648E-2,1.042959731E-1
1.098635946E1,3.955691638E-2,-5.724365652E-2,1.502927381E-1,1.656185164E-1
1.099630346E1,-2.957490614E-2,5.694778740E-2,1.687412882E-1,1.805307395E-1
1.100624746E1,-3.129347591E-3,1.519340515E-2,1.340474188E-2,2.050169460E-2
1.101619146E1,-2.040266217E-2,2.366368175E-2,-1.480462378E-1,1.513073924E-1
1.102613546E1,-4.846621837E-2,-4.013704240E-2,-7.723353267E-2,9.962416908E-2
1.103607946E1,-8.414371731E-2,-6.921115279E-2,8.654580832E-2,1.391421064E-1
1.104602246E1,6.368641108E-3,-7.631376565E-2,1.262179971E-2,7.761224288E-2
1.105596646E1,1.745127093E-2,-6.395509064E-2,-9.184981763E-2,1.132748404E-1
1.106591046E1,-3.385176066E-2,-1.370955724E-1,-1.058299255E-1,1.764684414E-1
1.107585446E1,-4.121115765E-2,-5.377859652E-2,-6.426090002E-3,6.805726700E-2
1.108579846E1,-2.663052242E-2,-9.638959587E-2,5.032844692E-2,1.119512907E-1
1.109574146E1,3.084003347E-2,-1.619479930E-1,1.581233293E-2,1.656148846E-1
1.110568546E1,-8.873469522E-3,-5.581752062E-2,-4.571411669E-2,7.269191519E-2
1.111562946E1,-3.548878005E-2,-5.697877765E-2,-3.083470702E-2,7.387024955E-2
1.112557346E1,-2.518268787E-2,-1.046271533E-1,-3.445881128E-2,1.129974276E-1
1.113551746E1,-1.377669789E-2,-7.660203338E-2,4.007213831E-2,8.754110572E-2
1.114546146E1,4.487372562E-4,-1.617515266E-2,-3.809285581E-2,4.138722741E-2
1.115540446E1,-1.641338102E-2,-5.488956749E-2,-7.383279204E-3,5.776483799E-2
1.116534846E1,-2.315971571E-2,-2.237729430E-3,1.920488745E-2,3.016964645E-2
1.117529246E1,2.480408066E-2,6.488304377E-2,9.726112336E-2,1.195189437E-1
1.118523646E1,1.615289669E-2,2.108272076E-2,-4.082525969E-2,4.870419915E-2
1.119518046E1,-9.316086388E-2,-2.228373885E-3,-8.582835495E-2,1.266902472E-1
1.120512346E1,-1.529753127E-2,-1.827079475E-2,7.117815614E-3,2.486965426E-2
1.121506746E1,1.245446062E-1,-5.428145707E-2,1.204263300E-1,1.815498181E-1
1.122501146E1,3.256655180E-2,1.271477044E-2,4.005401194E-2,5.316549215E-2
1.123495546E1,3.891513878E-3,-6.735817015E-2,-6.094114333E-2,9.091803956E-2
1.124489946E1,-7.152661365E-3,1.769250512E-2,-8.735096991E-2,8.941128143E-2
1.125484346E1,1.333555288E-2,-8.891510010E-2,8.294860125E-3,9.029139882E-2
1.126478646E1,1.638574379E-2,-8.646160841E-2,9.614927530E-2,1.303410352E-1
1.127473046E1,1.863376980E-2,-8.062199414E-2,-1.882715732E-2,8.486215392E-2
1.128467446E1,-8.850199431E-3,3.387876749E-3,-5.132305831E-2,5.219061269E-2
1.129461846E1,-6.241391991E-2,-5.851133287E-2,-1.044034973E-1,1.349783824E-1
1.130456246E1,-8.274141795E-2,-1.301151663E-1,2.873146355E-2,1.568489584E-1
1.131450546E1,-1.884563087E-2,-1.067239648E-1,2.249950111E-2,1.106859974E-1
1.132444946E1,3.330337406E-2,-7.040807784E-2,-3.034178674E-2,8.358849305E-2
1.133439346E1,-5.436878158E-3,-4.238295794E-2,-6.918864101E-2,8.132000254E-2
1.134433746E1,-5.084418962E-2,-4.484931350E-2,-2.058336854E-2,7.085384675E-2
1.135428146E1,-2.009573816E-2,2.577803493E-2,-1.939404488E-2,3.800624624E-2
1.136422546E1,6.322036972E-3,-4.685666263E-2,4.909673095E-2,6.816160190E-2
1.137416846E1,1.495554225E-2,-2.451854467E-2,-3.923160106E-2,4.862042573E-2
1.138411246E1,3.261448983E-3,-1.292994797E-2,-4.866199046E-2,5.045601966E-2
1.139405646E1,4.262647619E-3,3.810805857E-2,-4.092817068E-2,5.608484152E-2
1.140400046E1,-1.854088129E-3,-5.881012559E-2,1.949754059E-2,6.198566450E-2
1.141394446E1,-3.232590233E-2,-3.860214829E-2,-2.436359346E-2,5.593455551E-2
1.142388746E1,-3.448357059E-2,-1.882744968E-2,-4.677304745E-2,6.108442903E-2
1.143383146E1,-1.878116531E-2,1.308022141E-3,-2.107248813E-2,2.825761576E-2
1.144377546E1,-1.512178590E-2,-1.017058843E-1,-8.730770051E-3,1.031939032E-1
1.145371946E1,-2.560936103E-2,3.914126158E-3,4.203563333E-3,2.624556535E-2
1.146366346E1,-2.326250793E-3,-4.911076427E-2,-6.853989244E-2,8.435043251E-2
1.147360746E1,-4.797865195E-2,-1.258145392E-2,-5.867563963E-2,7.683146954E-2
1.148355046E1,2.850291051E-2,-3.108964562E-2,4.418477744E-2,6.108417577E-2
1.149349446E1,6.223981907E-2,4.992762029E-2,3.129663706E-2,8.570905341E-2
1.150343846E1,4.903967491E-2,-7.743058383E-2,-1.217480931E-1,1.523908895E-1
1.151338246E1,2.290561765E-2,-8.990327954E-2,-6.571305603E-2,1.136902490E-1
1.152332646E1,-1.469171405E-2,-2.764271200E-2,-8.528105557E-2,9.084505725E-2
1.153326946E1,-3.007570188E-3,-6.018363655E-2,4.637075901E-2,7.603527390E-2
1.154321346E1,3.957089488E-2,-6.986954927E-2,3.218015134E-3,8.036146626E-2
1.155315746E1,1.771675279E-2,3.081131816E-2,2.752869129E-2,4.495608413E-2
1.156310146E1,-4.155396894E-2,-7.613074780E-3,-9.863901973E-2,1.073049274E-1
1.157304546E1,-2.144496490E-2,-2.554940879E-2,-5.260798395E-2,6.229172324E-2
1.158298946E1,-1.886939432E-2,-1.268261075E-2,-5.297109604E-2,5.764407752E-2
1.159293246E1,2.940720068E-2,-8.604704082E-2,-1.722940564E-2,9.255122422E-2
1.160287646E1,5.332664330E-2,-4.571353197E-3,-1.483941472E-1,1.577512316E-1
1.161282046E1,2.863593467E-2,-3.803906143E-2,-4.436604112E-2,6.507943265E-2
1.162276446E1,-2.457656002E-2,-1.789949656E-2,-1.245661587E-1,1.282229588E-1
1.163270846E1,-3.051219653E-2,-1.442478865E-1,-2.932378650E-2,1.503274139E-1
1.164265146E1,-1.393000457E-2,-1.344421059E-1,9.735263228E-2,1.665720861E-1
1.165259546E1,-6.355113940E-2,-1.116771412E-1,8.611048311E-2,1.546788495E-1
1.166253946E1,-9.789846987E-2,-3.188428223E-2,1.030875814E-1,1.456975199E-1
1.167248346E1,-4.662680310E-2,-4.218064427E-2,4.448210835E-2,7.701898131E-2
1.168242746E1,-4.865495553E-2,5.475274265E-2,5.572981238E-3,7.345900656E-2
1.169237146E1,-1.001844206E-1,-8.741236567E-2,-1.390087813E-2,1.336827371E-1
1.170231446E1,-1.002535456E-1,-2.734216511E-2,1.314956939E-1,1.675991794E-1
1.171225846E1,-3.306741150E-2,-4.569715977E-2,1.166092676E-1,1.295353442E-1
1.172220246E1,-3.783278262E-2,4.464933872E-3,3.774260759E-2,5.362610841E-2
1.173214646E1,-3.099540495E-2,-6.263888240E-2,-1.619807374E-1,1.764145800E-1
1.174209046E1,-7.069358641E-2,-1.945544064E-2,3.797591150E-2,8.257279930E-2
1.175203446E1,-1.195850618E-2,-1.112719291E-1,-1.687944978E-2,1.131784605E-1
1.176197746E1,1.508477485E-2,-9.428401351E-2,3.690528631E-2,1.023671129E-1
1.177192146E1,6.393696427E-2,-7.907657504E-2,-8.006592393E-2,1.294279425E-1
1.178186546E1,5.450156819E-2,-8.893848896E-2,-5.783481002E-3,1.044697296E-1
1.179180946E1,2.033394825E-2,-5.614496469E-3,-6.431703329E-2,6.768805503E-2
1.180175375E1,-9.805141110E-4,-7.807904005E-2,7.347026467E-3,7.843007523E-2
1.181169675E1,7.282656846E-2,-6.814929843E-2,-9.310521483E-3,1.001734584E-1
1.182164075E1,3.706411131E-2,-7.928590536E-2,2.139116138E-2,9.009764104E-2
1.183158475E1,-5.715543665E-3,-6.899714470E-4,4.112843782E-2,4.152941003E-2
1.184152875E1,5.215754734E-2,-8.521030426E-2,-3.090838194E-3,9.995378421E-2
1.185147275E1,-2.458438980E-2,6.807211518E-2,-5.787807941E-2,9.267187904E-2
1.186141675E1,-2.975308176E-2,-8.538572073E-2,1.292702436E-2,9.134043539E-2
1.187135975E1,1.471631804E-2,4.387692153E-2,7.416082084E-2,8.741614043E-2
1.188130375E1,2.890236670E-2,2.327951968E-2,8.973721862E-3,3.818128496E-2
1.189124775E1,-2.282474334E-2,1.707211554E-2,-4.751388967E-2,5.540754235E-2
1.190119175E1,-1.076044824E-2,-6.795341671E-2,-1.193565819E-1,1.377659164E-1
1.191113575E1,-2.971043363E-2,3.620595932E-2,3.376883984E-2,5.774007188E-2
1.192107875E1,1.662947218E-2,-8.338772714E-2,-2.394639462E-2,8.833732053E-2
1.193102275E1,-4.795392919E-2,-5.558363199E-3,-1.778430641E-2,5.144663527E-2
1.194096675E1,2.437749887E-3,-9.161300540E-2,-8.510213077E-2,1.250650153E-1
1.195091075E1,2.165504440E-2,-4.344890535E-2,-2.221123338E-2,5.338620807E-2
1.196085475E1,-1.271255946E-2,-1.223763764E-1,-6.662726820E-2,1.399170452E-1
1.197079875E1,-7.988097833E-2,-6.643021703E-2,2.193115175E-2,1.061834255E-1
1.198074175E1,-3.974124986E-2,2.208961129E-2,-8.941737592E-2,1.003134337E-1
1.199068575E1,-7.928729407E-2,-5.258751869E-2,7.376905739E-2,1.203901821E-1
1.200062975E1,-5.217846941E-2,-2.192121148E-2,-8.329124808E-2,1.007003684E-1
1.201057375E1,-5.652432108E-2,-3.350045264E-2,2.827041060E-2,7.152968136E-2
1.202051775E1,-1.024581286E-1,3.221464992E-2,-1.302543300E-1,1.688242941E-1
1.203046075E1,-3.096111652E-2,-1.116490746E-1,-3.239065111E-2,1.203048663E-1
1.204040475E1,2.671126882E-3,-1.345795155E-2,2.832362026E-2,3.147187384E-2
1.205034875E1,-1.698818059E-2,-1.020725048E-1,2.572482526E-3,1.035085126E-1
1.206029275E1,-2.188245540E-2,-1.017415524E-4,-1.430904302E-1,1.447540100E-1
1.207023675E1,-5.389332986E-3,-1.502822131E-1,-1.288390115E-1,1.980234313E-1
1.208018075E1,1.844664062E-2,-6.462927461E-3,-2.105933189E-2,2.873227178E-2
1.209012375E1,4.788675017E-2,-3.758941054E-2,1.202292788E-1,1.347634376E-1
1.210006775E1,-8.632673873E-3,6.698219419E-2,5.301202655E-2,8.585692957E-2
1.211001175E1,4.326928619E-2,1.201544344E-2,-2.243869007E-2,5.020056594E-2
1.211995575E1,1.968740151E-2,1.085290003E-1,-2.294681311E-2,1.126618565E-1
1.212989975E1,4.271936470E-2,-1.441157395E-1,-4.478265524E-2,1.568431595E-1
1.213984275E1,7.287371163E-2,-4.276712000E-2,1.492665517E-1,1.715229077E-1
1.214978675E1,9.134655509E-2,6.864046454E-2,-3.712104857E-2,1.201402462E-1
1.215973075E1,1.334023979E-2,-4.701746106E-3,-2.620722055E-2,2.978064511E-2
1.216967475E1,9.142632390E-2,-8.640956819E-2,-7.243706167E-2,1.451637492E-1
1.217961875E1,6.068039406E-4,2.514302731E-2,1.317979950E-1,1.341761958E-1
1.218956275E1,5.686000608E-2,-1.142908466E-1,1.200988859E-2,1.282173753E-1
1.219950575E1,-2.262770131E-2,-9.076398969E-2,-1.320710599E-2,9.446979591E-2
1.220944975E1,-3.400466535E-2,-5.467205107E-2,-7.529284179E-2,9.906746418E-2
1.221939375E1,7.905225428E-3,-7.918299437E-2,1.525825077E-1,1.720867829E-1
1.222933775E1,-8.009397229E-3,-6.511751711E-2,-8.211888134E-2,1.051092391E-1
1.223928175E1,-8.864338730E-2,-1.382948363E-1,2.037052989E-2,1.655236247E-1
1.224922475E1,-7.854497178E-2,-5.511234641E-2,-7.314983726E-2,1.206548052E-1
1.225916875E1,-6.311846372E-2,-9.171357751E-2,8.040623188E-2,1.373334733E-1
1.226911275E1,-2.185236052E-2,-3.202520013E-2,5.855401754E-2,7.022614950E-2
1.227905675E1,-2.918692511E-3,-9.289529979E-2,1.237417012E-2,9.376126906E-2
1.228900075E1,-1.583502743E-1,1.345888710E-1,-8.834031880E-2,2.258162649E-1
1.229894475E1,-5.107066873E-2,-6.639571846E-2,-5.155431569E-2,9.835879269E-2
1.230888775E1,1.512281829E-2,2.420747280E-4,5.330964983E-2,5.541368962E-2
1.231883175E1,-7.198854368E-3,-3.952659309E-2,8.859057963E-2,9.727520683E-2
1.232877575E1,-5.040900146E-2,1.048487628E-1,-8.075472593E-2,1.416179940E-1
1.233871975E1,-1.009466965E-2,-8.957992852E-2,-1.498638448E-1,1.748875008E-1
1.234866375E1,-5.136217070E-2,-1.242825687E-2,3.448190778E-2,6.309941451E-2
1.235860775E1,4.125739633E-2,-7.525015712E-2,4.043261915E-2,9.486598753E-2
1.236855075E1,-5.632805564E-3,-4.826876521E-3,8.995531976E-2,9.026066025E-2
1.237849475E1,3.516625129E-2,-1.463774425E-1,-1.564896172E-1,2.171451616E-1
1.238843875E1,8.579007396E-3,-1.945251703E-2,-7.070453167E-3,2.240515777E-2
1.239838275E1,1.902793609E-3,-8.788423598E-2,-9.718891025E-2,1.310455792E-1
1.240832675E1,1.706143524E-2,-1.450629884E-1,5.586166710E-2,1.563805903E-1
1.241826975E1,6.930698317E-2,-5.909839332E-2,-7.275924325E-2,1.165760931E-1
1.242821375E1,2.436446141E-2,2.441387951E-2,-1.224582374E-2,3.660088375E-2
1.243815775E1,7.908149949E-2,-2.365900397E-2,-8.590261459E-2,1.191339214E-1
1.244810175E1,-1.388695445E-3,-1.174389875E-1,9.285904706E-2,1.497218985E-1
1.245804575E1,-1.924855884E-2,1.159678280E-2,-5.310792089E-2,5.766665978E-2
1.246798975E1,8.238261818E-2,-5.835287333E-2,5.282199204E-2,1.139390909E-1
1.247793275E1,1.365972617E-2,2.865720391E-2,-1.288515830E-1,1.327047622E-1
1.248787675E1,8.677770523E-3,-7.487476587E-2,8.582572371E-2,1.142260439E-1
1.249782075E1,1.669309719E-2,1.158707643E-1,1.896515161E-2,1.185932986E-1
1.250776475E1,3.265715623E-3,-8.472323120E-2,-7.201430798E-3,8.509142970E-2
1.251770875E1,-4.569963570E-2,-1.817373097E-2,3.725875050E-2,6.170053232E-2
1.252765275E1,-7.020065700E-2,-1.987293184E-2,-5.795175433E-3,7.318913663E-2
1.253759575E1,-4.510703866E-2,1.280013978E-2,-1.338310719E-2,4.876059960E-2
1.254753975E1,2.055564908E-2,-1.519936931E-1,5.708665878E-2,1.636566652E-1
1.255748375E1,-1.037895762E-1,4.308579326E-2,2.124878168E-3,1.123974057E-1
1.256742775E1,-9.263698990E-2,-1.036886752E-1,-1.399510601E-1,1.972796302E-1
1.257737175E1,2.104716238E-2,-6.011814773E-2,-2.411801040E-2,6.810912682E-2
1.258731475E1,8.846973413E-2,-2.113850319E-1,-8.122367263E-3,2.292956573E-1
1.259725875E1,-1.862445993E-2,-1.225985706E-2,9.385482788E-2,9.646711004E-2
1.260720275E1,-2.446993969E-2,-1.476714313E-2,-2.550070149E-1,2.566036323E-1
1.261714675E1,-2.073602655E-2,-8.769127786E-2,-4.978933364E-2,1.029500887E-1
1.262709075E1,4.467378739E-2,-1.269255102E-1,-1.695224762E-2,1.356215732E-1
1.263703475E1,-7.976771593E-3,7.582493842E-2,1.761894715E-1,1.919785926E-1
1.264697775E1,-5.364929996E-3,1.053317428E-2,-4.027094364E-2,4.196997898E-2
1.265692175E1,1.296933445E-2,-3.436525583E-2,-5.833211571E-2,6.893337485E-2
1.266686575E1,-5.663912751E-2,5.944162488E-2,-3.949092507E-2,9.110889472E-2
1.267680975E1,-6.374803525E-2,-6.231903970E-2,1.240586203E-1,1.527678500E-1
1.268675375E1,2.082756288E-2,-3.533121586E-2,-1.647745371E-3,4.104628186E-2
1.269669675E1,6.349434832E-2,-7.278614044E-3,-4.387224376E-2,7.751957342E-2
1.270664075E1,-1.262729061E-2,1.136663640E-1,-1.355443060E-1,1.773464115E-1
1.271658475E1,2.101688476E-2,-1.278347522E-1,8.755123705E-2,1.563606486E-1
1.272652875E1,-3.896998384E-2,3.159484506E-2,5.241327167E-2,7.255373816E-2
1.273647275E1,7.098380017E-2,-1.018959188E-1,-1.876196086E-2,1.255925529E-1
1.274641675E1,-4.073492934E-2,2.606220961E-2,-7.040837020E-2,8.541610991E-2
1.275635975E1,-3.519640099E-3,-1.549471217E-1,-6.887727678E-2,1.696027053E-1
1.276630375E1,-1.552153445E-2,-4.605734825E-2,9.397060275E-2,1.057954231E-1
1.277624775E1,2.434348452E-2,-1.596436054E-1,-3.731020600E-2,1.657429861E-1
1.278619175E1,-8.017533082E-2,-3.676378369E-2,-6.579813302E-2,1.100411458E-1
1.279613575E1,8.030328434E-4,-1.543109447E-1,-6.217081279E-2,1.663662300E-1
1.280607846E1,-2.960043289E-2,3.224564016E-2,5.020243943E-2,6.660519395E-2
1.281602246E1,3.184813913E-3,-8.498167813E-2,6.245001733E-2,1.055084514E-1
1.282596646E1,-4.218547736E-2,-2.345961392E-2,-2.206329882E-2,5.307313012E-2
1.283591046E1,-2.049374169E-2,-3.879101336E-2,-2.131231168E-1,2.175918176E-1
1.284585446E1,-1.911177054E-2,3.388578415E-2,3.749117732E-2,5.402864534E-2
1.285579846E1,4.106089334E-2,-2.232291520E-2,3.065812111E-2,5.589481098E-2
1.286574146E1,4.797422086E-2,-4.332319021E-2,1.053121546E-1,1.235680969E-1
1.287568546E1,1.301408392E-2,3.408225060E-2,-1.180672708E-1,1.235752670E-1
1.288562946E1,-4.229781699E-2,4.324600697E-3,-3.812969327E-2,5.711112853E-2
1.289557346E1,-1.645760972E-2,-9.563355088E-2,-1.867659152E-2,9.882026130E-2
1.290551746E1,2.897607816E-2,-1.098604113E-1,9.951025486E-2,1.510338171E-1
1.291546146E1,-3.485248421E-2,4.317174733E-2,-6.123701245E-2,8.263453949E-2
1.292540446E1,-2.197041946E-2,-7.407895982E-2,-1.989456654E-2,7.978837883E-2
1.293534846E1,-7.782308732E-2,-2.076170862E-2,-6.861766040E-2,1.058105136E-1
1.294529246E1,-4.555598605E-2,-1.913413614E-1,5.500943542E-2,2.042373679E-1
1.295523646E1,-6.919370251E-2,4.129420638E-2,-2.460186750E-2,8.425100493E-2
1.296518046E1,5.572447680E-2,-1.129980272E-1,-8.980387688E-2,1.547207412E-1
1.297512446E1,-1.984688432E-2,9.405538738E-2,-8.845901728E-2,1.306342698E-1
1.298506746E1,1.423498255E-2,-1.662714243E-2,4.695957363E-2,5.181021278E-2
1.299501146E1,-3.694352162E-2,2.708137929E-2,9.007460296E-2,1.010527535E-1
1.300495546E1,8.879665744E-2,-2.209756351E-1,-1.029700524E-1,2.594569508E-1
1.301489946E1,-4.384214887E-3,3.793673515E-2,-1.977469862E-2,4.300530106E-2
1.302484346E1,3.532302062E-2,-1.422580791E-1,-8.174407482E-2,1.678307797E-1
1.303478646E1,-7.280523526E-3,-3.106976509E-2,1.135906425E-1,1.179880095E-1
1.304473046E1,2.569152354E-2,1.912039518E-4,2.067780107E-2,3.297972708E-2
1.305467446E1,-1.886033113E-2,4.504694939E-3,-3.929504335E-2,4.381900043E-2
1.306461846E1,-2.883398169E-2,-6.040875435E-2,-1.067853606E-1,1.260306682E-1
1.307456246E1,-1.188399986E-2,1.125413597E-2,5.594645172E-2,5.829142724E-2
1.308450646E1,-2.721689765E-2,-3.214857638E-2,-2.122568518E-2,4.716799966E-2
1.309444946E1,-7.796783332E-2,-4.762030900E-2,8.159204721E-2,1.224905671E-1
1.310439346E1,-7.417299950E-2,2.362918317E-2,-1.700136423E-1,1.869882636E-1
1.311433746E1,-1.787440835E-2,-6.969062448E-2,6.172788620E-2,9.479772966E-2
1.312428146E1,2.343782390E-2,-3.463247359E-2,-2.715446949E-3,4.190600754E-2
1.313422546E1,5.975168263E-2,-1.180161077E-1,2.386599541E-2,1.344159625E-1
1.314416946E1,4.606829351E-2,3.741925657E-2,-3.961079299E-2,7.135477104E-2
1.315411246E1,2.700086131E-2,-1.003867525E-1,-3.519556046E-2,1.097509638E-1
1.316405646E1,-6.373412071E-2,2.806663513E-4,-3.531659782E-2,7.286548564E-2
1.317400046E1,3.545760708E-2,-1.223576653E-1,1.194556922E-2,1.279505247E-1
1.318394446E1,6.171187945E-4,6.619223535E-2,-3.640768826E-2,7.554675784E-2
1.319388846E1,2.620959599E-2,-1.417446935E-1,-2.505298018E-2,1.463084170E-1
1.320383146E1,-1.453028065E-1,1.177325177E-1,2.372566223E-2,1.885119581E-1
1.321377546E1,-3.299997666E-2,-1.717210293E-1,-4.111703575E-2,1.796321825E-1
1.322371946E1,-5.124465080E-2,-7.106705904E-2,4.052588224E-2,9.653438894E-2
1.323366346E1,3.649479350E-2,-6.227226198E-2,-5.682265699E-2,9.186141144E-2
1.324360746E1,6.833586115E-3,5.201098323E-2,-1.845849037E-2,5.561075564E-2
1.325355146E1,-3.101436272E-3,-9.504473627E-2,-9.292307407E-2,1.329579576E-1
1.326349446E1,-6.274553013E-2,6.944504142E-2,7.985776305E-2,1.230320188E-1
1.327343846E1,3.326726750E-2,-2.364438593E-2,-3.176675320E-2,5.171938401E-2
1.328338246E1,1.965388052E-2,-1.205111146E-3,4.477096081E-2,4.890977657E-2
1.329332646E1,-4.292857625E-2,-2.347890973E-2,-8.529742777E-2,9.833500417E-2
1.330327046E1,2.833610041E-2,-8.270301819E-2,8.102077425E-2,1.191934967E-1
1.331321446E1,2.448668648E-2,-3.528619230E-2,-5.212032616E-2,6.753696455E-2
1.332315746E1,-2.032546978E-3,-1.515118825E-1,-2.051787972E-3,1.515394062E-1
1.333310146E1,-6.723366100E-2,-1.018637592E-1,-1.421937597E-1,1.873917178E-1
1.334304546E1,4.037456727E-2,-1.242556715E-1,2.822509468E-2,1.336646309E-1
1.335298946E1,4.024711624E-3,3.636032581E-2,-5.695421934E-2,6.769087603E-2
1.336293346E1,-6.178350784E-3,-9.457403541E-2,8.939837247E-2,1.302861819E-1
1.337287746E1,-7.596084050E-2,5.096667051E-2,-8.165402770E-2,1.226174173E-1
1.338282046E1,-1.306666318E-2,-1.065660900E-1,-5.749274790E-3,1.075180142E-1
1.339276446E1,-7.327643861E-2,5.910131693E-2,1.747528106E-2,9.574856430E-2
1.340270846E1,3.955782088E-2,-1.340368938E-1,2.633410513E-2,1.422117970E-1
1.341265246E1,2.214975539E-2,1.285346639E-1,-6.540110707E-4,1.304308216E-1
1.342259646E1,2.075418946E-2,-5.086317480E-2,-3.220324785E-2,6.367768920E-2
1.343253946E1,-5.705683798E-2,9.100606441E-3,2.490621507E-2,6.291759171E-2
1.344248346E1,4.264751703E-2,-1.331299907E-1,-2.592246115E-2,1.421772806E-1
1.345242746E1,-2.175206250E-2,1.124285084E-1,2.897821605E-2,1.181230660E-1
1.346237146E1,9.860826703E-3,-1.750182742E-1,-9.470296651E-2,1.992417729E-1
1.347231546E1,-4.654045617E-2,1.621023595E-2,6.676263124E-2,8.298213507E-2
1.348225946E1,-1.263493767E-2,-2.164288402E-2,-7.832813144E-2,8.223960270E-2
1.349220246E1,-3.655195003E-2,-4.335593462E-2,9.959387004E-2,1.146068107E-1
1.350214646E1,-7.323503301E-2,-1.003154165E-1,-1.108924448E-1,1.665043158E-1
1.351209046E1,5.556864850E-4,-4.984985232E-2,4.847663373E-2,6.953632563E-2
1.352203446E1,1.176247828E-2,-1.925371170E-2,-1.774723506E-1,1.789008008E-1
1.353197846E1,-1.123164246E-2,-1.116058052E-1,3.065987527E-2,1.162842788E-1
1.354192246E1,-2.696927721E-2,-5.663730025E-2,-8.295474082E-2,1.040029553E-1
1.355186546E1,7.879236382E-2,-1.084483087E-1,7.575301766E-2,1.539733482E-1
1.356180946E1,-3.298555962E-2,1.036717182E-1,-9.656881303E-2,1.454696118E-1
1.357175346E1,-6.192859188E-3,-1.757544386E-1,5.436156392E-2,1.840737728E-1
1.358169746E1,-1.005597753E-2,9.916293025E-2,-1.914056808E-2,1.014927129E-1
1.359164146E1,5.190365941E-2,-1.622017622E-2,6.992626727E-2,8.858197803E-2
1.360158546E1,-2.594005762E-2,3.183808923E-3,-6.810018182E-2,7.294284058E-2
1.361152846E1,-2.368125994E-2,-1.682425207E-1,4.507793963E-2,1.757793176E-1
1.362147246E1,-3.305607338E-2,1.113625610E-1,5.648351848E-2,1.291693146E-1
1.363141646E1,2.206231210E-2,-1.569152945E-1,1.331411004E-3,1.584642797E-1
1.364136046E1,-3.122603193E-2,-2.078743637E-2,-4.179472804E-2,5.616032294E-2
1.365130446E1,2.692207921E-2,-1.139341664E-1,-1.240901953E-1,1.705994408E-1
1.366124746E1,-3.259787095E-2,5.909839332E-2,2.291816175E-2,7.127750993E-2
1.367119146E1,5.060963404E-2,-1.360191000E-1,-4.283260882E-2,1.513180855E-1
1.368113546E1,3.920081181E-2,3.688365161E-2,6.122911870E-2,8.152369214E-2
1.369107946E1,3.588483755E-2,-4.759282708E-2,-1.159365454E-1,1.303613490E-1
1.370102346E1,-4.266901469E-2,5.340262055E-3,4.729637325E-2,6.392268874E-2
1.371096746E1,2.010650983E-2,-1.016713858E-1,-5.849671483E-2,1.190092772E-1
1.372091046E1,-3.666587938E-3,1.721186399E-2,1.031577480E-1,1.046480439E-1
1.373085446E1,-2.249739977E-2,-8.613533378E-3,-1.371794799E-1,1.392786260E-1
1.374079846E1,-4.910975927E-3,-1.190487260E-1,9.999440432E-2,1.555493418E-1
1.375074246E1,-4.577496428E-2,-2.286027431E-2,-1.218439874E-1,1.321510377E-1
1.376068646E1,-4.568406749E-2,-9.609080315E-2,5.053339183E-2,1.177883702E-1
1.377062946E1,-1.055163503E-1,-6.175244451E-2,-1.165092802E-1,1.688830275E-1
1.378057346E1,4.446357085E-2,-1.947900492E-1,6.384516299E-2,2.097531340E-1
1.379051746E1,1.443380616E-2,5.403762817E-2,-7.735135406E-2,9.545486889E-2
1.380046146E1,-4.870529640E-3,-6.718918562E-2,3.456464589E-2,7.571541104E-2
1.381040537E1,-6.159625076E-2,1.567755461E-2,-5.689516246E-2,8.530500183E-2
1.382034938E1,3.745063053E-2,-1.208982003E-1,4.211866379E-2,1.333900536E-1
1.383029238E1,-3.907489568E-2,8.719367981E-2,-5.614496469E-2,1.108234737E-1
1.384023638E1,-1.264847763E-2,-1.342064631E-1,1.993374288E-2,1.362670644E-1
1.385018038E1,-3.341592383E-3,-1.332346559E-2,2.653174102E-2,2.987665069E-2
1.386012437E1,2.123721516E-2,2.545760751E-2,4.461805612E-2,5.558668923E-2
1.387006838E1,-3.188472991E-2,5.958254278E-2,-8.067988157E-3,6.805738636E-2
1.388001238E1,-1.789319253E-2,-1.730998027E-1,-4.441603482E-2,1.796009248E-1
1.388995538E1,-6.439960694E-2,1.243217450E-1,1.312588817E-1,1.919169083E-1
1.389989938E1,2.716017053E-2,-4.002243698E-2,-5.094912887E-2,7.025157690E-2
1.390984337E1,3.245719973E-2,-6.279383361E-2,2.640251756E-2,7.545613486E-2
1.391978738E1,3.224849068E-2,-5.411656559E-2,-1.392046630E-1,1.527956349E-1
1.392973138E1,-6.375464992E-2,6.695354283E-2,5.793187380E-2,1.091033193E-1
1.393967438E1,1.539801202E-2,-9.903838456E-2,-8.182476640E-2,1.293869885E-1
1.394961838E1,1.034127688E-1,-1.048779988E-1,6.007955611E-2,1.590696340E-1
1.395956237E1,1.062232422E-1,-7.133603096E-2,-1.261688805E-1,1.796963908E-1
1.396950638E1,-3.035837822E-2,-1.090447247E-2,-7.811880112E-3,3.318981950E-2
1.397945038E1,2.073817357E-2,-7.565244555E-2,-1.703919572E-1,1.875814048E-1
1.398939438E1,5.085839652E-2,-9.045818031E-2,8.904549301E-2,1.367419420E-1
1.399933738E1,-2.934495525E-2,1.245152879E-1,-1.093487799E-1,1.682924210E-1
1.400928137E1,-1.647249271E-2,-1.405974698E-1,5.534915864E-2,1.519951344E-1
1.401922538E1,7.399523500E-3,9.336833954E-3,-5.738720566E-2,5.861075661E-2
1.402916938E1,-5.734436567E-2,2.418232977E-2,4.372957170E-2,7.606205880E-2
1.403911338E1,-1.119991309E-1,-1.657100916E-2,-7.669792771E-3,1.134778806E-1
1.404905737E1,-4.569286572E-2,-1.286621332E-1,3.783967137E-2,1.416814146E-1
1.405900037E1,1.873900141E-2,8.373505175E-2,-1.933381855E-2,8.795740791E-2
1.406894438E1,2.971987140E-2,-1.017807287E-1,-4.645992905E-2,1.157631742E-1
1.407888838E1,-6.453426649E-2,4.319338202E-3,-7.707653493E-2,1.006186885E-1
1.408883238E1,6.140115475E-3,-1.165092802E-1,-2.782426804E-2,1.199429168E-1
1.409877637E1,-2.871165611E-3,-6.702663302E-3,-5.528191566E-2,5.576073427E-2
1.410871937E1,-4.181253464E-2,-6.987422705E-2,1.254870951E-2,8.239032570E-2
1.411866338E1,-2.600696255E-2,-8.391514599E-2,8.678437471E-2,1.234894389E-1
1.412860738E1,1.333937184E-2,-7.190496504E-2,-7.130504072E-2,1.021404507E-1
1.413855138E1,-6.435828357E-2,1.064830595E-1,1.830763221E-2,1.257608843E-1
1.414849537E1,-3.164105633E-2,-1.589530492E-1,-3.091247499E-2,1.649933617E-1
1.415843937E1,-6.741008246E-2,-5.128125072E-2,1.050256410E-1,1.349232047E-1
1.416838238E1,-5.068862627E-2,7.248150051E-2,-6.517891288E-2,1.098689921E-1
1.417832638E1,2.268650237E-2,-6.424335837E-2,-8.165636659E-4,6.813628447E-2
1.418827038E1,3.403261322E-2,-8.593126595E-2,-8.138651758E-2,1.231509906E-1
1.419821437E1,-4.347201099E-2,3.943303764E-2,2.133064270E-2,6.244819064E-2
1.420815837E1,-6.954915840E-2,6.488655210E-3,-1.408211258E-1,1.571934399E-1
1.421810238E1,7.586130079E-2,-1.299198693E-1,1.200369054E-1,1.924654984E-1
1.422804538E1,1.014360536E-1,1.347373903E-2,-1.092639953E-2,1.029087014E-1
1.423798938E1,9.075244144E-4,-5.319329023E-2,4.848365039E-2,7.197926147E-2
1.424793337E1,-4.656940903E-2,4.529954910E-2,-1.736482716E-1,1.854035631E-1
1.425787737E1,8.537302131E-2,-2.106015050E-1,1.224231541E-2,2.275772857E-1
1.426782138E1,4.536818993E-2,-1.617866099E-2,4.954930544E-3,4.842079167E-2
1.427776438E1,-4.057054949E-2,-6.414746404E-2,8.796960533E-2,1.161874266E-1
1.428770838E1,4.986414146E-3,-2.939219892E-2,-7.647076339E-2,8.207644812E-2
1.429765237E1,3.113418496E-2,-1.318763477E-1,-9.860481352E-2,1.675816750E-1
1.430759638E1,-7.328525512E-2,6.881588101E-2,1.563603938E-2,1.017390772E-1
1.431754038E1,-5.565585424E-2,-1.916916096E-1,2.062839210E-2,2.006708197E-1
1.432748438E1,1.453213988E-2,-3.935877800E-2,1.109158337E-2,4.339723167E-2
1.433742738E1,3.763975142E-2,7.134187818E-3,-4.136758894E-2,5.638195577E-2
1.434737137E1,-5.563069294E-2,2.592947781E-2,4.703997284E-2,7.732962474E-2
1.435731538E1,7.301061871E-3,-1.092996633E-1,-5.302547514E-2,1.217021895E-1
1.436725938E1,3.979839725E-2,-3.579548478E-2,5.315002084E-2,7.543310858E-2
1.437720338E1,1.975402323E-2,-4.369741201E-2,-9.826596737E-2,1.093429723E-1
1.438714738E1,-3.177615442E-2,-3.989438295E-2,6.630216300E-2,8.364964196E-2
1.439709037E1,3.144221446E-3,8.326435089E-4,-5.827042758E-2,5.836113565E-2
1.440703438E1,-4.041124027E-2,3.499675512E-2,1.024730390E-1,1.155792583E-1
1.441697838E1,-1.584322267E-1,-5.964159966E-5,-1.861899644E-2,1.595225409E-1
1.442692238E1,-1.292402767E-1,-1.300257039E-1,9.329407990E-2,2.057024991E-1
1.443686638E1,-9.763840581E-2,8.612363935E-2,-9.531078458E-2,1.613526734E-1
1.444680937E1,-1.395522709E-1,-9.531195402E-2,3.015935361E-2,1.716647649E-1
1.445675338E1,-3.742865779E-2,-6.893516421E-2,-1.018292606E-2,7.909900930E-2
1.446669738E1,-3.038148385E-2,-8.028636396E-2,3.451611400E-3,8.591186426E-2
1.447664138E1,-1.220599050E-1,8.936007321E-2,-1.613281882E-1,2.211574719E-1
1.448658538E1,-2.957353570E-2,-1.481240058E-1,3.331831187E-2,1.546784568E-1
1.449652937E1,4.773196341E-2,-1.449349344E-2,2.048104227E-2,5.392471395E-2
1.450647238E1,8.950430757E-2,-1.816607112E-1,2.159786046E-2,2.036617358E-1
1.451641638E1,-3.707385971E-2,7.382694483E-2,-7.915141940E-2,1.144108214E-1
1.452636038E1,3.044267862E-2,-1.703843558E-1,-1.535934913E-1,2.314055876E-1
1.453630438E1,3.514811578E-2,-6.590513706E-2,3.262278557E-2,8.150535732E-2
1.454624837E1,6.258788371E-2,-1.054527801E-1,5.799853206E-2,1.356516190E-1
1.455619238E1,-2.704910997E-2,5.968954682E-2,8.221302152E-2,1.051355185E-1
1.456613538E1,3.765362028E-2,-8.242059767E-2,-1.082041875E-1,1.411350283E-1
1.457607938E1,-2.832786863E-2,5.439489305E-2,-5.740211606E-3,6.159726098E-2
1.458602338E1,4.383810150E-2,-1.470867097E-1,3.828698337E-2,1.581839828E-1
1.459596737E1,4.993415273E-2,-1.640260935E-2,1.446244472E-1,1.538788352E-1
1.460591138E1,9.098454849E-2,8.538689017E-3,-1.371634001E-1,1.648177648E-1
1.461585538E1,1.280025856E-2,-6.704592884E-2,5.599527597E-2,8.828631901E-2
1.462579838E1,2.835406233E-2,-7.411696672E-2,-1.680402070E-2,8.111505852E-2
1.463574238E1,6.928889335E-2,-7.694351077E-2,8.845083117E-2,1.361793087E-1
1.464568637E1,5.114716675E-2,-1.980510414E-2,-7.191373587E-2,9.044257970E-2
1.465563038E1,3.793710060E-3,-1.085588211E-1,6.202667892E-2,1.250868449E-1
1.466557438E1,-5.498858644E-3,9.216966033E-3,-9.169925183E-2,9.232520076E-2
1.467551738E1,8.824128158E-2,-1.062930250E-1,9.086251527E-2,1.653503179E-1
1.468546138E1,-4.212096613E-2,3.652053952E-2,-3.004240930E-2,6.332828713E-2
1.469540537E1,-7.670421347E-2,-1.635255718E-1,3.925996006E-2,1.848391016E-1
1.470534938E1,-5.378469042E-2,7.560859144E-2,-1.043450251E-1,1.396328625E-1
1.471529338E1,-1.710530763E-2,-1.323107958E-1,2.013196349E-2,1.349223265E-1
1.472523738E1,-9.272458850E-2,-2.336313486E-2,3.515638411E-2,1.018806003E-1
1.473518038E1,-2.944036536E-2,-1.081050771E-1,-4.533697128E-2,1.208672155E-1
1.474512437E1,-1.200826233E-1,1.087149417E-1,-1.830716443E-1,2.444463171E-1
1.475506838E1,-6.329271074E-2,-1.420276988E-1,-8.767315149E-2,1.785060670E-1
1.476501238E1,-9.270011242E-3,-1.439467549E-2,1.225538394E-1,1.237440234E-1
1.477495638E1,3.727835694E-2,-6.162263632E-2,1.610410899E-2,7.379950901E-2
1.478490037E1,-7.756595601E-2,7.552614570E-2,3.914535463E-2,1.151218268E-1
1.479484337E1,-3.246050706E-2,-2.646566749E-2,-1.401174134E-1,1.462429677E-1
1.480478846E1,-3.198310931E-2,-4.525569499E-2,6.110866606E-2,8.249403783E-2
1.481473246E1,4.289123629E-2,-5.864231050E-2,-7.824013084E-2,1.067712359E-1
1.482467646E1,1.462181241E-2,9.946113825E-4,8.258870512E-2,8.387896556E-2
1.483462046E1,3.186915256E-4,-3.469737768E-3,-1.717257071E-1,1.717610524E-1
1.484456346E1,-7.348405131E-2,-2.727726102E-3,-2.382360309E-2,7.729754428E-2
1.485450746E1,-3.042935793E-2,8.624643087E-3,-1.026402694E-1,1.074027709E-1
1.486445146E1,-6.246743107E-2,-1.037214196E-1,1.694698513E-1,2.082794836E-1
1.487439546E1,-3.266398103E-2,1.232242227E-2,-3.179715872E-2,4.722115045E-2
1.488433946E1,2.419584232E-2,-6.464330792E-2,1.871459842E-2,7.151525878E-2
1.489428346E1,-6.387166732E-2,7.882865310E-2,-1.102784872E-2,1.020546906E-1
1.490422646E1,2.563796670E-2,-1.950391406E-1,6.447900116E-2,2.070147659E-1
1.491417046E1,5.114057036E-3,2.450041831E-2,-1.330826283E-2,2.834667416E-2
1.492411446E1,3.874126635E-2,-1.405518615E-1,-1.958232522E-2,1.471026137E-1
1.493405846E1,-5.183026772E-3,-3.466404855E-2,-1.076706290E-1,1.132317287E-1
1.494400246E1,1.043242949E-1,-1.545150125E-1,-5.770646363E-2,1.951627104E-1
1.495394646E1,6.286108573E-2,3.748416066E-2,7.026043564E-2,1.014549517E-1
1.496388946E1,3.889095507E-2,-1.795697469E-1,-4.947855413E-2,1.902785529E-1
1.497383346E1,-3.081436967E-3,5.725944400E-2,9.747308493E-3,5.816484508E-2
1.498377746E1,8.553913705E-2,-1.113894582E-2,-8.526409864E-3,8.668171518E-2
1.499372146E1,6.194942258E-3,1.362108886E-2,1.422680193E-1,1.430527899E-1
1.500366546E1,-1.183900371E-2,-1.155824965E-1,-3.199801058E-2,1.205128549E-1
1.501360946E1,-2.971472768E-3,-5.268341303E-3,-1.223293063E-1,1.224787502E-1
1.502355246E1,-1.277425672E-2,-3.489852190E-2,-2.136514127E-1,2.168594352E-1
1.503349646E1,-2.717349121E-2,-8.933025241E-2,7.690930456E-2,1.209683171E-1
1.504344046E1,-2.945220597E-2,-3.024472296E-2,-4.918326974E-2,6.481643099E-2
1.505338446E1,-2.595929861E-2,-3.347238600E-2,-1.455196559E-2,4.478889943E-2
1.506332846E1,-4.274006750E-2,-1.165934801E-3,-1.392531949E-1,1.456692317E-1
1.507327146E1,-6.283493771E-2,-1.087792611E-1,6.773531556E-2,1.427208114E-1
1.508321546E1,-1.165053973E-1,-1.589156270E-2,-1.712123215E-2,1.188241808E-1
1.509315946E1,-2.612507631E-2,-5.644434214E-2,9.435242593E-2,1.130082459E-1
1.510310346E1,-4.397439645E-2,6.330137193E-2,-1.272500306E-1,1.487729193E-1
1.511304746E1,-5.959372558E-2,-6.485673130E-2,-9.152939022E-3,8.855271885E-2
1.512299146E1,-6.317399399E-2,1.157029492E-1,-6.027777672E-2,1.449535661E-1
1.513293446E1,2.434882924E-2,-1.344690031E-1,2.464045912E-2,1.388593911E-1
1.514287846E1,-1.732704501E-2,5.927322507E-2,4.166579694E-2,7.449550546E-2
1.515282246E1,6.094634187E-2,-4.509548128E-2,7.446429133E-4,7.581961166E-2
1.516276646E1,-1.673253849E-3,7.742005885E-2,-1.328311980E-2,7.856911965E-2
1.517271046E1,5.890201824E-2,-1.393385643E-1,-3.885942578E-2,1.561881501E-1
1.518265446E1,4.020215663E-2,1.652247727E-2,-1.927008390E-2,4.754515524E-2
1.519259746E1,7.428554012E-2,-1.615954059E-1,-3.127149403E-2,1.805805168E-1
1.520254146E1,-1.522473344E-2,3.930322945E-2,1.665316254E-2,4.531957829E-2
1.521248546E1,1.535148097E-2,-1.048657197E-1,-1.077592143E-1,1.511440882E-1
1.522242946E1,2.157036027E-2,-1.049621987E-1,8.692003012E-2,1.379762126E-1
1.523237346E1,-1.060699537E-2,-7.830708146E-2,-9.751927793E-2,1.255169986E-1
1.524231646E1,-1.977556656E-2,-1.011287642E-1,3.212314099E-2,1.079351479E-1
1.525226046E1,-7.009892458E-2,-4.445404172E-2,-8.381983638E-2,1.179651899E-1
1.526220446E1,-4.819410358E-2,-7.470870495E-2,7.324339271E-2,1.151896557E-1
1.527214846E1,-1.371226888E-2,-2.021616340E-2,1.604943752E-2,2.922847969E-2
1.528209246E1,2.832214932E-2,-1.014988929E-1,3.289146513E-2,1.103902979E-1
1.529203646E1,-6.835992610E-2,9.943190217E-2,-1.163055047E-1,1.675910293E-1
1.530197946E1,-4.419392285E-2,-7.540627778E-2,8.233873665E-2,1.200786288E-1
1.531192346E1,1.358595075E-2,6.318091929E-2,-4.768053532E-2,8.031089632E-2
1.532186746E1,4.560856531E-2,-7.329543293E-2,5.123271883E-2,1.003850248E-1
1.533181146E1,2.175712399E-4,7.869007409E-2,-7.126995742E-2,1.061677066E-1
1.534175546E1,4.786164369E-2,-1.412710690E-1,-2.769650638E-2,1.517081025E-1
1.535169946E1,-6.381640200E-2,4.489258289E-2,-7.008735806E-2,1.048814327E-1
1.536164246E1,9.197377861E-3,-1.518662238E-1,6.624895334E-4,1.521459187E-1
1.537158646E1,-8.060834454E-3,2.949277103E-2,5.066407710E-2,5.917473535E-2
1.538153046E1,-2.294282969E-3,-9.510554731E-2,-8.918758035E-3,9.555036948E-2
1.539147446E1,-1.040206965E-1,1.126787692E-1,-2.401568413E-2,1.552210148E-1
1.540141846E1,-8.172178231E-3,-1.507049668E-1,-4.940020144E-2,1.588053885E-1
1.541136246E1,-7.730646755E-2,2.764212728E-2,8.006475449E-2,1.146766848E-1
1.542130546E1,2.200214974E-2,-1.255005437E-1,-2.274157584E-2,1.294282053E-1
1.543124946E1,-1.825474232E-2,4.925109744E-3,3.244824618E-2,3.755503965E-2
1.544119346E1,2.870653979E-3,-8.823682308E-2,-6.732688755E-2,1.110265166E-1
1.545113746E1,1.620857315E-2,-5.178645015E-2,2.356778741E-2,5.916075444E-2
1.546108146E1,1.166164122E-2,-1.010217601E-1,-9.351627409E-2,1.381545635E-1
1.547102546E1,1.908554943E-2,-8.061790109E-2,5.133592218E-2,9.746220334E-2
1.548096846E1,5.089643997E-2,-7.451574683E-2,-1.668959069E-1,1.897295124E-1
1.549091246E1,4.317245996E-2,-1.580619335E-1,6.606476605E-2,1.766691525E-1
1.550085646E1,-1.248876642E-2,3.925469756E-2,-5.390197277E-2,6.784042479E-2
1.551080046E1,4.064303669E-2,-9.387997091E-2,3.651176870E-2,1.086205074E-1
1.552074446E1,-1.930753349E-2,3.205911398E-2,-3.965172350E-2,5.452363538E-2
1.553068746E1,-3.221103195E-3,-2.317602396E-2,9.641064584E-2,9.920945632E-2
1.554063146E1,-3.361248164E-2,5.683318198E-2,-2.495182335E-2,7.058613875E-2
1.555057546E1,2.105146556E-2,-8.147978067E-2,2.121808380E-2,8.678897361E-2
1.556051946E1,-7.066681713E-2,7.368134916E-2,-1.320535183E-1,1.669157630E-1
1.557046346E1,-7.572942780E-2,-9.231642544E-2,-4.397340059E-2,1.272435798E-1
1.558040746E1,-1.610147774E-2,2.468226671E-2,-1.172015905E-2,3.171488615E-2
1.559035046E1,8.649074399E-2,-1.108988768E-1,5.883380681E-2,1.524487668E-1
1.560029446E1,-6.879416409E-2,4.598659694E-2,6.032864749E-3,8.296866618E-2
1.561023846E1,-2.982123837E-2,-1.278669119E-2,-7.104045421E-2,7.809962781E-2
1.562018246E1,-5.503847050E-2,3.020963967E-2,-8.998864889E-3,6.342582386E-2
1.563012646E1,6.328615090E-3,-1.847930646E-1,-3.514147371E-2,1.882111879E-1
1.564007046E1,-2.037182724E-2,-2.403088689E-2,8.289948463E-2,8.868381714E-2
1.565001346E1,-1.124661681E-2,-8.598973811E-2,-4.794307530E-2,9.909217890E-2
1.565995746E1,-5.168312802E-2,-4.229700387E-2,-3.697369874E-2,7.633633903E-2
1.566990146E1,-4.229047143E-2,-1.088780791E-1,-8.981206298E-2,1.473401735E-1
1.567984546E1,-2.723957389E-2,-8.620374620E-2,5.288397253E-2,1.047367882E-1
1.568978946E1,4.270712209E-2,-4.909322262E-2,-6.414278626E-2,9.136924983E-2
1.569973346E1,3.879143363E-2,-2.981202900E-2,5.380198538E-2,7.271991493E-2
1.570967646E1,-2.625042600E-2,3.742276490E-2,-6.242019653E-2,7.736814030E-2
