"Time (s)","Linear Acceleration x (m/s^2)","Linear Acceleration y (m/s^2)","Linear Acceleration z (m/s^2)","Absolute acceleration (m/s^2)"
2.776625101E-3,-7.383411680E-2,-6.117064655E-2,4.021656454E-2,1.039745010E-1
1.272162516E-2,-8.649026890E-2,-5.238637447E-2,3.854133725E-2,1.082142944E-1
2.266562521E-2,-9.339449669E-2,-4.786004484E-2,4.050366282E-3,1.050215281E-1
3.260962502E-2,-8.021088920E-2,-4.427979469E-2,-2.511613011E-2,9.500161554E-2
4.255362507E-2,-7.383812763E-2,-3.876703978E-2,-2.985909909E-2,8.858057498E-2
5.249862513E-2,-5.223077458E-2,-5.054859459E-2,-1.694084555E-2,7.463381591E-2
6.244262517E-2,-5.948283861E-2,-4.061651409E-2,-2.933986634E-2,7.777362704E-2
7.238662499E-2,-4.170943178E-2,-3.290637553E-2,-4.208416522E-2,6.777597813E-2
8.233062504E-2,-3.684463059E-2,-3.416645050E-2,-4.826584160E-2,6.967398803E-2
9.227562509E-2,-3.662159585E-2,-4.135209382E-2,-5.126838684E-2,7.536301769E-2
1.022196251E-1,-4.162424516E-2,-5.271849632E-2,-3.124108851E-2,7.407984376E-2
1.121636252E-1,-3.800684692E-2,-1.731945276E-2,-3.332328200E-2,5.343149802E-2
1.221086250E-1,-4.335852932E-2,-2.746671081E-2,-6.393170178E-2,8.198563752E-2
1.320526251E-1,-3.981392892E-2,-2.489218175E-2,-4.873654246E-2,6.767584665E-2
1.419966251E-1,-5.020115121E-2,-4.222508311E-2,-1.542963266E-2,6.738832830E-2
1.519406252E-1,-6.848182227E-2,-4.209702909E-2,-9.093589783E-3,8.089878377E-2
1.618856250E-1,-6.901369963E-2,-4.736069262E-2,-2.849815965E-2,8.841985662E-2
1.718296250E-1,-7.790470166E-2,-4.570885420E-2,-3.015643001E-2,9.522527062E-2
1.817736251E-1,-7.858217468E-2,-6.016141713E-2,-1.668502986E-2,1.003640599E-1
1.917176251E-1,-6.758694246E-2,-5.754127979E-2,3.682868779E-3,8.884006525E-2
2.016626252E-1,-7.178575493E-2,-5.479133427E-2,1.286709040E-2,9.121867648E-2
2.116066250E-1,-8.572328780E-2,-5.469660938E-2,-1.815326571E-2,1.032944442E-1
2.215506251E-1,-9.461766112E-2,-6.210737050E-2,8.353039920E-3,1.134883278E-1
2.314946251E-1,-8.824465287E-2,-6.428721249E-2,2.110318601E-2,1.111994106E-1
2.414396252E-1,-8.646200127E-2,-5.314417362E-2,2.247786641E-2,1.039482339E-1
2.513836252E-1,-8.393190192E-2,-3.824488342E-2,-1.838920087E-2,9.404997595E-2
2.613276250E-1,-7.955086646E-2,-5.244484663E-2,-1.140353233E-2,9.596271589E-2
2.712716251E-1,-6.461893234E-2,-6.619106591E-2,1.398595512E-2,9.355463946E-2
2.812166251E-1,-5.682153323E-2,-7.290191531E-2,-1.047148615E-2,9.302165295E-2
2.911606252E-1,-4.696118161E-2,-5.893642545E-2,-8.327312171E-3,7.581687774E-2
3.011046250E-1,-4.297692541E-2,-4.281272829E-2,-3.550604761E-2,7.028958129E-2
3.110496250E-1,-5.274089847E-2,-5.095965385E-2,-6.807913184E-3,7.365348854E-2
3.209936251E-1,-3.888008290E-2,-6.043389738E-2,9.902259707E-3,7.253944820E-2
3.309376251E-1,-3.781567952E-2,-4.620002031E-2,-5.672091544E-3,5.997199444E-2
3.408816252E-1,-4.331237286E-2,-1.075653791E-2,-4.766884089E-2,6.529918179E-2
3.508266250E-1,-5.114581458E-2,-3.439507663E-2,-1.296883196E-2,6.298496843E-2
3.607706251E-1,-6.330012026E-2,-4.756768405E-2,-5.189403892E-3,7.935061250E-2
3.707146251E-1,-6.725249087E-2,-5.880778670E-2,4.119655788E-3,8.943279526E-2
3.806586252E-1,-7.443690992E-2,-3.817354739E-2,-3.774699301E-2,9.177640633E-2
3.906040001E-1,-8.670224874E-2,-3.021080911E-2,-4.799336135E-2,1.036018130E-1
4.005480001E-1,-6.373922789E-2,-4.675375164E-2,-3.812384605E-2,8.776121069E-2
4.104920002E-1,-6.341556623E-2,-5.586839139E-2,-2.079971552E-2,8.703699996E-2
4.204360000E-1,-7.068996845E-2,-6.039062798E-2,-1.998490602E-2,9.509729784E-2
4.303810000E-1,-8.015688468E-2,-4.477914691E-2,-3.340485066E-2,9.770456595E-2
4.403250001E-1,-6.536685518E-2,-5.340437472E-2,-2.530207157E-2,8.811950874E-2
4.502690001E-1,-6.166507431E-2,-5.215833306E-2,-3.710058331E-3,8.085071200E-2
4.602130002E-1,-7.492165323E-2,-4.344598174E-2,-3.107795119E-4,8.660775968E-2
4.701580000E-1,-6.763108894E-2,-3.336362779E-2,-2.720124722E-2,8.016859548E-2
4.801020001E-1,-7.127957792E-2,-3.757186890E-2,-1.893620789E-2,8.277078911E-2
4.900460001E-1,-5.445623400E-2,-4.509782016E-2,-2.064476430E-2,7.365800091E-2
4.999910002E-1,-5.557602148E-2,-5.355289400E-2,-3.421790600E-3,7.725487214E-2
5.099350002E-1,-6.933117603E-2,-3.972189009E-2,-2.568389475E-2,8.393034595E-2
5.198790000E-1,-5.317996041E-2,-3.640125632E-2,-3.158315063E-2,7.176806431E-2
5.298230001E-1,-4.914889907E-2,-4.308988631E-2,-4.187074184E-2,7.762416895E-2
5.397680001E-1,-5.446245580E-2,-5.728575647E-2,4.776590466E-3,7.918732728E-2
5.497120002E-1,-5.426929669E-2,-5.765179217E-2,-4.059137106E-3,7.928027685E-2
5.596560000E-1,-5.194039637E-2,-4.983464956E-2,-4.437744319E-3,7.211789408E-2
5.696000000E-1,-5.161143567E-2,-5.549241543E-2,-1.065362692E-3,7.579105132E-2
5.795450001E-1,-5.561110477E-2,-5.459545255E-2,2.019189745E-2,8.050447898E-2
5.894890002E-1,-5.528548795E-2,-5.475508153E-2,1.272646487E-2,7.884520936E-2
5.994330002E-1,-5.891417862E-2,-5.060589731E-2,9.919801354E-4,7.767123862E-2
6.093780000E-1,-5.111222964E-2,-4.511419237E-2,-1.151024401E-3,6.818412739E-2
6.193220001E-1,-4.934300836E-2,-5.233491898E-2,-6.316162348E-3,7.220505609E-2
6.292660001E-1,-5.430882934E-2,-5.356926620E-2,-6.688045263E-3,7.657574796E-2
6.392100002E-1,-6.358234892E-2,-4.388920069E-2,-2.978337765E-2,8.280112689E-2
6.491550000E-1,-6.635565589E-2,-4.582521379E-2,-3.564638078E-2,8.816851905E-2
6.590990000E-1,-6.752495284E-2,-3.805192530E-2,-4.733028710E-2,9.081698273E-2
6.690430001E-1,-6.518162635E-2,-5.059010983E-2,6.396853924E-4,8.251310698E-2
6.789870001E-1,-6.797032795E-2,-2.839641809E-2,-1.800971657E-2,7.583318491E-2
6.889320002E-1,-6.046112347E-2,-3.685383081E-2,-3.928159475E-2,8.097404512E-2
6.988760000E-1,-4.544853433E-2,-4.636374235E-2,-2.671300471E-2,7.020506035E-2
7.088200001E-1,-5.647573438E-2,-4.755482018E-2,-6.969881058E-3,7.415894240E-2
7.187640001E-1,-5.618043171E-2,-5.378795207E-2,1.449290872E-2,7.911655388E-2
7.287090002E-1,-6.121130297E-2,-5.751262844E-2,-3.356301785E-4,8.399189656E-2
7.386530002E-1,-6.304638765E-2,-4.593280256E-2,-2.602595687E-2,8.223150112E-2
7.485970000E-1,-5.279355082E-2,-4.911836565E-2,-8.126460314E-3,7.256591630E-2
7.585420001E-1,-6.064055990E-2,-5.550527930E-2,9.212288260E-4,8.221290774E-2
7.684860001E-1,-5.956152021E-2,-5.229457319E-2,4.390966594E-3,7.938247705E-2
7.784300002E-1,-4.976441902E-2,-5.224721074E-2,-3.059175521E-2,7.837170355E-2
7.883740000E-1,-5.055004726E-2,-5.397389352E-2,-3.538676441E-2,8.197994606E-2
7.983190001E-1,-4.561343495E-2,-6.082098305E-2,-1.376493037E-2,7.726092632E-2
8.082630001E-1,-4.382189375E-2,-5.035037398E-2,-2.844553471E-2,7.255802490E-2
8.182070001E-1,-5.278812387E-2,-5.314475834E-2,-3.050492406E-2,8.087955090E-2
8.281510002E-1,-5.057625010E-2,-4.191576540E-2,-1.464201272E-2,6.729990342E-2
8.380960000E-1,-4.674469759E-2,-4.193564594E-2,3.363903165E-3,6.288863965E-2
8.480400001E-1,-5.541244562E-2,-4.595326781E-2,9.121656418E-4,7.199356914E-2
8.579840001E-1,-5.805719608E-2,-3.772331178E-2,-1.015895247E-2,6.997778636E-2
8.679290002E-1,-6.542914630E-2,-2.648613274E-2,-1.961594671E-2,7.326168015E-2
8.778730000E-1,-6.989993652E-2,-2.103769720E-2,-1.735541314E-2,7.503196782E-2
8.878170000E-1,-6.316690424E-2,-2.971321106E-2,-1.826991767E-2,7.215762326E-2
8.977610001E-1,-7.031211955E-2,-5.519186854E-2,-5.180340707E-3,8.953643079E-2
9.077060001E-1,-7.053588518E-2,-5.939484715E-2,-1.653212517E-2,9.368228290E-2
9.176500002E-1,-5.802585865E-2,-5.476385236E-2,-3.342911661E-2,8.650772009E-2
9.275940000E-1,-5.748796963E-2,-6.864806592E-2,-2.497930527E-2,9.295907325E-2
9.375380001E-1,-6.089373521E-2,-6.432171106E-2,-1.821466148E-2,9.042733765E-2
9.474830001E-1,-5.517435431E-2,-5.109998703E-2,-1.111321807E-2,7.601921904E-2
9.574270002E-1,-6.361043382E-2,-3.893134654E-2,-2.615868866E-2,7.903299328E-2
9.673710002E-1,-6.787535638E-2,-4.393656313E-2,-1.135003030E-2,8.164746641E-2
9.773150000E-1,-7.065604546E-2,-5.089065671E-2,4.963993728E-3,8.721683859E-2
9.872600001E-1,-6.621850214E-2,-3.825599313E-2,-8.536934853E-5,7.647495226E-2
9.972040001E-1,-5.228993196E-2,-3.685032248E-2,-1.548284233E-2,6.581718361E-2
1.007148000E0,-5.140912201E-2,-3.275551736E-2,-1.635115385E-2,6.311245500E-2
1.017093000E0,-5.602580027E-2,-4.418623924E-2,-1.398829401E-2,7.271166621E-2
1.027037000E0,-5.212769000E-2,-5.898144901E-2,-1.254256994E-2,7.970836501E-2
1.036981000E0,-5.457595574E-2,-5.482700229E-2,-3.102532625E-2,8.334930110E-2
1.046925000E0,-3.760425699E-2,-4.664031565E-2,-1.955542803E-2,6.302232900E-2
1.056870000E0,-3.657956899E-2,-5.743836880E-2,-1.667450488E-2,7.010898794E-2
1.066814000E0,-4.002832074E-2,-5.308687091E-2,-1.864969432E-2,6.905283066E-2
1.076758000E0,-2.664842952E-2,-6.570340812E-2,-2.334851682E-2,7.464737016E-2
1.086702000E0,-4.384705505E-2,-5.416158915E-2,-1.934112757E-2,7.231957682E-2
1.096647000E0,-5.190127485E-2,-4.759341180E-2,-5.982286334E-3,7.067292924E-2
1.106591000E0,-4.775759066E-2,-5.726587594E-2,2.421332002E-3,7.460583664E-2
1.116535000E0,-5.099137500E-2,-5.868557990E-2,1.350765288E-2,7.890864527E-2
1.126480000E0,-5.527372956E-2,-4.799453080E-2,-1.324920595E-2,7.439221481E-2
1.136424000E0,-5.307831936E-2,-4.354947746E-2,-4.308725506E-2,8.105785910E-2
1.146368000E0,-5.228913710E-2,-4.869912028E-2,-3.400243610E-2,7.913231853E-2
1.156312000E0,-5.859318475E-2,-5.181685567E-2,-1.295245975E-2,7.928375650E-2
1.166257000E0,-6.405592770E-2,-5.289098918E-2,7.910405695E-3,8.344574962E-2
1.176201000E0,-6.914245714E-2,-3.979088724E-2,-1.722765148E-2,8.161363895E-2
1.186145000E0,-5.834209252E-2,-3.013830364E-2,-3.894684166E-2,7.634771497E-2
1.196089000E0,-5.330961328E-2,-5.466678858E-2,-6.962279677E-3,7.667363289E-2
1.206034000E0,-5.122082340E-2,-7.238034368E-2,-1.019169688E-3,8.867652230E-2
1.215978000E0,-5.516438663E-2,-5.736118555E-2,-2.900803685E-3,7.963560650E-2
1.225922000E0,-5.890845018E-2,-4.814480424E-2,-2.042666316E-2,7.877421053E-2
1.235867000E0,-6.036087113E-2,-5.499891043E-2,-2.858177483E-2,8.651723970E-2
1.245811000E0,-6.609335345E-2,-6.250147283E-2,-1.154825091E-3,9.097306798E-2
1.255755000E0,-6.854922057E-2,-4.562173069E-2,-1.110970974E-2,8.308888976E-2
1.265699000E0,-6.451036599E-2,-3.860741079E-2,-1.421107292E-2,7.651192118E-2
1.275644000E0,-5.075998058E-2,-4.531007409E-2,-2.506233573E-2,7.250999320E-2
1.285588000E0,-4.537059277E-2,-3.868927181E-2,-1.855613887E-2,6.244742374E-2
1.295532000E0,-3.669919937E-2,-4.048261285E-2,-1.213004887E-2,5.597152189E-2
1.305476000E0,-4.387741489E-2,-5.111402035E-2,-2.140490234E-2,7.068267438E-2
1.315421000E0,-3.852224244E-2,-4.370559812E-2,-2.812744617E-2,6.469386136E-2
1.325365000E0,-3.151768008E-2,-4.868216336E-2,-1.308022141E-2,5.945089889E-2
1.335309000E0,-2.559770314E-2,-4.722035944E-2,-8.369119763E-3,5.436034325E-2
1.345254000E0,-3.842796522E-2,-5.658175170E-2,-1.910577714E-3,6.842407065E-2
1.355198000E0,-4.271471433E-2,-4.689291537E-2,-3.969616234E-2,7.482832109E-2
1.365142000E0,-4.955282290E-2,-4.727298439E-2,-3.311102808E-2,7.606942547E-2
1.375086000E0,-5.433094827E-2,-5.970007181E-2,-1.222068071E-3,8.073068787E-2
1.385031000E0,-6.455337044E-2,-6.737571180E-2,4.104160666E-3,9.339950915E-2
1.394974667E0,-6.968020912E-2,-4.052705169E-2,-1.217887312E-2,8.152360647E-2
1.404918667E0,-6.598261267E-2,-2.699367106E-2,-2.473664582E-2,7.546035448E-2
1.414862667E0,-6.110133877E-2,-5.421304464E-2,-1.286387444E-3,8.169505861E-2
1.424807667E0,-5.546056638E-2,-5.526261985E-2,-8.319418430E-3,7.873400980E-2
1.434751667E0,-6.059653220E-2,-3.574578345E-2,-1.308782279E-2,7.156110574E-2
1.444695667E0,-6.634873973E-2,-4.385353267E-2,-6.749441028E-3,7.981755788E-2
1.454640667E0,-6.717785664E-2,-5.400780737E-2,-3.659479916E-3,8.627339957E-2
1.464584667E0,-5.058486560E-2,-4.909673095E-2,4.405876994E-4,7.049476389E-2
1.474528667E0,-4.979936527E-2,-4.453648746E-2,-1.016538441E-2,6.757818092E-2
1.484472667E0,-4.438621402E-2,-5.000304937E-2,-1.538899451E-2,6.860948982E-2
1.494417667E0,-4.480784395E-2,-5.219107747E-2,-1.312232137E-2,7.002747150E-2
1.504361667E0,-3.742026156E-2,-5.845052183E-2,-1.752381295E-2,7.158088779E-2
1.514305667E0,-4.182765517E-2,-6.797154307E-2,6.294820011E-3,8.005815489E-2
1.524249667E0,-3.921632521E-2,-6.555138052E-2,-1.249549985E-3,7.639676057E-2
1.534194667E0,-5.081726502E-2,-6.027192950E-2,-1.136757195E-2,7.965124984E-2
1.544138667E0,-4.485574543E-2,-5.948723316E-2,-3.512422442E-3,7.458623143E-2
1.554082667E0,-3.874608116E-2,-5.112337589E-2,-1.225868762E-3,6.415887407E-2
1.564027667E0,-3.905119618E-2,-5.058250844E-2,2.941734195E-3,6.397061735E-2
1.573971667E0,-3.425448764E-2,-3.449330986E-2,-2.428699493E-2,5.434166423E-2
1.583915667E0,-3.938695427E-2,-3.401325345E-2,-3.258887172E-2,6.140250921E-2
1.593859667E0,-4.479648756E-2,-3.447693765E-2,-2.223169863E-2,6.074234891E-2
1.603804667E0,-5.183701943E-2,-3.352618039E-2,-1.291708410E-2,6.307085235E-2
1.613748667E0,-5.042128975E-2,-3.741808712E-2,-2.459455848E-2,6.743376017E-2
1.623692667E0,-5.115318756E-2,-3.569257379E-2,-4.811995357E-2,7.877904767E-2
1.633636667E0,-4.275496876E-2,-4.613102317E-2,-1.856783330E-2,6.558066091E-2
1.643581667E0,-6.194728469E-2,-4.725953579E-2,-1.647686899E-2,7.963929316E-2
1.653525667E0,-6.130891493E-2,-4.610646486E-2,-2.925537407E-2,8.210034144E-2
1.663469667E0,-6.695154198E-2,-3.687312663E-2,-3.005176485E-2,8.212944059E-2
1.673414667E0,-6.268862028E-2,-4.667832255E-2,-1.971037924E-2,8.060538418E-2
1.683358667E0,-6.236762641E-2,-5.410136282E-2,-1.218559742E-2,8.345757646E-2
1.693302667E0,-5.230967545E-2,-6.609166324E-2,-1.827254891E-3,8.430746679E-2
1.703246667E0,-5.365950518E-2,-4.653448105E-2,-8.304215670E-3,7.151056160E-2
1.713191667E0,-4.469601595E-2,-5.120816052E-2,-1.406840086E-2,6.941130634E-2
1.723135667E0,-5.231622616E-2,-5.254015625E-2,-1.125939846E-2,7.499486377E-2
1.733079667E0,-4.559448631E-2,-6.487134933E-2,5.327398181E-3,7.947031092E-2
1.743024667E0,-3.070286145E-2,-5.399669766E-2,-3.693101406E-3,6.222497937E-2
1.752968667E0,-3.759448118E-2,-4.741624117E-2,-1.969985425E-2,6.363748266E-2
1.762912667E0,-4.522879779E-2,-3.941549599E-2,-1.969926953E-2,6.314496571E-2
1.772856667E0,-3.794609983E-2,-3.579840839E-2,-9.426296353E-3,5.301214577E-2
1.782801667E0,-4.829234594E-2,-4.405350745E-2,9.930326343E-3,6.611712014E-2
1.792745667E0,-5.380126362E-2,-4.155616164E-2,1.077641845E-2,6.883038378E-2
1.802689667E0,-5.000346964E-2,-3.778880060E-2,-9.038625956E-3,6.332485441E-2
1.812633667E0,-4.289663583E-2,-5.030067265E-2,1.147223711E-3,6.611803957E-2
1.822578667E0,-3.544608624E-2,-6.386972129E-2,2.827421129E-2,7.832750061E-2
1.832522667E0,-2.999488240E-2,-6.072099566E-2,-4.518728256E-3,6.787599863E-2
1.842466667E0,-2.873414962E-2,-5.906038642E-2,-4.436925709E-2,7.926166522E-2
1.852411667E0,-2.751770949E-2,-6.253070891E-2,-4.550683290E-2,8.208645280E-2
1.862355667E0,-4.056826542E-2,-7.724405766E-2,-2.505648851E-2,9.077585703E-2
1.872299667E0,-4.966138012E-2,-5.719044685E-2,-2.699337870E-2,8.040921825E-2
1.882243667E0,-4.405705232E-2,-3.471784294E-2,-2.269596756E-2,6.050999439E-2
1.892188667E0,-5.051534769E-2,-2.773334384E-2,-1.869530261E-2,6.058426407E-2
1.902132667E0,-6.125803501E-2,-3.683453500E-2,-2.894371748E-3,7.153815213E-2
1.912076667E0,-6.005149861E-2,-3.759350359E-2,-1.378188729E-3,7.086150861E-2
1.922021667E0,-4.857252806E-2,-3.234679699E-2,-1.307145059E-2,5.980358333E-2
1.931965667E0,-5.332677120E-2,-2.621949971E-2,-1.634472191E-2,6.163080907E-2
1.941909667E0,-5.691896246E-2,-3.700585842E-2,-2.321403086E-2,7.175021306E-2
1.951853667E0,-4.020783939E-2,-5.418380857E-2,-5.009309649E-3,6.765832279E-2
1.961798667E0,-3.861778960E-2,-5.668583214E-2,-1.495659292E-2,7.020197227E-2
1.971742667E0,-4.689703583E-2,-4.919496417E-2,-2.140870303E-2,7.125874707E-2
1.981686667E0,-5.222665412E-2,-4.737004817E-2,-3.299642265E-2,7.784798502E-2
1.991630667E0,-4.319188368E-2,-5.815348327E-2,-1.427480757E-2,7.383181268E-2
2.001575667E0,-3.770642795E-2,-5.908260584E-2,6.747686863E-3,7.041349515E-2
2.011519667E0,-4.065714310E-2,-5.085264981E-2,-9.116978645E-3,6.574279107E-2
2.021463667E0,-4.667834083E-2,-4.782613099E-2,-1.862133533E-2,6.937550315E-2
2.031408667E0,-4.528018020E-2,-6.377382696E-2,-1.039459527E-2,7.890147866E-2
2.041352667E0,-4.779341399E-2,-5.558655560E-2,7.663945556E-3,7.370760914E-2
2.051296667E0,-3.860890000E-2,-4.946744442E-2,-4.869853556E-3,6.293957968E-2
2.061240667E0,-2.284574764E-2,-5.432472646E-2,-1.909788340E-2,6.195024811E-2
2.071185667E0,-3.601747798E-2,-4.697711527E-2,-9.846711159E-3,6.000888101E-2
2.081129667E0,-4.019445475E-2,-5.539418221E-2,8.186101913E-3,6.892838225E-2
2.091073667E0,-4.355618348E-2,-5.180165291E-2,-6.637174487E-3,6.800444433E-2
2.101017667E0,-3.463117624E-2,-4.729871213E-2,-2.882326484E-2,6.532432268E-2
2.110962667E0,-4.442968441E-2,-5.261617005E-2,-3.377059400E-2,7.670013837E-2
2.120906667E0,-4.477404887E-2,-4.889090896E-2,-2.253341496E-2,7.001993445E-2
2.130850667E0,-3.369066987E-2,-5.280094206E-2,-1.156608492E-2,6.369281780E-2
2.140795667E0,-2.763889303E-2,-5.524390876E-2,-1.280540228E-2,6.308546735E-2
2.150739667E0,-4.394340620E-2,-4.179063499E-2,-1.755568027E-2,6.313225825E-2
2.160683667E0,-5.248359357E-2,-3.985696077E-2,-1.693470597E-2,6.804328903E-2
2.170627667E0,-5.709908411E-2,-5.261090755E-2,-1.028583705E-2,7.831993005E-2
2.180572667E0,-5.741150815E-2,-4.349685252E-2,-8.599500060E-3,7.253970532E-2
2.190516667E0,-6.001254153E-2,-3.351039290E-2,-1.673940897E-2,7.074361729E-2
2.200460667E0,-6.426354954E-2,-3.978913307E-2,-7.027183771E-3,7.591021158E-2
2.210405667E0,-5.689876216E-2,-4.353895247E-2,-1.284750223E-2,7.278851441E-2
2.220349667E0,-5.144849022E-2,-4.891956031E-2,-7.777966261E-3,7.141825597E-2
2.230293667E0,-4.437582607E-2,-4.730338991E-2,-1.385146916E-2,6.632260425E-2
2.240237667E0,-2.699539782E-2,-4.445930421E-2,-2.059038520E-2,5.594055056E-2
2.250182667E0,-2.378936947E-2,-5.445804298E-2,-1.499226093E-3,5.944628015E-2
2.260126667E0,-2.533395717E-2,-5.484746754E-2,-1.303929090E-3,6.042974692E-2
2.270070667E0,-1.990689137E-2,-5.054684043E-2,-7.648742795E-3,5.486137683E-2
2.280015667E0,-2.612576153E-2,-5.276293516E-2,-2.268719673E-2,6.309668484E-2
2.289959667E0,-2.577816283E-2,-7.378309071E-2,-2.003256083E-2,8.068309394E-2
2.299903667E0,-3.499581409E-2,-6.899305165E-2,-5.663613081E-3,7.756819382E-2
2.309847667E0,-5.083077757E-2,-4.769866168E-2,-1.428650200E-2,7.115500273E-2
2.319792667E0,-4.532726856E-2,-4.306123495E-2,-1.832166553E-2,6.514993982E-2
2.329736667E0,-4.188176933E-2,-4.359976351E-2,-1.696043372E-2,6.279075005E-2
2.339680667E0,-4.389470986E-2,-4.907392681E-2,-1.680314362E-2,6.795102267E-2
2.349624667E0,-4.175247277E-2,-4.895581305E-2,-1.463996619E-2,6.598688676E-2
2.359569667E0,-5.299546248E-2,-3.397758543E-2,-1.630846918E-2,6.503046611E-2
2.369513667E0,-5.104749913E-2,-4.040250599E-2,-1.573836565E-2,6.697690506E-2
2.379457667E0,-5.693040107E-2,-3.243216634E-2,-1.866460472E-2,6.812696565E-2
2.389402667E0,-4.722809787E-2,-3.307652950E-2,-1.931598455E-2,6.080836531E-2
2.399346542E0,-4.266695903E-2,-4.236717045E-2,-2.109441519E-2,6.372143185E-2
2.409290542E0,-4.178974877E-2,-4.226542890E-2,-1.844855011E-2,6.223422357E-2
2.419234542E0,-4.748162949E-2,-4.586672902E-2,-2.052752763E-2,6.913495035E-2
2.429179542E0,-4.584002369E-2,-5.802016675E-2,-1.157163978E-3,7.395259665E-2
2.439123542E0,-4.034745994E-2,-6.535023630E-2,-4.312321544E-3,7.692312412E-2
2.449067542E0,-3.698678188E-2,-7.021278083E-2,-4.151523113E-4,7.936012209E-2
2.459011542E0,-3.421214101E-2,-5.634201586E-2,-7.942565382E-3,6.639260267E-2
2.468956542E0,-3.612649200E-2,-5.745824933E-2,-1.303461313E-2,6.911204656E-2
2.478900542E0,-4.209144683E-2,-6.304760277E-2,-1.397192180E-3,7.581980122E-2
2.488844542E0,-3.234179945E-2,-4.993522167E-2,5.467146635E-3,5.974452316E-2
2.498789542E0,-3.393852786E-2,-4.703500271E-2,1.897421479E-3,5.803202014E-2
2.508733542E0,-3.685110820E-2,-4.226776779E-2,-1.062936097E-2,5.707496548E-2
2.518677542E0,-2.864151236E-2,-4.079660833E-2,-1.177453816E-2,5.121854381E-2
2.528621542E0,-3.908841737E-2,-3.972773731E-2,-1.735833675E-2,5.837387548E-2
2.538566542E0,-3.507933791E-2,-3.564111829E-2,-2.883612871E-2,5.772669729E-2
2.548510542E0,-3.042272957E-2,-3.570660710E-2,-2.392973006E-2,5.266057582E-2
2.558454542E0,-3.093748554E-2,-4.362841487E-2,-1.946625799E-2,5.691662144E-2
2.568399542E0,-2.872727000E-2,-3.971896648E-2,-1.112374306E-2,5.026519671E-2
2.578343542E0,-3.623299812E-2,-3.878399670E-2,-1.389766216E-2,5.486504868E-2
2.588287542E0,-4.387111086E-2,-4.913824618E-2,-1.294339657E-2,6.713250420E-2
2.598231542E0,-4.406837217E-2,-4.495982587E-2,-1.995596230E-2,6.604277250E-2
2.608176542E0,-3.832952643E-2,-3.565164328E-2,-1.762204617E-2,5.523340272E-2
2.618120542E0,-3.271266824E-2,-5.045270026E-2,-4.340972900E-3,6.028629755E-2
2.628064542E0,-3.947770032E-2,-6.166882932E-2,-6.313238740E-3,7.349415157E-2
2.638009542E0,-3.504560221E-2,-5.495681047E-2,-4.162925184E-3,6.531290223E-2
2.647953542E0,-2.992277435E-2,-4.761680067E-2,-1.061181933E-2,5.723061104E-2
2.657897542E0,-3.170932714E-2,-5.252027571E-2,1.011509836E-2,6.217858155E-2
2.667841542E0,-3.157446660E-2,-6.355923414E-2,9.131596684E-3,7.155493864E-2
2.677786542E0,-3.522751458E-2,-5.282959342E-2,-4.563751817E-3,6.366138197E-2
2.687730542E0,-3.085554686E-2,-5.757987142E-2,-1.049165905E-2,6.616329250E-2
2.697674542E0,-2.209614830E-2,-5.981116891E-2,-2.589147091E-3,6.381472697E-2
2.707619542E0,-2.154059886E-2,-5.363592446E-2,-5.968545377E-3,5.810708499E-2
2.717563542E0,-2.909560347E-2,-4.416051149E-2,-1.115707219E-2,5.404798957E-2
2.727507542E0,-3.351284599E-2,-3.951782227E-2,-6.672550142E-3,5.224262674E-2
2.737451542E0,-4.247064790E-2,-4.792144060E-2,-1.560797274E-2,6.590773259E-2
2.747396542E0,-3.831114882E-2,-4.395176589E-2,-2.517869532E-2,6.350959413E-2
2.757340542E0,-5.053389433E-2,-4.815825284E-2,-2.349879026E-2,7.365517589E-2
2.767284542E0,-5.893341505E-2,-5.087019145E-2,-1.208327115E-2,7.878406710E-2
2.777229542E0,-5.175995038E-2,-4.262854099E-2,-1.360003889E-2,6.841963189E-2
2.787173542E0,-4.775877837E-2,-4.671983778E-2,-4.961654842E-3,6.699449360E-2
2.797117542E0,-4.839855056E-2,-4.197891533E-2,-1.922564507E-2,6.689001762E-2
2.807061542E0,-5.548550384E-2,-4.532118380E-2,-3.947923064E-2,8.180012524E-2
2.817006542E0,-4.771884372E-2,-4.814305007E-2,-1.677449226E-2,6.982997141E-2
2.826950542E0,-3.935473520E-2,-3.388753831E-2,-1.655054390E-2,5.450762276E-2
2.836894542E0,-2.411649378E-2,-3.120658994E-2,-2.049449086E-4,3.943980895E-2
2.846839542E0,-1.230933912E-2,-4.989078283E-2,-1.016538441E-3,5.139692006E-2
2.856783542E0,-1.436452122E-2,-4.387984514E-2,-1.019988298E-2,4.728443605E-2
2.866727542E0,-1.892823192E-2,-5.800496399E-2,-2.744712263E-2,6.690439711E-2
2.876671542E0,-1.377804092E-2,-6.838728011E-2,-3.241754830E-2,7.692562596E-2
2.886616542E0,-1.611342799E-2,-4.885874927E-2,-5.562105417E-2,7.576623000E-2
2.896560542E0,-2.388800012E-2,-7.330186486E-2,1.168682992E-2,7.797680383E-2
2.906504542E0,-2.778151941E-2,-5.118944943E-2,-2.324969888E-2,6.271141086E-2
2.916448542E0,-3.439358285E-2,-4.643390894E-2,9.007050991E-3,5.848207767E-2
2.926393542E0,-3.267481665E-2,-4.795944750E-2,-2.119615674E-4,5.803272504E-2
2.936337542E0,-3.792802828E-2,-3.458511114E-2,-7.958645225E-3,5.194232644E-2
2.946281542E0,-4.922120355E-2,-6.967600644E-2,6.178752780E-2,1.053336192E-1
2.956226542E0,-5.409541511E-2,-3.156677842E-2,5.940771103E-3,6.291317984E-2
2.966170542E0,-5.410390728E-2,-4.518669784E-2,-2.834320843E-2,7.597636414E-2
2.976114542E0,-5.398194258E-2,-3.774436176E-2,-1.006890535E-3,6.587640547E-2
2.986058542E0,-4.574790720E-2,-3.891789794E-2,-2.770352304E-2,6.614347271E-2
2.996003542E0,-4.189255013E-2,-5.112162173E-2,-8.547459841E-3,6.664431734E-2
3.005947542E0,-3.802921252E-2,-6.243247569E-2,-2.874842048E-2,7.855257288E-2
3.015891542E0,-4.875404300E-2,-4.436867237E-2,-5.289215863E-2,8.451695830E-2
3.025836542E0,-4.176225315E-2,-3.520842433E-2,1.383451223E-3,5.464094499E-2
3.035780542E0,-4.791728360E-2,-1.141025662E-2,-1.103778899E-2,5.047863716E-2
3.045724542E0,-3.666094122E-2,-6.307976246E-3,2.727901518E-2,4.612981514E-2
3.055668542E0,-1.555611068E-2,-1.582198083E-2,-2.208844185E-2,3.130857583E-2
3.065613542E0,-6.320812711E-3,-5.449955821E-2,-6.941405118E-2,8.847861334E-2
3.075557542E0,2.445810822E-2,-9.283507347E-2,-1.045622492E-1,1.419500401E-1
3.085501542E0,7.110639070E-3,-9.049150944E-2,-8.529216528E-2,1.245553207E-1
3.095446542E0,-7.111621220E-3,-8.082606196E-2,-5.820932418E-2,9.985866447E-2
3.105390542E0,-1.150863603E-2,-3.882434249E-2,-3.939035296E-2,5.649228425E-2
3.115334542E0,-2.497849214E-2,-4.176139891E-2,2.529973269E-2,5.484538251E-2
3.125278542E0,-4.959845403E-2,-4.562406957E-2,1.000765577E-1,1.206518950E-1
3.135223542E0,-4.608454237E-2,-3.786013663E-2,4.757820904E-2,7.629456709E-2
3.145167542E0,-3.547350420E-2,-4.072702646E-2,1.963787377E-2,5.746917670E-2
3.155111542E0,-2.528839914E-2,-5.133329093E-2,-2.980559707E-2,6.452118649E-2
3.165056542E0,-2.040394581E-2,-9.574698687E-2,-2.615576506E-2,1.013307976E-1
3.175000542E0,-3.234378659E-2,-8.128039062E-2,-8.523778617E-3,8.789355626E-2
3.184944542E0,-4.030181968E-2,-5.568069577E-2,-6.630947202E-2,9.550666276E-2
3.194888542E0,-5.034950147E-2,-3.254384816E-2,-8.715274930E-3,6.058160090E-2
3.204833542E0,-8.594277766E-2,-1.875377476E-2,3.914389282E-2,9.628140757E-2
3.214777542E0,-1.034978367E-1,-1.387719691E-2,7.355855763E-2,1.277311246E-1
3.224721542E0,-8.823626577E-2,1.689319074E-2,2.265562177E-2,9.265147429E-2
3.234666542E0,-6.351834475E-2,-1.190493107E-2,-2.826544046E-2,7.053539982E-2
3.244610542E0,-3.332590411E-2,-8.137862384E-2,-2.882443428E-2,9.254158155E-2
3.254554542E0,-1.438853135E-2,-1.044324410E-1,-5.920773625E-2,1.209079013E-1
3.264498542E0,6.858336283E-3,-1.212554651E-1,-8.288486660E-2,1.470368176E-1
3.274443542E0,1.269103440E-2,-1.030408037E-1,-8.278312504E-2,1.327837165E-1
3.284387542E0,-1.382212801E-2,-4.574101388E-2,-5.759478182E-2,7.483615748E-2
3.294331542E0,-2.800753257E-2,-3.769816875E-2,5.412942946E-2,7.166288399E-2
3.304275542E0,-3.323138479E-2,-5.223902464E-3,7.809424281E-2,8.503131689E-2
3.314220542E0,-4.349317973E-2,2.270298421E-2,5.637797624E-2,7.473659332E-2
3.324164542E0,-1.651060468E-2,-2.066698372E-2,-6.280494332E-3,2.718766066E-2
3.334108542E0,2.431345358E-4,-5.191801250E-2,-7.955663145E-2,9.499893022E-2
3.344053542E0,-1.062407107E-3,-1.128652954E-1,-6.917256117E-2,1.323803114E-1
3.353997542E0,-2.673497745E-3,-9.865363777E-2,-8.681361079E-2,1.314393048E-1
3.363941542E0,-2.360610038E-2,-6.609692574E-2,-7.304926515E-2,1.013027478E-1
3.373885542E0,-4.938418098E-2,-5.428555012E-2,1.886370242E-2,7.577306614E-2
3.383830542E0,-7.556962523E-2,-5.394056439E-3,6.521282673E-2,9.996287747E-2
3.393776500E0,-9.281930426E-2,-1.194820046E-2,1.290872258E-1,1.594418220E-1
3.403720500E0,-1.001442027E-1,-2.271467865E-2,8.208672166E-2,1.314650061E-1
3.413665500E0,-5.875996744E-2,-3.050784767E-2,-1.695751011E-2,6.834485857E-2
3.423609500E0,-3.621452458E-2,-8.468171597E-2,-2.863439977E-2,9.644902104E-2
3.433553500E0,-2.481325348E-2,-9.454772294E-2,-7.099835426E-2,1.208128129E-1
3.443497500E0,-6.939105517E-3,-1.001271361E-1,-8.258373499E-2,1.299756433E-1
3.453442500E0,-2.635230459E-3,-6.212666631E-2,-9.484066844E-2,1.134081985E-1
3.463386500E0,-4.274700650E-2,-4.718995392E-2,-3.716841102E-2,7.372712590E-2
3.473330500E0,-4.465035742E-2,-3.282451451E-2,5.247642159E-2,7.632088832E-2
3.483275500E0,-5.628788800E-2,-3.889567852E-3,6.809082627E-2,8.842972179E-2
3.493219500E0,-3.630877438E-2,2.624815106E-3,4.758785695E-2,5.991511396E-2
3.503163500E0,-2.689528709E-2,-1.090505719E-2,-5.156659484E-3,2.947656488E-2
3.513107500E0,-2.713110347E-2,-5.966148019E-2,-2.333360642E-2,6.957044043E-2
3.523052500E0,-1.170836412E-2,-7.144712806E-2,-3.836124301E-2,8.193511374E-2
3.532996500E0,1.493584444E-2,-8.845784783E-2,-9.416239142E-2,1.300554737E-1
3.542940500E0,-3.712785509E-3,-7.411989033E-2,-7.405907929E-2,1.048441231E-1
3.552885500E0,-2.603564589E-2,-5.460188448E-2,-3.454476535E-2,6.966032916E-2
3.562829500E0,-2.759595711E-2,-4.889383256E-2,-1.233762503E-3,5.615750958E-2
3.572773500E0,-4.118189873E-2,-2.982372344E-2,5.521730393E-2,7.506233354E-2
3.582717500E0,-4.686250071E-2,-1.919348538E-2,3.066455305E-2,5.920134008E-2
3.592662500E0,-4.660728345E-2,-5.679459035E-2,2.877941072E-2,7.890575927E-2
3.602606500E0,-6.333973058E-2,-4.824303746E-2,-1.033319950E-2,8.028752796E-2
3.612550500E0,-6.681206305E-2,-6.791657925E-2,-1.423387706E-2,9.632817221E-2
3.622495500E0,-5.087219230E-2,-7.836438417E-2,-1.517527878E-2,9.465329230E-2
3.632439500E0,-3.286131999E-2,-3.766542435E-2,-5.271089494E-2,7.264288670E-2
3.642383500E0,-4.159134544E-2,-4.361672044E-2,-2.510092735E-2,6.528640648E-2
3.652327500E0,-4.395835772E-2,-5.251852155E-2,-1.913735211E-2,7.111097359E-2
3.662272500E0,-4.835524005E-2,-2.861042619E-2,-7.098519802E-3,5.663192307E-2
3.672216500E0,-4.275876031E-2,-5.286526144E-2,2.030387163E-2,7.095981013E-2
3.682160500E0,-3.912334534E-2,-5.869025767E-2,-2.403468758E-2,7.451743892E-2
3.692105500E0,-3.727740220E-2,-7.079750240E-2,-5.511585474E-3,8.020142539E-2
3.702049500E0,-3.861957574E-2,-5.599644542E-2,2.191682607E-2,7.146622135E-2
3.711993500E0,-2.722237485E-2,-2.390049398E-2,-1.426662147E-2,3.893363319E-2
3.721937500E0,-2.423572216E-2,-3.827704310E-2,1.253789216E-2,4.700745683E-2
3.731882500E0,-1.683901720E-2,-5.505387425E-2,1.645464957E-2,5.987684914E-2
3.741826500E0,-1.768737967E-2,-5.560175836E-2,1.367634505E-2,5.992863545E-2
3.751770500E0,-7.330964897E-3,-4.501946747E-2,-3.727015257E-2,5.890296911E-2
3.761715500E0,2.185159307E-3,-5.784416556E-2,-9.455678612E-2,1.108679765E-1
3.771659500E0,8.818935100E-3,-6.454507470E-2,-4.179121971E-2,7.739732766E-2
3.781603500E0,-1.129059427E-2,-5.987548828E-2,-2.787952423E-3,6.099446118E-2
3.791547500E0,-3.190268269E-2,-4.229583442E-2,-1.984603465E-2,5.657370293E-2
3.801492500E0,-5.164089559E-2,-3.714911520E-2,-1.410933137E-3,6.363041404E-2
3.811436500E0,-7.618845707E-2,-1.762584686E-2,3.391385078E-3,7.827421645E-2
3.821380500E0,-7.142595017E-2,-2.344675004E-2,3.958038747E-2,8.495895196E-2
3.831325500E0,-4.955716264E-2,-2.546696305E-2,-5.315703750E-3,5.597084314E-2
3.841269500E0,-4.192265416E-2,-2.859113038E-2,-3.272277296E-2,6.037997630E-2
3.851213500E0,-2.732284189E-2,-4.343370259E-2,-5.333011508E-2,7.400760356E-2
3.861157500E0,-3.085232633E-2,-6.146943927E-2,-3.041984707E-2,7.520455505E-2
3.871102500E0,-3.757238053E-2,-4.542409480E-2,-2.584352374E-2,6.436551783E-2
3.881046500E0,-3.671436102E-2,-4.134449244E-2,-1.889440030E-2,5.843209497E-2
3.890990500E0,-3.152863904E-2,-6.708802879E-2,-1.231365144E-2,7.514309482E-2
3.900935500E0,-3.950441935E-2,-7.889589608E-2,2.464601398E-3,8.826797735E-2
3.910879500E0,-3.604674603E-2,-8.161543608E-2,1.075010598E-2,8.986663499E-2
3.920823500E0,-3.071484824E-2,-6.147821009E-2,-3.198426962E-4,6.872462817E-2
3.930767500E0,-3.500500975E-2,-4.402076304E-2,2.046233118E-3,5.627935106E-2
3.940712500E0,-1.889792233E-2,-2.979799569E-2,1.700955033E-2,3.917112225E-2
3.950656500E0,-2.639094647E-2,-5.305529594E-2,2.491118520E-2,6.427996291E-2
3.960600500E0,-1.251650871E-2,-5.774008512E-2,-9.569553137E-3,5.985112169E-2
3.970545500E0,8.183854390E-3,-6.442345262E-2,-7.420175135E-2,9.860657495E-2
3.980489500E0,1.240256567E-2,-7.012448788E-2,-8.453027308E-2,1.105288854E-1
3.990433500E0,-1.843189468E-2,-7.411228895E-2,-1.009901851E-2,7.703477325E-2
4.000377500E0,-4.445620245E-2,-4.178244889E-2,3.151941597E-2,6.867023048E-2
4.010322500E0,-4.296649635E-2,-1.285627306E-2,-3.289643526E-3,4.496915966E-2
4.020266500E0,-3.722180797E-2,-2.695157111E-2,-1.972909033E-2,5.001087061E-2
4.030210500E0,-5.294577942E-2,-7.232947290E-2,2.522576541E-2,9.311899618E-2
4.040155500E0,-5.248077046E-2,-5.396921575E-2,2.024803072E-2,7.795441145E-2
4.050099500E0,-4.924538727E-2,-3.774260759E-2,-1.727647573E-2,6.440566131E-2
4.060043500E0,-5.460599124E-2,-2.384903848E-2,-6.496519715E-2,8.815365991E-2
4.069987500E0,-5.214140811E-2,-3.740288436E-2,-2.185221434E-2,6.778806289E-2
4.079932500E0,-2.652127085E-2,-5.882649779E-2,6.776922941E-3,6.488344423E-2
4.089876500E0,-2.836407111E-2,-5.886684358E-2,-4.717124283E-2,8.059126475E-2
4.099820500E0,-4.535155735E-2,-5.064156532E-2,-5.358973145E-2,8.656322088E-2
4.109765500E0,-6.174128911E-2,-3.549376845E-2,-3.135189325E-2,7.781218151E-2
4.119709500E0,-3.733813559E-2,-4.561179042E-2,-1.068052411E-2,5.990530352E-2
4.129653500E0,-2.022411196E-2,-6.806392908E-2,1.087231278E-2,7.183258544E-2
4.139598500E0,-2.428677566E-2,-4.383189797E-2,-3.280112565E-2,5.989154027E-2
4.149542500E0,-3.042137283E-2,-5.534506559E-2,-9.932665229E-3,6.393116649E-2
4.159486500E0,-3.945323337E-2,-5.876217842E-2,2.413906038E-2,7.478131767E-2
4.169430500E0,-2.842553540E-2,-5.847040236E-2,1.442683518E-2,6.659528954E-2
4.179375500E0,-1.633522476E-2,-4.398977280E-2,-1.053668261E-3,4.693665833E-2
4.189319500E0,-7.713984931E-3,-3.512714803E-2,-3.285608947E-2,4.871288031E-2
4.199263500E0,-1.085004768E-2,-6.280494332E-2,-7.742882967E-3,6.420386809E-2
4.209208500E0,6.188510321E-3,-7.700724542E-2,1.093020022E-2,7.802488567E-2
4.219152500E0,-1.592938231E-2,-4.943411529E-2,-2.566109061E-2,5.793072196E-2
4.229096500E0,-4.640440334E-2,-4.812667787E-2,-1.225284040E-2,6.796821220E-2
4.239040500E0,-4.443763297E-2,-4.989955366E-2,-2.742402613E-2,7.222704402E-2
4.248985500E0,-4.183835375E-2,-6.019708514E-2,-7.583253980E-3,7.369967873E-2
4.258929500E0,-4.104824874E-2,-6.961402595E-2,2.771229386E-2,8.543443430E-2
4.268873500E0,-5.781950676E-2,-3.624396622E-2,-1.153363287E-3,6.824991353E-2
4.278818500E0,-5.982484134E-2,-4.533931017E-2,-1.365500271E-2,7.629628947E-2
4.288762500E0,-3.448479028E-2,-3.045288384E-2,-1.335094750E-2,4.790434943E-2
4.298706500E0,-2.006108884E-2,-5.010946870E-2,-2.916883528E-3,5.405473474E-2
4.308650500E0,-2.705394763E-2,-7.835268974E-2,-1.018234134E-2,8.351490973E-2
4.318595500E0,-1.825705379E-2,-4.512179375E-2,-7.424969852E-2,8.878239698E-2
4.328539500E0,-2.742638786E-2,-4.765422285E-2,-5.780966699E-2,7.978150979E-2
4.338483500E0,-2.952657524E-2,-5.235012174E-2,-6.560575962E-4,6.010644144E-2
4.348428500E0,-4.651001867E-2,-1.940632403E-2,1.098984182E-2,5.158065405E-2
4.358372500E0,-5.559386919E-2,-9.541486502E-3,5.334122479E-3,5.665837201E-2
4.368316500E0,-4.511933152E-2,-5.831486642E-2,-4.067615569E-2,8.420764433E-2
4.378260500E0,-1.839328021E-2,-7.773931682E-2,-4.553870022E-2,9.195372399E-2
4.388205500E0,-1.712888835E-2,-6.947837055E-2,-2.853792071E-2,7.703931275E-2
4.398147375E0,-2.576519846E-2,-5.160577118E-2,-1.247620404E-2,5.901403849E-2
4.408091375E0,-2.502249700E-2,-2.030504107E-2,1.707386971E-3,3.226972606E-2
4.418036375E0,-1.079869725E-2,-4.086619020E-3,7.880292535E-3,1.397896018E-2
4.427980375E0,-1.334594996E-2,-3.420504212E-2,2.111838877E-2,4.235664802E-2
4.437924375E0,-1.590890335E-2,-6.292539597E-2,-1.979194790E-2,6.785587568E-2
4.447868375E0,-1.242259238E-3,-7.118575752E-2,-7.170148194E-2,1.010448306E-1
4.457813375E0,-1.848488964E-2,-8.143768072E-2,-3.998384535E-2,9.258776850E-2
4.467757375E0,-4.111535467E-2,-7.965427995E-2,1.932036996E-2,9.169816464E-2
4.477701375E0,-5.838948238E-2,-3.786598384E-2,5.040241420E-2,8.592768903E-2
4.487646375E0,-6.538692301E-2,-5.358973145E-3,6.202697128E-2,9.028573232E-2
4.497590375E0,-7.193757241E-2,-3.226552069E-2,3.649685830E-2,8.687979521E-2
4.507534375E0,-4.882833461E-2,-3.867523849E-2,2.236618459E-2,6.618327996E-2
4.517478375E0,-2.795513604E-2,-5.668056965E-2,-3.591886103E-2,7.269347415E-2
4.527423375E0,-8.026614538E-3,-7.503556430E-2,-6.296047926E-2,9.827911477E-2
4.537367375E0,-1.997717216E-2,-5.072167218E-2,-6.819373727E-2,8.730498977E-2
4.547311375E0,-2.910645737E-2,-4.553343773E-2,-3.517860353E-2,6.448266401E-2
4.557256375E0,-3.768361010E-2,-5.761027694E-2,-1.313109219E-2,7.008155293E-2
4.567200375E0,-4.054657591E-2,-5.232965648E-2,-2.609349221E-2,7.115678535E-2
4.577144375E0,-3.368498711E-2,-5.272785187E-2,-2.635690928E-2,6.789397164E-2
4.587089375E0,-2.017337366E-2,-6.032163084E-2,-3.707251668E-2,7.362089136E-2
4.597033375E0,-3.558171880E-2,-3.676027536E-2,-2.418116033E-2,5.658714582E-2
4.606977375E0,-3.050676502E-2,-5.671916127E-2,2.442469686E-2,6.887881956E-2
4.616921375E0,-2.387560220E-2,-5.513631999E-2,-4.776005745E-3,6.027328093E-2
4.626866375E0,-2.813412479E-2,-2.848354161E-2,-6.392293096E-2,7.542534204E-2
4.636810375E0,-1.411419644E-2,-2.625165939E-2,-5.266587138E-2,6.051490866E-2
4.646754375E0,-1.401321776E-4,-5.436507225E-2,-3.910237759E-2,6.696698180E-2
4.656699375E0,2.234553661E-2,-1.062222737E-1,-3.222517490E-2,1.132296619E-1
4.666643375E0,-1.837409860E-3,-7.001806855E-2,-4.684935361E-2,8.426605445E-2
4.676587375E0,-3.981032923E-2,-2.726615131E-2,-3.417522132E-2,5.912910513E-2
4.686531375E0,-6.052487640E-2,-3.672811568E-2,3.382701963E-2,7.846325510E-2
4.696476375E0,-7.556296488E-2,-2.964830697E-2,7.713763833E-2,1.119776719E-1
4.706420375E0,-6.262153718E-2,-4.440843344E-2,5.368357927E-2,9.367759904E-2
4.716364375E0,-2.546733307E-2,-7.871404767E-2,-8.379352391E-3,8.315467456E-2
4.726309375E0,-2.998718509E-2,-6.415038764E-2,-4.050834060E-2,8.158081369E-2
4.736253375E0,-3.332099337E-2,-7.153132796E-2,-4.432540298E-2,9.050834673E-2
4.746197375E0,-3.141333926E-2,-6.758913517E-2,-2.198260725E-2,7.770665414E-2
4.756141375E0,-3.855611974E-2,-1.756386638E-2,-4.911661148E-4,4.237103983E-2
4.766086375E0,-1.334325932E-2,-2.294213533E-2,2.358620614E-2,3.550624259E-2
4.776030375E0,-3.215011127E-2,-3.306541979E-2,2.136689544E-2,5.082810110E-2
4.785974375E0,-4.597221188E-2,-1.735453606E-3,7.050572634E-3,4.654209534E-2
4.795919375E0,-3.432657285E-2,-5.483518839E-3,-1.509107888E-2,3.789621675E-2
4.805863375E0,-2.208222918E-2,-5.417971551E-2,-5.558655560E-3,5.877044385E-2
4.815807375E0,-1.095119538E-2,-2.395545781E-2,-6.875448525E-3,2.722249862E-2
4.825751375E0,-9.178214525E-3,-1.889761627E-2,-2.087719113E-2,2.961784313E-2
4.835696375E0,-2.080655402E-2,-5.125318408E-2,-2.868351638E-3,5.538979157E-2
4.845640375E0,-2.769500803E-2,-4.133630633E-2,-3.872786343E-2,6.305197140E-2
4.855584375E0,-1.028479552E-2,-4.194967926E-2,-1.594360292E-2,4.604075458E-2
4.865529375E0,9.042367260E-3,-7.043731391E-2,-5.064565837E-3,7.119571212E-2
4.875473375E0,-1.215974176E-2,-8.093715906E-2,-1.684407413E-2,8.356079146E-2
4.885417375E0,-1.461808938E-2,-6.071690261E-2,-4.860439539E-2,7.913670483E-2
4.895361375E0,-3.430712629E-2,-6.277570724E-2,-7.023792386E-2,1.002553454E-1
4.905306375E0,-4.287769633E-2,-1.030220926E-1,-1.743990541E-2,1.129433429E-1
4.915250375E0,-7.250406710E-2,-6.418605566E-2,2.472202778E-3,9.686486089E-2
4.925194375E0,-6.022430210E-2,-5.568478882E-2,-6.740085483E-3,8.229939868E-2
4.935139375E0,-5.390195907E-2,-5.041527808E-2,1.444730043E-2,7.520535848E-2
4.945083375E0,-5.773848171E-2,-2.197617531E-2,-1.069777340E-2,6.269869940E-2
4.955027375E0,-6.940974799E-2,-3.933772802E-2,-2.073071837E-2,8.243138144E-2
4.964972375E0,-5.594811453E-2,-6.064498186E-2,-4.636549652E-2,9.464546799E-2
4.974916375E0,-4.334247689E-2,-5.376105487E-2,-6.492368191E-2,9.478346795E-2
4.984860375E0,-3.414804548E-2,-3.467749715E-2,-4.697126806E-2,6.763813895E-2
4.994804375E0,-2.060550573E-2,-7.881812811E-2,-2.979741096E-2,8.674543150E-2
5.004749375E0,-1.508785377E-2,-9.604461014E-2,-3.485993028E-2,1.032832281E-1
5.014693375E0,-3.256419464E-2,-4.584392488E-2,-2.330115438E-2,6.086900702E-2
5.024637375E0,-3.564599706E-2,-3.301279485E-2,5.477671623E-2,7.321864770E-2
5.034582375E0,-5.454353567E-2,-2.474717081E-2,9.544702470E-2,1.126834250E-1
5.044526375E0,-4.666687480E-2,4.405292273E-3,4.702535480E-2,6.639719722E-2
5.054470375E0,-2.332354738E-2,-1.072788656E-2,3.945408762E-3,2.597386500E-2
5.064414375E0,1.958726338E-2,-5.772780597E-2,-4.081882775E-2,7.336441350E-2
5.074359375E0,4.016002013E-2,-8.597336590E-2,-4.675755233E-2,1.057852332E-1
5.084303375E0,6.447350113E-3,-5.422006130E-2,-5.637914568E-2,7.848561294E-2
5.094247375E0,-1.249922745E-2,-1.892100513E-2,-7.685287893E-2,8.012864732E-2
5.104192375E0,-6.063051000E-3,-2.554414630E-2,2.981495261E-3,2.642259093E-2
5.114136375E0,-1.120554926E-2,-3.941140294E-2,5.300968766E-2,6.699888060E-2
5.124080375E0,-1.740186653E-2,-5.093626499E-2,5.465100110E-2,7.670762655E-2
5.134024375E0,-4.135367896E-2,-5.369030356E-2,3.382351130E-2,7.574170170E-2
5.143969375E0,-5.760123659E-2,-4.008383274E-2,-1.943205178E-2,7.281634940E-2
5.153913375E0,-3.634245983E-2,-5.869493544E-2,-1.288317025E-2,7.022710238E-2
5.163857375E0,-9.920587074E-3,-7.027476132E-2,-3.821330845E-2,8.060531663E-2
5.173802375E0,-2.261315636E-2,-8.199784398E-2,-4.260047436E-2,9.513044557E-2
5.183746375E0,-4.095996492E-2,-6.657171965E-2,-5.114851892E-2,9.341136746E-2
5.193690375E0,-5.743369559E-2,-5.759682834E-2,-3.574519873E-2,8.884674027E-2
5.203635375E0,-7.112432978E-2,-5.287754059E-2,3.907723457E-2,9.685935601E-2
5.213579375E0,-8.370254489E-2,-9.142706394E-3,4.904761434E-2,9.744420749E-2
5.223523375E0,-7.431262004E-2,6.555898190E-3,2.902791739E-2,8.004976756E-2
5.233467375E0,-3.390614890E-2,-6.272015870E-2,6.984499097E-3,7.163957334E-2
5.243412375E0,-1.559498553E-2,-7.537177920E-2,-4.299545377E-2,8.816301787E-2
5.253356375E0,-1.987365360E-2,-8.101902008E-2,-5.967785239E-2,1.025694389E-1
5.263300375E0,-2.266652591E-2,-5.412475169E-2,-4.310421199E-2,7.280956828E-2
5.273245375E0,-1.905202387E-2,-3.632348835E-2,-4.053289890E-2,5.766533893E-2
5.283189375E0,6.517448178E-3,-4.254141748E-2,-2.224485487E-2,4.844670164E-2
5.293133375E0,3.403127475E-2,-5.758571863E-2,-9.530493736E-2,1.164357065E-1
5.303078375E0,1.524851973E-2,-8.820817173E-2,-5.697497696E-2,1.061100698E-1
5.313022375E0,-2.926993730E-2,-7.696573019E-2,-3.350805402E-2,8.890018300E-2
5.322966375E0,-4.148422262E-2,-5.323889852E-3,-3.924241841E-2,5.735200024E-2
5.332910375E0,-5.750663047E-2,-2.888758421E-2,3.451523691E-2,7.302606828E-2
5.342855375E0,-4.049086747E-2,-4.712621927E-2,2.818065584E-2,6.822419113E-2
5.352799375E0,-2.845122661E-2,-4.787875593E-2,-1.222886682E-2,5.702098516E-2
5.362743375E0,-3.205179582E-2,-2.363152206E-2,-1.851053059E-2,4.391362195E-2
5.372688375E0,-5.113532157E-2,-2.931443095E-2,-2.735269010E-2,6.497943236E-2
5.382632375E0,-2.835259595E-2,-3.203104734E-2,4.581585824E-3,4.302149021E-2
5.392576375E0,3.807172361E-3,-5.601398706E-2,2.081959605E-2,5.987918577E-2
5.402519917E0,-2.549285525E-3,-3.983240247E-2,-1.640728712E-3,3.994760486E-2
5.412464917E0,-2.402266424E-2,-3.575513899E-2,-1.069689631E-2,4.438402812E-2
5.422408917E0,-3.767707766E-2,-1.122548461E-2,-2.984594285E-2,4.935943670E-2
5.432352917E0,-3.183081219E-2,-5.645545185E-2,3.636968136E-2,7.431804875E-2
5.442297917E0,-4.676375129E-2,-6.883049905E-2,7.191315114E-2,1.099817591E-1
5.452241917E0,-4.648613188E-2,-3.917692959E-2,1.245486170E-2,6.205574792E-2
5.462185917E0,-3.758829592E-2,-3.462311804E-2,-2.951966822E-3,5.118939735E-2
5.472129917E0,-1.188941767E-2,-7.730136037E-2,1.103077233E-3,7.821812672E-2
5.482074917E0,-2.622460688E-2,-8.823214531E-2,2.565992117E-2,9.555664826E-2
5.492018917E0,-4.126325268E-2,-3.915471017E-2,-1.021859407E-2,5.779417804E-2
5.501962917E0,-2.326973930E-2,-4.081882775E-2,-5.613590151E-2,7.320448691E-2
5.511907917E0,-1.626711383E-2,-5.006093681E-2,-2.478342354E-2,5.818018966E-2
5.521851917E0,-2.720878464E-3,-5.878205895E-2,-1.033027589E-2,5.974485948E-2
5.531795917E0,-5.112549551E-3,-5.366632998E-2,-6.320547760E-3,5.427856354E-2
5.541740917E0,-3.776917131E-2,-4.738174260E-2,-5.720945030E-2,8.333343289E-2
5.551684917E0,-5.156347937E-2,-2.547105610E-2,-6.077449769E-2,8.367261603E-2
5.561628917E0,-3.708349391E-2,-1.892158985E-2,-8.483432829E-3,4.248741832E-2
5.571572917E0,-1.518866799E-2,-3.930381417E-2,2.795261443E-3,4.222912420E-2
5.581517917E0,-2.432158030E-2,-3.195912659E-2,-3.943946958E-2,5.628851394E-2
5.591461917E0,-3.640724515E-2,-3.744732320E-2,-6.487047225E-2,8.328245725E-2
5.601405917E0,-3.698504142E-2,-7.791064024E-2,-2.347657084E-2,8.938182438E-2
5.611350917E0,-2.738817539E-2,-6.254006445E-2,1.733962566E-2,7.044170946E-2
5.621294917E0,-1.177266522E-2,-5.257465482E-2,-3.176938444E-2,6.254585329E-2
5.631238917E0,-2.555103505E-2,-4.244552314E-2,-7.327701420E-2,8.845336984E-2
5.641182917E0,-3.174172894E-2,-8.439110935E-2,-4.206954718E-2,9.949494205E-2
5.651127917E0,-3.925306217E-2,-1.131319284E-1,-3.046399355E-4,1.197486072E-1
5.661071917E0,-5.384030292E-2,-7.709495366E-2,-4.262035489E-3,9.413062756E-2
5.671015917E0,-6.939290984E-2,-1.149036348E-2,-8.840405345E-3,7.089116415E-2
5.680960917E0,-5.934640663E-2,-2.159961462E-3,1.976066530E-2,6.258710176E-2
5.690904917E0,-5.713784019E-2,-2.633995235E-2,5.193906248E-2,8.158548941E-2
5.700848917E0,-5.181702926E-2,-2.814440310E-2,4.342200816E-2,7.322965751E-2
5.710793917E0,-1.865975793E-2,-4.261041462E-2,-1.387865871E-2,4.854329169E-2
5.720737917E0,-6.902414239E-3,-6.284178078E-2,-7.478004098E-2,9.792235323E-2
5.730681917E0,7.586881081E-3,-6.575310946E-2,-2.571430027E-2,7.100885442E-2
5.740625917E0,8.400434344E-3,-5.768102825E-2,-8.327019811E-3,5.888130073E-2
5.750570917E0,4.850735902E-3,-3.095165133E-2,-1.686717063E-2,3.558139688E-2
5.760514917E0,1.146839987E-3,1.219378352E-2,-1.424907982E-2,1.878935535E-2
5.770458917E0,-2.283122553E-2,-1.040862858E-2,2.286992222E-2,3.395051915E-2
5.780403917E0,-2.792040906E-2,-5.536202252E-2,7.656022578E-2,9.851888627E-2
5.790347917E0,-2.886212141E-2,-5.005333543E-2,3.826417923E-2,6.930011437E-2
5.800291917E0,-2.461364872E-2,-6.418137789E-2,-2.253049135E-2,7.233743161E-2
5.810235917E0,-1.643436704E-2,-3.718595266E-2,-2.758307040E-2,4.912951524E-2
5.820180917E0,-2.639589833E-2,-4.948206246E-2,1.183125615E-2,5.731663437E-2
5.830124917E0,-3.515205352E-2,-8.429287612E-2,-1.403477937E-2,9.240092458E-2
5.840068917E0,-2.307541531E-2,-8.740184069E-2,-6.662259042E-2,1.122948178E-1
5.850013917E0,-5.334588429E-3,-8.008405030E-2,-8.724133462E-2,1.185451956E-1
5.859957917E0,-3.639346308E-2,-5.333947062E-2,-1.052089512E-2,6.542379166E-2
5.869901917E0,-4.228729657E-2,-4.133981466E-2,3.208659589E-2,6.728109217E-2
5.879846917E0,-5.121313979E-2,-2.813855588E-2,3.519497573E-2,6.821473691E-2
5.889790917E0,-4.363666949E-2,-3.428982675E-2,-5.249074727E-2,7.638867516E-2
5.899734917E0,-2.585471111E-2,-7.991214216E-2,-6.887903094E-2,1.086219934E-1
5.909678917E0,-2.693910009E-2,-7.480109096E-2,-5.006883055E-2,9.395640539E-2
5.919623917E0,-2.494410320E-2,-4.451543748E-2,-2.889050782E-2,5.863867240E-2
5.929567917E0,-3.692703978E-2,-2.440160036E-2,-1.670929581E-2,4.731009336E-2
5.939511917E0,-1.166453741E-2,-3.085224867E-2,-3.269499868E-2,4.644228267E-2
5.949456917E0,-2.536254457E-2,-6.540929317E-2,-5.592861772E-4,7.015658987E-2
5.959400917E0,-3.480108353E-2,-4.859737873E-2,-1.158713490E-2,6.088581386E-2
5.969344917E0,-4.230020156E-2,-3.428339481E-2,-3.152467847E-2,6.291632193E-2
5.979289917E0,-5.742781640E-2,-1.919173121E-2,-2.173497766E-2,6.433261923E-2
5.989233917E0,-4.566588630E-2,-1.828950584E-2,-3.566596895E-2,6.076134081E-2
5.999177917E0,-5.036848665E-2,-7.961101055E-2,1.843773276E-2,9.599399688E-2
6.009121917E0,-4.020053494E-2,-8.365669906E-2,-1.736623049E-3,9.283071780E-2
6.019066917E0,-2.371925770E-2,-3.318821132E-2,-9.893547356E-2,1.070153657E-1
6.029010917E0,-1.560551508E-2,-5.080704153E-2,-4.589479566E-2,7.022264477E-2
6.038954917E0,-1.941368787E-2,-4.558723211E-2,1.132868797E-2,5.082741563E-2
6.048899917E0,-1.251660921E-2,-5.242145777E-2,5.944104016E-2,8.023660010E-2
6.058843917E0,-8.049331885E-4,-3.329989314E-2,1.536414385E-2,3.668225343E-2
6.068787917E0,-1.855652260E-2,-1.829827666E-2,-4.952445477E-2,5.596287234E-2
6.078731917E0,-1.783878144E-2,-4.765246868E-2,-1.344216406E-2,5.262767019E-2
6.088676917E0,2.269656141E-3,-6.741547287E-2,4.808808625E-2,8.283997441E-2
6.098620917E0,2.522200583E-2,-5.765763938E-2,8.236972690E-3,6.346968313E-2
6.108564917E0,-9.743050989E-3,-3.931375444E-2,-2.843734860E-2,4.948920212E-2
6.118509917E0,-3.369543444E-2,-1.520626903E-2,-4.554396272E-2,5.865889071E-2
6.128453917E0,-4.172039531E-2,-6.237692714E-2,3.679682046E-2,8.357917456E-2
6.138397917E0,-3.033613596E-2,-8.424434423E-2,6.436673462E-2,1.102745084E-1
6.148342917E0,-1.932275909E-2,-4.810036540E-2,1.424937218E-2,5.375926691E-2
6.158286917E0,-3.959598766E-2,-1.975481808E-2,2.007056773E-3,4.429586158E-2
6.168230917E0,-4.531682123E-2,-2.082251966E-2,9.807534814E-3,5.082695496E-2
6.178174917E0,-3.030114859E-2,-6.117357016E-2,4.128075778E-2,7.977760497E-2
6.188119917E0,-1.337069556E-2,-8.822162032E-2,-1.687155604E-2,9.081012716E-2
6.198063917E0,-1.408713479E-2,-5.763717413E-2,-8.011971831E-2,9.969784587E-2
6.208007917E0,-2.592003090E-2,-8.095996320E-2,-8.991117328E-2,1.237351313E-1
6.217952917E0,-3.472517023E-2,-8.272055984E-2,-3.669887960E-2,9.692954261E-2
6.227896917E0,-4.223420111E-2,-2.554122269E-2,-3.016286194E-3,4.944875916E-2
6.237840917E0,-4.404182215E-2,-2.171831310E-2,-4.510542154E-3,4.931239411E-2
6.247785917E0,-6.151883910E-2,-1.669204652E-2,-4.646372974E-2,7.888009992E-2
6.257729917E0,-5.781860227E-2,-1.202713788E-2,-2.286904514E-2,6.332958265E-2
6.267673917E0,-2.293285745E-2,-6.600278556E-2,2.566839963E-2,7.443890376E-2
6.277617917E0,-3.370365709E-2,-6.449420393E-2,-2.118212342E-2,7.578998083E-2
6.287562917E0,-9.713435755E-3,-2.899458826E-2,-1.004194969E-1,1.049719598E-1
6.297506917E0,-1.155370070E-2,-3.381795645E-2,-7.043439031E-2,7.898193158E-2
6.307450917E0,-4.422185244E-3,-8.834207296E-2,-4.787700176E-3,8.858216328E-2
6.317395917E0,-7.308407435E-3,-7.665641248E-2,-1.787493825E-3,7.702475919E-2
6.327339917E0,-3.242032116E-2,-4.469377756E-2,-1.989661306E-2,5.868974517E-2
6.337283917E0,-3.688312628E-2,-4.684847653E-2,-4.524283111E-2,7.484690056E-2
6.347228917E0,-2.685340184E-2,-5.722143710E-2,2.188612819E-2,6.689096098E-2
6.357172917E0,-4.496810791E-2,-4.840734422E-2,4.946598262E-2,8.253656850E-2
6.367116917E0,-3.254318121E-2,-6.513213515E-2,-6.279909611E-3,7.308003104E-2
6.377060917E0,-3.544034866E-2,-5.853939950E-2,-3.293619633E-2,7.594519495E-2
6.387005917E0,-2.636348739E-2,-4.906398654E-2,-4.668329269E-2,7.267487915E-2
6.396950625E0,-1.990202630E-2,-6.674362779E-2,1.861899644E-2,7.209347772E-2
6.406894625E0,-2.018909718E-2,-4.548899889E-2,4.271975756E-2,6.558830956E-2
6.416839625E0,-3.482356790E-2,-7.487944365E-3,-2.040795207E-2,4.105161020E-2
6.426783625E0,-3.046840180E-2,-2.655805349E-2,-5.787574053E-3,4.083074488E-2
6.436727625E0,-2.224227844E-2,-4.823426664E-2,2.124439627E-2,5.720653635E-2
6.446671625E0,-2.230065466E-2,-4.324483752E-2,5.319796801E-2,7.209340449E-2
6.456616625E0,-1.761677454E-2,-2.992371082E-2,3.616619825E-2,5.013754193E-2
6.466560625E0,-3.364992209E-2,-1.810824215E-2,-2.683258027E-2,4.669275162E-2
6.476504625E0,-2.439025768E-2,-5.317691803E-2,1.098048627E-2,5.952512377E-2
6.486449625E0,-2.289409680E-2,-4.930956960E-2,2.121223658E-2,5.835693877E-2
6.496393625E0,-1.961810744E-2,-4.826759577E-2,-1.499956995E-2,5.421824453E-2
6.506337625E0,-2.029563071E-2,-4.741741061E-2,-2.390195578E-2,5.684740052E-2
6.516282625E0,-1.359212230E-2,-3.615684271E-2,-6.067743391E-2,7.192922945E-2
6.526226625E0,-1.121121375E-2,-4.921425998E-2,-3.503008425E-2,6.143973879E-2
6.536170625E0,-2.597383899E-2,-5.507200062E-2,6.476376057E-3,6.123323453E-2
6.546114625E0,-2.633835807E-2,-4.943762362E-2,-4.040893793E-2,6.907003692E-2
6.556059625E0,-1.743087420E-2,-5.468959272E-2,-3.319698215E-2,6.630857072E-2
6.566003625E0,-1.697062067E-2,-6.042746544E-2,-3.204303414E-2,7.047153029E-2
6.575947625E0,-3.382020854E-2,-5.424228072E-2,-2.613471508E-2,6.905834385E-2
6.585892625E0,-3.045613635E-2,-3.296835601E-2,-3.198368490E-2,5.511301878E-2
6.595836625E0,-2.525543089E-2,-4.032590747E-2,-7.818662882E-2,9.152685141E-2
6.605780625E0,-3.519926978E-2,-4.569248199E-2,-1.551529437E-2,5.972868543E-2
6.615725625E0,-4.339328371E-2,-4.460723877E-2,-6.319670677E-3,6.255174705E-2
6.625669625E0,-4.156490049E-2,-3.528326869E-2,-1.090418011E-2,5.560081965E-2
6.635613625E0,-4.712826123E-2,-3.593230963E-2,-3.552066565E-2,6.909357112E-2
6.645557625E0,-5.348607128E-2,-4.743553698E-2,-4.113457739E-2,8.247995785E-2
6.655502625E0,-5.538041384E-2,-5.437033474E-2,-5.425046682E-3,7.779816623E-2
6.665446625E0,-5.704346704E-2,-7.572962880E-2,-1.783400774E-3,9.482675956E-2
6.675390625E0,-6.138180412E-2,-7.548404574E-2,-3.279995620E-2,1.026713405E-1
6.685335625E0,-6.015740173E-2,-7.188040674E-2,-1.860174716E-2,9.556009027E-2
6.695279625E0,-3.839235202E-2,-8.207795084E-2,1.302174926E-2,9.154413504E-2
6.705223625E0,-3.993375573E-2,-9.336775482E-2,5.626717150E-2,1.160958099E-1
6.715168625E0,-4.988643397E-2,-6.389544904E-2,6.845510781E-2,1.061008317E-1
6.725112625E0,-4.079292184E-2,-4.097027063E-2,3.265494525E-2,6.640008281E-2
6.735056625E0,-2.203091986E-2,-6.186412632E-2,5.350026906E-2,8.470425223E-2
6.745000625E0,-1.560232652E-2,-4.426342249E-2,6.845335364E-2,8.299725772E-2
6.754945625E0,-2.587163606E-2,-4.799570024E-2,1.873477131E-2,5.765345133E-2
6.764889625E0,8.838157821E-4,-4.580767214E-2,-4.433651268E-2,6.375617864E-2
6.774833625E0,4.611207454E-2,-5.469953299E-2,-3.300665528E-2,7.878960350E-2
6.784778625E0,3.030493101E-2,-3.999904811E-2,-1.930399776E-2,5.376762058E-2
6.794722625E0,1.402812359E-2,-3.833200693E-2,-1.440870881E-2,4.328674042E-2
6.804666625E0,1.983617661E-3,-2.663874507E-2,-2.208142519E-2,3.465756507E-2
6.814611625E0,4.378477307E-3,-1.056650341E-2,-2.130403787E-2,2.418024167E-2
6.824555625E0,-1.067222381E-2,-4.142810762E-2,1.871986091E-2,4.669708400E-2
6.834499625E0,-3.201396708E-2,-2.604583740E-2,4.604389966E-3,4.152686048E-2
6.844443625E0,-2.894918554E-2,-2.367245257E-2,-4.292148650E-2,5.692709686E-2
6.854388625E0,-2.134768642E-2,-4.312555432E-2,-6.927576452E-2,8.434849555E-2
6.864332625E0,-2.794845742E-2,-4.201224446E-2,-3.586155832E-2,6.190473586E-2
6.874276625E0,-5.185352411E-2,-5.491880357E-2,1.692768931E-2,7.740419636E-2
6.884221625E0,-5.607239070E-2,-2.493486643E-2,-4.601700246E-2,7.670348804E-2
6.894165625E0,-4.562490554E-2,-4.434996128E-2,-8.324008495E-2,1.047733879E-1
6.904109625E0,-4.783684327E-2,-6.924740553E-2,-3.106801093E-2,8.971503803E-2
6.914054625E0,-6.000138158E-2,-7.190145671E-2,-2.726673603E-2,9.753696818E-2
6.923998625E0,-5.706472715E-2,-5.242672026E-2,-2.266088426E-2,8.073697887E-2
6.933942625E0,-4.220953317E-2,-5.014689088E-2,-4.054780930E-2,7.707451067E-2
6.943886625E0,-3.428973539E-2,-7.170323610E-2,-9.258481264E-3,8.001786985E-2
6.953831625E0,-3.493352297E-2,-5.349091351E-2,4.054634750E-2,7.566792683E-2
6.963775625E0,-4.404106841E-2,-4.973583162E-2,1.180231243E-2,6.747268508E-2
6.973719625E0,-3.234137004E-2,-3.996747315E-2,-1.070888311E-2,5.251707630E-2
6.983664625E0,-1.190718316E-2,-3.545985460E-2,-2.810756564E-2,4.678907507E-2
6.993608625E0,-1.017177067E-2,-3.608609140E-2,-2.296084642E-2,4.396443312E-2
7.003552625E0,-7.582016014E-3,-6.358963966E-2,1.979165554E-2,6.702864215E-2
7.013497625E0,-5.926609877E-3,-5.699164152E-2,-1.855496943E-2,6.022838864E-2
7.023441625E0,-9.276973084E-4,-3.844895124E-2,-3.440794051E-2,5.160512420E-2
7.033385625E0,-2.123155980E-3,-5.122745633E-2,-2.880923152E-3,5.135231048E-2
7.043329625E0,-1.446941935E-2,-5.675658345E-2,9.822737575E-3,5.938989843E-2
7.053274625E0,5.188412606E-3,-6.514733791E-2,-2.283337712E-3,6.539349275E-2
7.063218625E0,1.042798835E-2,-7.265106976E-2,-1.691160947E-2,7.531881181E-2
7.073162625E0,-6.941321064E-3,-6.341013014E-2,-2.805230945E-2,6.968470857E-2
7.083107625E0,-1.478552075E-2,-4.793781281E-2,-6.464681625E-3,5.058100067E-2
7.093051625E0,-9.641853045E-3,-4.211690962E-2,-2.986757755E-3,4.330958472E-2
7.102995625E0,-1.549754259E-2,-5.460071504E-2,4.328693748E-3,5.692231108E-2
7.112940625E0,-1.176794634E-2,-4.569072783E-2,-8.534303606E-3,4.794748699E-2
7.122884625E0,-2.897431943E-2,-2.959451258E-2,-2.771872580E-2,4.983647381E-2
7.132828625E0,-4.274680093E-2,-3.825306952E-2,4.415524900E-3,5.753332232E-2
7.142772625E0,-5.787468529E-2,-3.235849142E-2,2.674487203E-2,7.149712822E-2
7.152717625E0,-4.500338306E-2,-3.287129223E-2,-3.867933154E-4,5.573128340E-2
7.162661625E0,-4.252623299E-2,-4.811205983E-2,3.444302380E-3,6.430485217E-2
7.172605625E0,-5.667745875E-2,-5.460831642E-2,-3.786656857E-3,7.879556664E-2
7.182550625E0,-5.062156602E-2,-5.708695114E-2,8.342222571E-3,7.675321240E-2
7.192494625E0,-5.809607549E-2,-6.328733861E-2,4.737414122E-3,8.604001574E-2
7.202438625E0,-3.540082513E-2,-4.946276665E-2,-2.094940424E-2,6.433242761E-2
7.212383625E0,-2.277151998E-2,-5.324474573E-2,-2.026352584E-2,6.135271428E-2
7.222327625E0,-2.973574568E-2,-5.270914078E-2,-1.937884212E-2,6.354531937E-2
7.232271625E0,-3.215529154E-2,-5.024044633E-2,5.634084642E-3,5.991500756E-2
7.242215625E0,-3.705751035E-2,-3.943479180E-2,2.454953492E-3,5.416999792E-2
7.252160625E0,-3.221996266E-2,-3.651059926E-2,-3.032482982E-2,5.736501682E-2
7.262104625E0,-1.478436501E-2,-4.501771331E-2,-1.601026118E-2,5.001500198E-2
7.272048625E0,-1.999475949E-2,-5.550294042E-2,-5.370667577E-3,5.923859276E-2
7.281993625E0,-1.098683598E-2,-5.407680452E-2,-1.898707867E-2,5.835683772E-2
7.291937625E0,8.453621166E-3,-4.652804911E-2,-2.691122532E-2,5.441081798E-2
7.301881625E0,-5.249264762E-3,-4.780040324E-2,-2.213697374E-2,5.293844479E-2
7.311826625E0,-1.207368719E-2,-6.543619037E-2,-2.399375707E-2,7.073449873E-2
7.321770625E0,-4.093640246E-3,-5.815816104E-2,-4.261450768E-3,5.845758761E-2
7.331714625E0,-1.484370511E-3,-5.737580359E-2,-1.014199555E-3,5.740396148E-2
7.341659625E0,-1.367849207E-2,-5.263605058E-2,-1.647160649E-2,5.682401593E-2
7.351603625E0,-1.720491129E-2,-3.979147196E-2,-7.431226373E-3,4.398401231E-2
7.361547625E0,-1.642024693E-2,-5.178995848E-2,7.587931752E-3,5.485800777E-2
7.371491625E0,-2.864113777E-2,-6.052043617E-2,9.787361920E-3,6.766705565E-2
7.381436625E0,-2.478485337E-2,-6.592501760E-2,-2.655132920E-2,7.526865206E-2
7.391380625E0,-2.683117785E-2,-4.844769001E-2,-2.604934573E-2,6.120179070E-2
7.401324417E0,-4.816855855E-2,-4.450666666E-2,5.728809536E-3,6.583215528E-2
7.411269417E0,-5.384262810E-2,-4.763434231E-2,1.347753972E-2,7.314166559E-2
7.421213417E0,-4.148343690E-2,-4.011423826E-2,-2.641479671E-2,6.346470778E-2
7.431157417E0,-3.681172629E-2,-4.634035349E-2,-3.388578415E-2,6.819661224E-2
7.441102417E0,-4.092884220E-2,-4.643683255E-2,-1.319307268E-2,6.328986259E-2
7.451046417E0,-3.271219315E-2,-4.074281394E-2,7.453738153E-3,5.277899849E-2
7.460990417E0,-3.197142859E-2,-3.766074657E-2,-8.727261722E-3,5.016641482E-2
7.470934417E0,-1.918490642E-2,-2.229192495E-2,-2.164405346E-2,3.651651137E-2
7.480879417E0,-2.864150323E-2,-3.805251002E-2,3.034704924E-4,4.762794684E-2
7.490823417E0,-1.561056287E-2,-4.446924448E-2,-2.504040867E-2,5.336876844E-2
7.500767417E0,-1.510051665E-2,-4.785946012E-2,-2.276262581E-2,5.510617624E-2
7.510712417E0,-1.834525082E-2,-4.429733634E-2,-2.823503494E-2,5.564188560E-2
7.520656417E0,-2.285222983E-2,-4.268467426E-2,-8.550091088E-3,4.916614570E-2
7.530600417E0,-2.440317180E-2,-5.613268554E-2,-5.012817979E-3,6.141271468E-2
7.540545417E0,-1.228063751E-2,-4.851493299E-2,-7.369830608E-3,5.058485133E-2
7.550489417E0,-1.989207233E-2,-5.019191444E-2,-7.749899626E-3,5.454341171E-2
7.560433417E0,-1.429468811E-2,-5.404756844E-2,3.846883178E-3,5.603816800E-2
7.570377417E0,-1.482128012E-2,-6.170508206E-2,1.183301032E-2,6.455391258E-2
7.580322417E0,-1.312082302E-2,-5.744713962E-2,-4.779514074E-3,5.911999325E-2
7.590266417E0,-3.550945087E-2,-3.747363567E-2,-1.927242279E-3,5.166148212E-2
7.600210417E0,-2.828856894E-2,-5.181217790E-2,-2.899049520E-3,5.910287133E-2
7.610155417E0,-2.599545998E-2,-7.009057403E-2,1.375265121E-2,7.601044614E-2
7.620099417E0,-2.887533247E-2,-5.426742375E-2,-4.564921260E-3,6.164070580E-2
7.630043417E0,-2.020806409E-2,-4.547847390E-2,-1.420113266E-2,5.175258072E-2
7.639988417E0,-2.640518992E-2,-4.849797606E-2,4.418740869E-3,5.539686821E-2
7.649932417E0,-2.888063150E-2,-4.189413071E-2,-1.762321562E-2,5.384966845E-2
7.659876417E0,-2.822210255E-2,-5.489599943E-2,-9.285086095E-3,6.242011414E-2
7.669821417E0,-3.554924848E-2,-5.398324907E-2,-1.036360502E-2,6.546254316E-2
7.679765417E0,-3.418596101E-2,-5.307576120E-2,-6.041343212E-3,6.342092861E-2
7.689709417E0,-4.030414486E-2,-4.590824425E-2,-1.633273512E-2,6.323566415E-2
7.699653417E0,-3.304348817E-2,-4.144623399E-2,-1.297877222E-2,5.457207116E-2
7.709598417E0,-3.334706829E-2,-5.154262125E-2,-1.193241298E-2,6.253839820E-2
7.719542417E0,-3.860722349E-2,-4.484931350E-2,-1.752761364E-2,6.171868329E-2
7.729486417E0,-2.789528430E-2,-4.901428521E-2,-3.339344859E-3,5.649511718E-2
7.739431417E0,-2.420685153E-2,-4.379038274E-2,-1.737734020E-2,5.296736008E-2
7.749375417E0,-2.110984179E-2,-4.351264000E-2,-2.122422338E-2,5.281517697E-2
7.759319417E0,-1.950912996E-2,-4.182045579E-2,-1.803398252E-2,4.954574855E-2
7.769264417E0,-2.274614397E-2,-4.974577188E-2,-9.667786360E-3,5.554723197E-2
7.779208417E0,-1.366511200E-2,-5.017554224E-2,-8.214753270E-3,5.264791065E-2
7.789152417E0,-4.918997576E-3,-4.247943699E-2,-1.194293797E-2,4.439969450E-2
7.799096417E0,-6.461885925E-3,-4.928618073E-2,-1.616170406E-2,5.226934340E-2
7.809041417E0,-1.179193363E-2,-3.874072731E-2,-8.825202584E-3,4.144608367E-2
7.818985417E0,-1.402082828E-2,-4.622808695E-2,-7.321591079E-3,4.885924011E-2
7.828929417E0,-1.312600785E-2,-4.456806242E-2,8.663819432E-3,4.726167620E-2
7.838874417E0,-1.610989225E-2,-4.924408078E-2,3.804198503E-3,5.195170879E-2
7.848818417E0,-2.838336236E-2,-3.882375777E-2,-1.286241263E-2,4.978293970E-2
7.858762417E0,-2.688155984E-2,-3.873721898E-2,-2.696735859E-3,4.722777549E-2
7.868707417E0,-2.829630737E-2,-4.884120762E-2,-2.259948850E-3,5.649116693E-2
7.878651417E0,-3.158516061E-2,-5.264306724E-2,3.678483367E-3,6.150159460E-2
7.888595417E0,-3.805326833E-2,-6.036080718E-2,-1.278084397E-2,7.249019414E-2
7.898540417E0,-3.554594115E-2,-5.748631597E-2,-1.314629495E-2,6.885503269E-2
7.908484417E0,-2.968939279E-2,-6.402759612E-2,-5.762723386E-3,7.081103085E-2
7.918428417E0,-3.542925265E-2,-6.806334436E-2,-4.728350937E-3,7.687787778E-2
7.928372417E0,-3.550672826E-2,-6.275290310E-2,-5.606602728E-3,7.231935145E-2
7.938317417E0,-2.972179459E-2,-5.961119413E-2,-1.084015310E-2,6.748620940E-2
7.948261417E0,-2.079929525E-2,-5.248928547E-2,-1.773986757E-2,5.918140479E-2
7.958205417E0,-2.475923526E-2,-5.403295040E-2,-1.209964335E-2,6.065460270E-2
7.968150417E0,-1.926285254E-2,-4.464992344E-2,-9.750816822E-3,4.959588270E-2
7.978094417E0,-2.137478004E-2,-4.739051342E-2,1.572901011E-3,5.201169101E-2
7.988038417E0,-3.046929259E-2,-2.539679646E-2,-2.596163750E-3,3.975066198E-2
7.997983417E0,-2.856440220E-2,-1.974195421E-2,6.198048592E-4,3.472828800E-2
8.007927417E0,-2.170395544E-2,-4.458151102E-2,-8.083483279E-3,5.023858585E-2
8.017871417E0,-1.625656600E-2,-4.936160982E-2,-3.789434284E-2,6.431815981E-2
8.027816417E0,-1.339455494E-2,-4.607605934E-2,-2.949569464E-2,5.632418085E-2
8.037760417E0,-1.523996817E-2,-4.891195893E-2,-2.038105488E-2,5.513641042E-2
8.047704417E0,-1.244585790E-2,-4.712271094E-2,-1.887130380E-2,5.226447524E-2
8.057648417E0,-1.608685057E-2,-5.448669434E-2,-1.581145585E-2,5.897108407E-2
8.067593417E0,-1.165040817E-2,-5.748748541E-2,-6.514382958E-3,5.901677875E-2
8.077537417E0,-2.572348223E-2,-5.926854730E-2,-6.248919368E-3,6.491153387E-2
8.087481417E0,-1.455916955E-2,-5.872534096E-2,-1.031770438E-2,6.137662513E-2
8.097426417E0,-2.374036250E-2,-4.026918948E-2,-1.068461716E-2,4.795178283E-2
8.107370417E0,-2.516096638E-2,-4.932301819E-2,1.148393154E-3,5.538188476E-2
8.117314417E0,-2.471279101E-2,-3.851619422E-2,7.817727327E-4,4.576931751E-2
8.127259417E0,-2.268493094E-2,-3.990373850E-2,-1.559218526E-2,4.847711500E-2
8.137203417E0,-2.803237410E-2,-5.056496680E-2,8.129968643E-3,5.838429802E-2
8.147147417E0,-2.990282987E-2,-4.274957836E-2,1.333165169E-4,5.217013952E-2
8.157092417E0,-3.217963971E-2,-2.084123075E-2,3.606270254E-3,3.850832762E-2
8.167036417E0,-2.221575127E-2,-4.738583565E-3,1.374621928E-2,2.655093827E-2
8.176980417E0,-1.670777005E-2,3.196088076E-3,2.497053444E-2,3.021410514E-2
8.186924417E0,-2.042410044E-2,2.459514320E-2,2.019043565E-2,3.781162043E-2
8.196869417E0,-2.719966207E-2,4.191401124E-2,3.211641669E-2,5.939756036E-2
8.206813417E0,-1.881676937E-2,8.056235254E-2,5.734949112E-2,1.006644306E-1
8.216757417E0,-1.493984156E-2,9.012664318E-2,7.459877729E-2,1.179448526E-1
8.226702417E0,-1.711453069E-2,6.376914918E-2,5.771143377E-2,8.769276559E-2
8.236646417E0,-2.025269479E-2,4.549133778E-2,3.993706763E-2,6.383261572E-2
8.246590417E0,-1.237393715E-2,1.710310578E-2,1.617047489E-2,2.659163038E-2
8.256535417E0,-2.480805951E-2,-5.233374953E-2,-2.488428801E-2,6.303561649E-2
8.266479417E0,-3.483706218E-2,-1.304507965E-1,-3.510902166E-2,1.395122740E-1
8.276423417E0,-2.545547876E-2,-1.747370231E-1,-6.883693099E-2,1.895244884E-1
8.286367417E0,-2.413059105E-2,-2.254370606E-1,-9.408082277E-2,2.454696619E-1
8.296312417E0,-2.981735545E-2,-2.635305011E-1,-9.724387407E-2,2.824779120E-1
8.306256417E0,-2.951320888E-2,-2.740543199E-1,-9.834139645E-2,2.926565051E-1
8.316200417E0,-1.749666908E-2,-2.853283364E-1,-1.179962271E-1,3.092596039E-1
8.326145417E0,-3.100453209E-2,-2.556437767E-1,-7.948120236E-2,2.695037719E-1
8.336089417E0,-5.162634607E-2,-1.603809392E-1,-3.201058209E-2,1.714992789E-1
8.346033417E0,-4.864404225E-2,-8.441215932E-2,-5.682908893E-3,9.759073184E-2
8.355978417E0,-3.333063670E-2,-2.273631334E-2,1.706276000E-2,4.380649571E-2
8.365922417E0,-2.815832678E-2,4.402310193E-2,1.167513549E-2,5.354655600E-2
8.375866417E0,-4.330432381E-2,8.384147108E-2,2.633878291E-2,9.797136427E-2
8.385811417E0,-4.844500851E-2,8.998514056E-2,2.557425946E-2,1.053484082E-1
8.395755417E0,-3.004859913E-2,5.555322647E-2,1.120940477E-2,6.414616151E-2
8.405699167E0,4.045935189E-3,-1.225050151E-2,-2.083743006E-2,2.450801645E-2
8.415644167E0,-8.162786141E-3,-1.056977785E-1,-7.706103981E-2,1.310612655E-1
8.425588167E0,-2.052659573E-2,-2.106950605E-1,-1.053609788E-1,2.364628629E-1
8.435532167E0,7.724806848E-3,-3.148462504E-1,-1.227704787E-1,3.380242957E-1
8.445476167E0,3.009054833E-2,-3.557937169E-1,-1.466890991E-1,3.860211158E-1
8.455421167E0,2.621129990E-2,-4.226899570E-1,-1.508824298E-1,4.495768451E-1
8.465365167E0,-5.969111826E-3,-4.711727303E-1,-1.733430469E-1,5.020828458E-1
8.475309167E0,-2.467582107E-2,-5.374889266E-1,-2.071633422E-1,5.765586638E-1
8.485254167E0,-3.501690974E-2,-5.603556329E-1,-2.159221789E-1,6.015372030E-1
8.495198167E0,-4.735848164E-2,-5.776750857E-1,-2.028463429E-1,6.140830312E-1
8.505142167E0,-8.298408654E-2,-5.909570360E-1,-2.321192586E-1,6.403092435E-1
8.515087167E0,-8.944869507E-2,-5.988057536E-1,-2.689783520E-1,6.625094365E-1
8.525031167E0,-6.973052259E-2,-6.249065548E-1,-2.968777567E-1,6.953466405E-1
8.534975167E0,-6.045523515E-2,-6.247749925E-1,-3.056968197E-1,6.981756027E-1
8.544920167E0,-6.838560360E-2,-5.908740056E-1,-3.034576285E-1,6.677538570E-1
8.554864167E0,-4.740426808E-2,-5.545043242E-1,-3.173669851E-1,6.406590461E-1
8.564808167E0,-1.855712559E-2,-5.292326581E-1,-3.140229625E-1,6.156638647E-1
8.574752167E0,-2.293204889E-6,-5.164038670E-1,-2.491124368E-1,5.733497711E-1
8.584697167E0,9.745312217E-3,-5.022062427E-1,-2.282285213E-1,5.517194389E-1
8.594641167E0,1.415116637E-2,-5.157858163E-1,-2.247026503E-1,5.627846345E-1
8.604585167E0,1.008147687E-2,-5.472941226E-1,-2.291810328E-1,5.934277029E-1
8.614530167E0,1.244863076E-4,-5.703672355E-1,-2.277882260E-1,6.141712097E-1
8.624474167E0,-5.633604988E-3,-6.315168321E-1,-2.141449177E-1,6.668607745E-1
8.634418167E0,-1.922837681E-2,-6.591051650E-1,-2.456274962E-1,7.036492137E-1
8.644363167E0,-3.657667279E-2,-6.883997154E-1,-2.949698102E-1,7.498261199E-1
8.654307167E0,-5.478638698E-2,-7.426624614E-1,-3.261161739E-1,8.129580793E-1
8.664251167E0,-6.009709319E-2,-8.022607917E-1,-3.158879319E-1,8.643027386E-1
8.674196167E0,-5.777884577E-2,-8.259864539E-1,-3.287474209E-1,8.908798369E-1
8.684140167E0,-6.075622514E-2,-8.305385113E-1,-3.597505277E-1,9.071416537E-1
8.694084167E0,-6.221335128E-2,-8.512575352E-1,-3.736867815E-1,9.317465873E-1
8.704029167E0,-4.498843612E-2,-8.651932043E-1,-3.839872366E-1,9.476441516E-1
8.713973167E0,-2.489779599E-2,-8.745586896E-1,-3.998214966E-1,9.619407627E-1
8.723917167E0,-1.523421689E-2,-9.090987772E-1,-4.172394750E-1,1.000390647E0
8.733861167E0,-6.763583981E-5,-9.282881695E-1,-4.712174615E-1,1.041040262E0
8.743806167E0,8.371020108E-4,-9.433891886E-1,-4.848771420E-1,1.060702458E0
8.753750167E0,5.213167341E-3,-9.750635558E-1,-4.701898134E-1,1.082522321E0
8.763694167E0,8.182821991E-3,-9.984021324E-1,-4.928199998E-1,1.113438516E0
8.773639167E0,-3.547587963E-3,-1.002088802E0,-5.200332338E-1,1.128994737E0
8.783583167E0,-1.607251575E-2,-1.016348407E0,-5.274571511E-1,1.145178351E0
8.793527167E0,-3.152188277E-2,-1.022935295E0,-4.826952535E-1,1.131540965E0
8.803472167E0,-5.452767053E-2,-1.008515477E0,-4.399640939E-1,1.101655635E0
8.813416167E0,-6.119858528E-2,-9.536253244E-1,-4.479470050E-1,1.055368677E0
8.823360167E0,-7.900047901E-2,-8.992649299E-1,-4.309339464E-1,1.000311230E0
8.833305167E0,-8.574483113E-2,-8.838048917E-1,-3.721685520E-1,9.627942115E-1
8.843249167E0,-7.829532308E-2,-8.651300544E-1,-3.499061555E-1,9.364905158E-1
8.853193167E0,-7.521902526E-2,-8.327604532E-1,-3.543020922E-1,9.081177494E-1
8.863138167E0,-5.989227619E-2,-8.438596380E-1,-3.879329377E-1,9.306869170E-1
8.873082167E0,-4.716623159E-2,-8.961027557E-1,-3.892497307E-1,9.781309498E-1
8.883026167E0,-2.768467034E-2,-9.345101917E-1,-3.981924623E-1,1.016185503E0
8.892970167E0,-6.395460642E-3,-9.798647046E-1,-4.622630355E-1,1.083449517E0
8.902915167E0,9.484978644E-3,-1.019466727E0,-5.080628139E-1,1.139091829E0
8.912859167E0,1.574354135E-2,-1.055210171E0,-5.093258125E-1,1.171805934E0
8.922803167E0,1.702467087E-2,-1.092327127E0,-4.937710494E-1,1.198865397E0
8.932748167E0,4.650952988E-3,-1.084695341E0,-4.943639570E-1,1.192049217E0
8.942692167E0,-1.551497917E-2,-1.042778406E0,-4.710207027E-1,1.144328633E0
8.952636167E0,-1.244162324E-2,-1.024335703E0,-4.492304689E-1,1.118582335E0
8.962581167E0,-4.222513793E-2,-1.018511292E0,-4.381225133E-1,1.109549255E0
8.972525167E0,-7.335285898E-2,-1.007664707E0,-4.455782980E-1,1.104223176E0
8.982469167E0,-8.623425222E-2,-1.011012822E0,-4.441083080E-1,1.107617020E0
8.992414167E0,-8.206153295E-2,-1.022680941E0,-4.631357324E-1,1.125657634E0
9.002358167E0,-8.697196070E-2,-1.061742096E0,-4.974308217E-1,1.175711624E0
9.012302167E0,-7.542429908E-2,-1.110801405E0,-5.356856453E-1,1.235527295E0
9.022246167E0,-5.429056136E-2,-1.133112041E0,-5.463018501E-1,1.259101296E0
9.032191167E0,-2.831796947E-2,-1.125594276E0,-5.559585267E-1,1.255728579E0
9.042135167E0,-1.183974375E-2,-1.111905944E0,-5.439810902E-1,1.237897586E0
9.052079167E0,2.465017098E-3,-1.078507233E0,-4.956719792E-1,1.186960251E0
9.062024167E0,5.633454239E-3,-1.023281450E0,-4.746953854E-1,1.128039171E0
9.071968167E0,1.397019048E-2,-9.863212001E-1,-4.492222828E-1,1.083893600E0
9.081912167E0,7.614079770E-3,-9.595818830E-1,-4.450590652E-1,1.057796264E0
9.091857167E0,1.927479822E-3,-9.727375335E-1,-4.302749652E-1,1.063653407E0
9.101801167E0,-6.064087967E-3,-9.335705441E-1,-4.018680221E-1,1.016409682E0
9.111745167E0,5.452094623E-3,-9.076065677E-1,-4.241388971E-1,1.001834922E0
9.121690167E0,-1.970330777E-2,-9.422086358E-1,-4.736306074E-1,1.054737544E0
9.131634167E0,-6.869599482E-2,-9.727252543E-1,-4.627445537E-1,1.079373004E0
9.141578167E0,-8.156390749E-2,-9.912159044E-1,-4.700836864E-1,1.100063776E0
9.151523167E0,-8.105896387E-2,-1.051866149E0,-4.860690969E-1,1.161574844E0
9.161467167E0,-1.016262708E-1,-1.020563080E0,-4.793734503E-1,1.132111215E0
9.171411167E0,-8.724256801E-2,-9.582475483E-1,-4.478891176E-1,1.061345510E0
9.181356167E0,-6.465145291E-2,-9.761306727E-1,-4.091188619E-1,1.060372172E0
9.191300167E0,-4.033354539E-2,-9.819457287E-1,-4.034567106E-1,1.062366004E0
9.201244167E0,-3.120037727E-2,-9.791893512E-1,-4.141933680E-1,1.063645333E0
9.211188167E0,-1.647999816E-2,-1.018360434E0,-4.645653766E-1,1.119442072E0
9.221133167E0,7.472842103E-3,-1.012796808E0,-4.884176311E-1,1.124439860E0
9.231077167E0,1.793583152E-3,-1.003197434E0,-4.618136770E-1,1.104391317E0
9.241021167E0,-7.533127810E-3,-1.067406878E0,-4.832334897E-1,1.171720444E0
9.250966167E0,-3.182723990E-2,-1.085725620E0,-5.404695448E-1,1.213227277E0
9.260910167E0,-1.662478527E-2,-1.107287228E0,-5.481174105E-1,1.235635094E0
9.270854167E0,-1.045825683E-2,-1.107995326E0,-5.037732965E-1,1.217189612E0
9.280799167E0,-2.982198754E-2,-1.030310388E0,-4.644285518E-1,1.130540900E0
9.290743167E0,-5.104639364E-2,-1.062504573E0,-4.726386273E-1,1.164005573E0
9.300687167E0,-3.974975116E-2,-1.055219527E0,-4.949828848E-1,1.166223113E0
9.310632167E0,-1.803592854E-2,-1.028973715E0,-4.672211820E-1,1.130224683E0
9.320576167E0,-1.391335828E-3,-9.804213595E-1,-4.387189293E-1,1.074105338E0
9.330520167E0,-9.977702494E-3,-9.066552258E-1,-4.344609869E-1,1.005425085E0
9.340465167E0,-2.331963249E-2,-9.199962330E-1,-4.387616140E-1,1.019533534E0
9.350409167E0,-5.009495573E-2,-9.613763934E-1,-4.574762124E-1,1.065851096E0
9.360353167E0,-9.470338678E-2,-9.847559005E-1,-4.584632224E-1,1.090367572E0
9.370297167E0,-9.032656314E-2,-9.109997070E-1,-4.468778417E-1,1.018714464E0
9.380242167E0,-3.324992229E-2,-9.294038182E-1,-4.524610555E-1,1.034223391E0
9.390186167E0,-2.650752076E-2,-1.001036303E0,-4.515643850E-1,1.098492932E0
9.400130542E0,-5.597761556E-2,-1.042055690E0,-4.647273445E-1,1.142359427E0
9.410075542E0,-6.348302848E-2,-9.892237580E-1,-4.705470783E-1,1.097273116E0
9.420019542E0,-5.416339356E-2,-9.354206032E-1,-4.667674381E-1,1.046812886E0
9.429963542E0,-4.872534139E-2,-1.014108923E0,-5.051666880E-1,1.134012544E0
9.439908542E0,-2.901910088E-2,-1.039814453E0,-5.137597561E-1,1.160174681E0
9.449852542E0,1.272107903E-2,-9.186531276E-1,-4.486059862E-1,1.022415143E0
9.459796542E0,1.002933615E-2,-8.951911747E-1,-4.178344291E-1,9.879541675E-1
9.469741542E0,-3.353700687E-2,-1.008696740E0,-4.431902951E-1,1.102275593E0
9.479685542E0,-4.293433210E-2,-1.051078529E0,-4.792214227E-1,1.155968253E0
9.489629542E0,-4.517888633E-2,-9.961123627E-1,-4.433584026E-1,1.091259659E0
9.499574542E0,-4.274977935E-2,-1.028328182E0,-4.260722789E-1,1.113922789E0
9.509518542E0,-5.236534734E-2,-1.112225202E0,-4.675316691E-1,1.207631107E0
9.519462542E0,-4.467049377E-2,-1.130581366E0,-5.516286635E-1,1.258770773E0
9.529406542E0,-1.477099407E-2,-1.051086715E0,-5.340156806E-1,1.179056492E0
9.539351542E0,1.170954270E-2,-1.083675002E0,-4.423523891E-1,1.170540157E0
9.549295542E0,2.545849373E-2,-1.166249381E0,-4.352544540E-1,1.245083208E0
9.559239542E0,-2.469253588E-2,-1.007176464E0,-4.472769141E-1,1.102302494E0
9.569184542E0,-2.081529287E-2,-8.753743762E-1,-4.309801394E-1,9.759392683E-1
9.579128542E0,3.488482662E-2,-1.023398979E0,-4.036256951E-1,1.100670761E0
9.589072542E0,5.365697443E-3,-1.078230075E0,-3.826926631E-1,1.144142718E0
9.599017542E0,-8.728076678E-2,-8.778535956E-1,-4.372068393E-1,9.845784316E-1
9.608961542E0,-9.781099917E-2,-8.856186980E-1,-4.914602298E-1,1.017556203E0
9.618905542E0,-4.475703713E-2,-1.043187711E0,-4.678035647E-1,1.144152074E0
9.628850542E0,-2.692101484E-2,-9.926297611E-1,-3.608451265E-1,1.056526284E0
9.638794542E0,-4.068938958E-2,-8.773998517E-1,-3.880212307E-1,9.602325768E-1
9.648738542E0,-5.279085562E-2,-1.016306891E0,-5.267920303E-1,1.145939098E0
9.658683542E0,-5.935100217E-2,-1.038932692E0,-5.270381981E-1,1.166478865E0
9.668627542E0,-3.349747421E-2,-9.184163153E-1,-4.541795522E-1,1.025129101E0
9.678571542E0,-2.674929856E-2,-1.023726423E0,-4.146377563E-1,1.104832921E0
9.688516542E0,-5.264277031E-2,-1.054219068E0,-4.462916583E-1,1.146004079E0
9.698460542E0,-5.982252073E-2,-9.014184594E-1,-4.953468740E-1,1.030292434E0
9.708404542E0,-1.805594155E-2,-9.461332870E-1,-4.652302051E-1,1.054482507E0
9.718349542E0,-2.133748120E-2,-1.096210847E0,-4.343457967E-1,1.179317507E0
9.728293542E0,-5.880548436E-2,-1.002017466E0,-4.433551866E-1,1.097297092E0
9.738237542E0,-5.132007988E-2,-9.114902884E-1,-5.268028477E-1,1.054025397E0
9.748181542E0,-1.479776335E-2,-1.025744882E0,-5.659563884E-1,1.171613490E0
9.758126542E0,-2.573504419E-2,-1.010177840E0,-4.339309368E-1,1.099735249E0
9.768070542E0,-6.244297783E-2,-9.682053566E-1,-4.090340772E-1,1.052914818E0
9.778014542E0,-5.674329931E-2,-1.026976306E0,-5.428303581E-1,1.162998251E0
9.787959542E0,-3.477340976E-2,-9.675311726E-1,-5.568192369E-1,1.116858730E0
9.797903542E0,1.243880013E-2,-1.024515213E0,-4.528890717E-1,1.120220807E0
9.807847542E0,-1.072875907E-2,-1.082041290E0,-3.984260586E-1,1.153113951E0
9.817792542E0,-5.183933547E-2,-9.373139316E-1,-4.704997158E-1,1.050054620E0
9.827736542E0,-2.515894270E-2,-9.712388921E-1,-5.762977740E-1,1.129626966E0
9.837680542E0,-1.478922094E-2,-1.074318287E0,-4.773245859E-1,1.175677364E0
9.847625542E0,-5.502246831E-2,-9.809663200E-1,-3.354249412E-1,1.038187018E0
9.857569542E0,-3.476691843E-2,-9.709161258E-1,-4.056195956E-1,1.052812480E0
9.867513542E0,-8.320505647E-3,-9.899102211E-1,-5.544423437E-1,1.134635531E0
9.877458542E0,-5.014703706E-2,-9.364532214E-1,-5.495964637E-1,1.086975452E0
9.887402542E0,-2.996738678E-2,-1.026423744E0,-3.906109625E-1,1.098644925E0
9.897346542E0,-1.561610859E-2,-1.039872925E0,-3.804540566E-1,1.107395526E0
9.907290542E0,-5.051451629E-2,-9.673569256E-1,-4.775689995E-1,1.080001522E0
9.917235542E0,-8.779626279E-3,-9.695695120E-1,-5.301825383E-1,1.105095310E0
9.927179542E0,1.412568530E-3,-9.307404917E-1,-4.466623718E-1,1.032369669E0
9.937123542E0,-1.295933480E-2,-1.058560626E0,-4.175055233E-1,1.137993587E0
9.947068542E0,-3.547393360E-2,-1.040983311E0,-3.476809976E-1,1.098083207E0
9.957012542E0,-5.733731247E-2,-8.888978165E-1,-4.563319123E-1,1.000832508E0
9.966956542E0,-2.437928044E-2,-1.004950429E0,-4.888646507E-1,1.117814100E0
9.976901542E0,-7.073671420E-2,-1.017445929E0,-4.204773706E-1,1.103177737E0
9.986845542E0,-8.589441022E-2,-1.111732866E0,-4.130025825E-1,1.189074829E0
9.996789542E0,-6.864048738E-2,-1.044434922E0,-4.516064849E-1,1.139958000E0
1.000673454E1,-6.065439679E-2,-1.031153557E0,-5.885085145E-1,1.188822478E0
1.001667854E1,-4.448838041E-2,-1.113356638E0,-5.078040746E-1,1.224502837E0
1.002662254E1,-6.056582061E-2,-1.002040270E0,-4.033865440E-1,1.081884294E0
1.003656754E1,-9.423221083E-2,-9.988459361E-1,-4.698114985E-1,1.107833813E0
1.004651154E1,-3.448243312E-2,-9.973724377E-1,-4.349091759E-1,1.088616925E0
1.005645554E1,1.100082819E-2,-9.702132905E-1,-4.680088019E-1,1.077249779E0
1.006640054E1,1.773086834E-2,-1.019598874E0,-3.778973615E-1,1.087521339E0
1.007634454E1,-3.193731830E-2,-8.708883923E-1,-3.237749487E-1,9.296756432E-1
1.008628854E1,-3.912430465E-2,-8.601499808E-1,-5.292130700E-1,1.010670656E0
1.009623354E1,-6.218518415E-3,-9.686362964E-1,-4.549008062E-1,1.070154049E0
1.010617754E1,-2.393436672E-2,-9.102927786E-1,-4.597624737E-1,1.020091824E0
1.011612154E1,1.567742213E-2,-8.480146694E-1,-3.576662877E-1,9.204889106E-1
1.012606554E1,4.623375144E-3,-8.251362687E-1,-3.825809813E-1,9.095270446E-1
1.013601054E1,-8.718047789E-3,-7.250062090E-1,-5.006842124E-1,8.811326166E-1
1.014595454E1,3.779744808E-2,-6.957619447E-1,-3.249215877E-1,7.688220658E-1
1.015589854E1,-3.729744719E-2,-6.334598619E-1,-2.699039662E-1,6.895728005E-1
1.016584354E1,-1.186894694E-1,-5.032476318E-1,-2.671709776E-1,5.820014607E-1
1.017578754E1,-6.699519054E-2,-4.781110364E-1,-2.237396139E-1,5.321070696E-1
1.018573154E1,-4.986126353E-3,-3.502359384E-1,-2.515472174E-1,4.312378423E-1
1.019567654E1,-4.734870583E-2,-3.328474885E-1,-5.487962723E-2,3.406480941E-1
1.020562054E1,-7.643682669E-2,-3.243468064E-1,-6.751019776E-2,3.400015678E-1
1.021556454E1,-9.672886228E-2,-3.039008474E-1,-1.865004516E-1,3.694517780E-1
1.022550954E1,-5.835233429E-3,-2.983021384E-1,-1.614568269E-1,3.392440459E-1
1.023545354E1,2.875917387E-2,-3.219944715E-1,-2.074709058E-1,3.841245977E-1
1.024539754E1,-1.537814976E-2,-3.818799001E-1,-9.695092857E-2,3.942945956E-1
1.025534254E1,-7.174159018E-3,-2.238314152E-1,-1.525883549E-1,2.709892563E-1
1.026528654E1,4.987362034E-2,-3.434929293E-1,-2.424474880E-1,4.233858228E-1
1.027523054E1,-4.313432971E-2,-2.867281598E-1,-1.354004645E-1,3.200107714E-1
1.028517554E1,-3.464824280E-2,-3.630179518E-1,-5.842157811E-2,3.693177695E-1
1.029511954E1,-3.182520708E-3,-1.700165659E-1,1.094598770E-2,1.703982857E-1
1.030506354E1,-4.131616542E-2,-1.714649212E-1,-5.843648851E-2,1.858011516E-1
1.031500854E1,-1.099197057E-2,-1.538151008E-1,-6.529293358E-2,1.674606695E-1
1.032495254E1,-4.296284184E-2,-1.568100446E-1,-1.125384361E-2,1.629780503E-1
1.033489654E1,-6.141532055E-2,-1.353653812E-1,-2.269012034E-2,1.503677811E-1
1.034484054E1,-7.855779910E-4,-7.364334226E-2,-7.920813739E-2,1.081567752E-1
1.035478554E1,-2.655640896E-4,-4.494228423E-2,-6.463044405E-2,7.872085959E-2
1.036472954E1,-1.698408297E-2,1.420171738E-2,-5.182328761E-2,5.635424553E-2
1.037467354E1,-2.283485263E-2,-3.122530103E-2,8.140581340E-2,9.012966423E-2
1.038461854E1,-1.370383610E-2,3.648662567E-2,-5.204021931E-3,3.932112436E-2
1.039456254E1,-4.244920506E-2,3.388812304E-2,1.616930544E-2,5.667262418E-2
1.040450717E1,9.616139000E-3,1.230090451E-1,3.892491460E-3,1.234457241E-1
1.041445217E1,-3.403829598E-2,8.851515055E-2,1.014804742E-1,1.388950111E-1
1.042439617E1,-2.701515501E-2,9.761809587E-2,1.253727821E-1,1.611752019E-1
1.043434017E1,7.564743888E-4,4.471482754E-2,1.339538634E-2,4.668430604E-2
1.044428517E1,-7.400433473E-2,4.468851507E-2,-1.977674514E-2,8.868384625E-2
1.045422917E1,-6.095016540E-2,-1.009521782E-1,-1.754574001E-2,1.192229758E-1
1.046417317E1,7.113503292E-4,-5.161746562E-2,-4.659061432E-3,5.183218719E-2
1.047411817E1,-3.968829601E-3,-1.795913815E-2,2.071317673E-2,2.770050436E-2
1.048406217E1,-6.860496555E-2,-6.004622698E-2,-4.602372676E-2,1.021292030E-1
1.049400617E1,-5.870183790E-2,-8.748370171E-2,-2.424664915E-2,1.081073718E-1
1.050395117E1,-5.811547637E-2,-4.520014644E-2,7.479758263E-3,7.400276086E-2
1.051389517E1,-1.548855707E-2,-9.270935833E-2,-3.043768108E-2,9.879966069E-2
1.052383917E1,-6.155362547E-2,-1.564551187E-1,2.055997968E-2,1.693805353E-1
1.053378317E1,-9.529740907E-2,-1.391871214E-2,3.591009021E-2,1.027855111E-1
1.054372817E1,-1.371159280E-2,-1.831482428E-1,3.249882460E-2,1.865139679E-1
1.055367217E1,-1.263872466E-1,1.235516667E-2,2.260358155E-2,1.289856897E-1
1.056361617E1,-9.333056104E-2,-1.124080431E-1,1.136289418E-2,1.465444545E-1
1.057356117E1,-9.481305862E-2,-1.186218792E-1,7.948734194E-2,1.714027533E-1
1.058350517E1,-6.314777745E-2,-1.222915918E-1,-1.913969100E-2,1.389575582E-1
1.059344917E1,-9.052119319E-2,-8.879757106E-2,-9.764850140E-4,1.268071314E-1
1.060339417E1,-2.724482268E-2,-1.715508753E-1,6.127297282E-3,1.738088805E-1
1.061333817E1,-6.065211729E-3,-5.335642755E-2,4.484405100E-2,6.996201873E-2
1.062328217E1,9.780763702E-2,-1.114929539E-1,5.245186329E-2,1.573156400E-1
1.063322717E1,8.972250008E-2,-1.100077611E-1,-4.497415155E-2,1.489110769E-1
1.064317117E1,8.325101193E-2,-3.119664967E-2,-8.286498606E-2,1.215342250E-1
1.065311517E1,1.497930570E-1,-1.210759556E-1,5.708461225E-2,2.008880283E-1
1.066306017E1,1.581605322E-1,2.689836144E-2,-1.115034789E-2,1.608185501E-1
1.067300417E1,7.656029887E-2,-3.786247551E-2,-2.965649307E-2,9.041324016E-2
1.068294817E1,9.120240295E-2,-2.462964177E-2,-7.139859617E-2,1.184156117E-1
1.069289317E1,1.344113166E-2,-3.623928845E-2,-3.853607476E-3,3.884327919E-2
1.070283717E1,-2.322267378E-3,8.679606915E-3,3.342268467E-2,3.460931020E-2
1.071278117E1,-3.206836903E-2,3.882434249E-2,-2.806955874E-2,5.765075879E-2
1.072272617E1,-1.394907746E-1,7.490458667E-2,-3.858489901E-2,1.629637007E-1
1.073267017E1,-1.494442888E-1,-3.958564997E-3,7.092672586E-4,1.494983905E-1
1.074261417E1,-1.181765315E-1,5.233959675E-2,8.022379875E-4,1.292508011E-1
1.075255917E1,-1.020383534E-1,-7.777030706E-2,7.278029323E-3,1.285029802E-1
1.076250317E1,-1.574375605E-1,-2.462554872E-2,2.190980941E-2,1.608509958E-1
1.077244717E1,-1.140767289E-1,-5.569706798E-2,-2.014131904E-2,1.285353499E-1
1.078239217E1,-1.025407297E-1,-1.322932541E-1,3.475351095E-2,1.709500303E-1
1.079233617E1,-4.770973942E-2,-9.314731479E-2,-5.939367771E-2,1.203339123E-1
1.080228017E1,-4.952858437E-2,-1.810216105E-1,-3.106362551E-2,1.902284231E-1
1.081222417E1,-3.101235274E-2,-1.627057922E-1,-4.183098078E-3,1.656877761E-1
1.082216917E1,2.967437276E-2,-1.523304927E-1,-3.803496838E-2,1.597867524E-1
1.083211317E1,-4.311329801E-2,-8.615170598E-2,-7.471922994E-2,1.219173336E-1
1.084205717E1,3.419491913E-2,-2.099319988E-1,-1.138160527E-1,2.412360472E-1
1.085200217E1,1.781423501E-1,6.102154255E-3,-8.527286947E-2,1.975940168E-1
1.086194617E1,1.159945790E-1,-2.035298824E-2,-7.605181038E-2,1.401886742E-1
1.087189017E1,-2.985359905E-3,-7.707799673E-3,-8.892737925E-2,8.931070109E-2
1.088183517E1,2.558335005E-3,-7.892630160E-2,-3.451377511E-2,8.618066392E-2
1.089177917E1,-1.865599378E-2,-5.040884614E-2,-1.423212290E-3,5.376916781E-2
1.090172317E1,-1.179345025E-2,-3.384426892E-2,-2.597917914E-2,4.426553689E-2
1.091166817E1,-5.644023995E-2,-9.811627865E-4,-1.189376289E-1,1.316534197E-1
1.092161217E1,-1.161129669E-1,-2.221006393E-2,-1.134549871E-1,1.638521960E-1
1.093155617E1,-3.754678525E-2,-4.346293867E-2,-6.870186031E-2,8.954738260E-2
1.094150117E1,-9.897207348E-2,6.061282218E-2,4.170409620E-2,1.233232224E-1
1.095144517E1,-1.052762947E-1,-2.355609298E-2,1.201193511E-2,1.085461852E-1
1.096138917E1,-3.420726681E-2,5.437091947E-2,-5.479776621E-2,8.443417061E-2
1.097133417E1,-7.926772418E-2,6.408548355E-4,1.538840979E-2,8.075014518E-2
1.098127817E1,-1.161004867E-1,-2.190308511E-2,1.842866957E-2,1.195771049E-1
1.099122217E1,-3.695697022E-2,-1.472241193E-1,1.750656366E-2,1.527980325E-1
1.100116717E1,-3.198697852E-2,3.762683272E-3,-5.540938497E-2,6.408997209E-2
1.101111117E1,-7.053434572E-2,-6.000354230E-2,-7.514432251E-2,1.192568162E-1
1.102105517E1,-1.837563350E-2,-7.465023279E-2,-1.007925493E-1,1.267653705E-1
1.103099917E1,3.773040610E-2,-1.122677100E-1,-1.372575402E-2,1.192309464E-1
1.104094417E1,1.913775411E-2,-7.637106836E-2,-5.579413176E-3,7.892986485E-2
1.105088817E1,-1.667613113E-2,-1.145767754E-1,-3.726489007E-2,1.216330664E-1
1.106083217E1,1.805683691E-2,-1.454658616E-1,-6.369781315E-2,1.598242085E-1
1.107077717E1,6.127506503E-2,-1.095937783E-1,6.075315535E-2,1.394861130E-1
1.108072117E1,9.672480578E-2,-1.664158505E-1,7.426957905E-2,2.063150352E-1
1.109066517E1,2.990928008E-2,-1.634168136E-1,4.898797274E-2,1.732034684E-1
1.110061017E1,5.544087770E-3,-1.774138784E-1,-5.966849685E-2,1.872611831E-1
1.111055417E1,4.979511690E-3,-7.840063691E-2,-3.422316849E-2,8.568944314E-2
1.112049817E1,3.957172172E-2,-1.713479769E-1,9.942693204E-2,2.020192198E-1
1.113044317E1,4.897133558E-2,-1.202427274E-1,9.844606161E-2,1.629359759E-1
1.114038717E1,-3.807815098E-2,-7.655233204E-2,5.510532975E-2,1.017192336E-1
1.115033117E1,5.640096311E-3,-4.723673165E-2,-1.019198924E-1,1.124757039E-1
1.116027617E1,-4.478576157E-2,-1.141177690E-1,3.345513672E-2,1.270742925E-1
1.117022017E1,-6.632042185E-2,-6.462401211E-2,9.267369032E-2,1.310079165E-1
1.118016417E1,-2.992903270E-2,-8.242702961E-2,6.031753778E-2,1.064338648E-1
1.119010917E1,1.173788799E-2,1.130734563E-2,-5.129060626E-2,5.381784435E-2
1.120005317E1,-4.339540789E-2,-2.875485241E-2,-3.619543433E-2,6.340435655E-2
1.120999717E1,-8.067165893E-2,-1.278376758E-2,1.175114930E-2,8.251927519E-2
1.121994217E1,-4.931662280E-2,1.981153607E-2,1.132938963E-1,1.251404538E-1
1.122988617E1,-6.916277622E-2,-3.985813022E-2,5.841426909E-2,9.891606033E-2
1.123983017E1,-5.836101375E-2,-5.813769579E-2,-1.025660098E-2,8.301323666E-2
1.124977517E1,-9.290386962E-2,2.548859775E-2,2.128795803E-2,9.866090797E-2
1.125971917E1,-6.090530630E-2,-3.468568325E-3,-3.140305638E-2,6.861223835E-2
1.126966317E1,-8.601362033E-2,-1.169852436E-1,-4.014698267E-3,1.452584176E-1
1.127960817E1,-1.062064497E-1,-3.967569709E-2,-6.072625816E-2,1.286143434E-1
1.128955217E1,-1.011861217E-1,-6.682139575E-2,-1.061854362E-2,1.217229790E-1
1.129949617E1,-9.287913772E-3,-3.071191549E-2,-1.050294417E-1,1.098210851E-1
1.130944017E1,-6.102464888E-3,-1.108673018E-1,-1.194615394E-2,1.116759118E-1
1.131938517E1,-4.806475677E-2,-8.609440327E-2,-1.271184683E-2,9.941860071E-2
1.132932917E1,-6.481419280E-3,-1.667432946E-1,-1.178699273E-1,2.043004034E-1
1.133927317E1,2.799047058E-2,-8.688670099E-2,-1.112941486E-1,1.439414907E-1
1.134921817E1,8.502654637E-2,-1.281008005E-1,-5.119120359E-2,1.620489679E-1
1.135916217E1,1.002094174E-1,-1.244299185E-1,7.367199361E-3,1.599343853E-1
1.136910617E1,6.796286818E-2,-5.347395658E-2,-5.485857725E-3,8.665165964E-2
1.137905117E1,2.751824396E-2,1.067350745E-2,-1.212209666E-1,1.247625755E-1
1.138899517E1,3.748432055E-2,-2.935536146E-2,-4.225139558E-2,6.365525872E-2
1.139893917E1,2.342233335E-2,-1.247690570E-1,8.527053058E-2,1.529280441E-1
1.140888338E1,-7.932615979E-4,-7.226398408E-2,3.687663496E-2,8.113321678E-2
1.141882738E1,-1.133100401E-2,-1.844270289E-2,-9.881794453E-5,2.164566254E-2
1.142877138E1,-2.969337621E-2,-1.398010790E-2,-1.026028472E-1,1.077241118E-1
1.143871638E1,-8.294408793E-2,-1.312892872E-1,5.027845323E-2,1.632314967E-1
1.144866038E1,-8.144111596E-2,-4.322905004E-2,6.338498712E-2,1.118886175E-1
1.145860438E1,-2.480046269E-2,-1.248889250E-1,-4.616522938E-2,1.354383067E-1
1.146854938E1,-2.632965577E-2,-4.595794559E-2,-8.667970955E-2,1.015812758E-1
1.147849338E1,-4.706772884E-2,-5.811138332E-2,-4.443503827E-2,8.698722088E-2
1.148843738E1,-8.059731706E-2,-3.037511587E-2,5.980064392E-2,1.048555778E-1
1.149838238E1,-4.915408391E-2,-7.026715994E-2,5.262961864E-2,1.006154784E-1
1.150832638E1,-6.789851226E-2,1.391695797E-2,-4.210521519E-2,8.109709510E-2
1.151827038E1,-5.260050134E-3,-7.633890867E-2,-4.409414560E-2,8.831529188E-2
1.152821538E1,-6.921418147E-2,-4.968496084E-2,-1.941743374E-2,8.738555363E-2
1.153815938E1,-3.026550342E-2,-1.353952020E-1,-3.314435720E-2,1.426408421E-1
1.154810338E1,-4.764390342E-2,-1.270430392E-1,-7.005373657E-2,1.527003646E-1
1.155804838E1,-8.336779179E-2,2.193524480E-2,-1.121990052E-1,1.414919094E-1
1.156799237E1,-5.705932304E-2,-1.079267371E-1,-2.208727241E-2,1.240636712E-1
1.157793638E1,3.902785300E-2,-8.922032475E-2,-4.976623714E-2,1.093623245E-1
1.158788138E1,3.535305612E-2,-8.426422477E-2,-5.766816437E-3,9.156175143E-2
1.159782538E1,-1.461745898E-2,-5.192152083E-2,-5.219458580E-2,7.505857192E-2
1.160776938E1,-3.757401135E-2,-9.697256327E-2,-1.236370361E-1,1.615598993E-1
1.161771438E1,-3.106738052E-2,-1.957355440E-2,-3.585074097E-2,5.131843521E-2
1.162765838E1,5.338876539E-2,-1.201789927E-1,8.462090492E-3,1.317761646E-1
1.163760238E1,6.587517922E-2,-8.584882021E-2,4.594829768E-2,1.175619208E-1
1.164754638E1,3.272837806E-2,-6.656938076E-2,2.266351551E-2,7.756458032E-2
1.165749137E1,-3.012398710E-3,-2.443726838E-2,-7.298757702E-2,7.702883247E-2
1.166743538E1,2.986552189E-3,-9.996692240E-2,-2.672089845E-2,1.035196188E-1
1.167737938E1,-8.144052210E-3,-9.267076671E-2,2.261118293E-2,9.573642036E-2
1.168732438E1,1.721776146E-2,-1.175524235E-1,3.037336171E-2,1.226277484E-1
1.169726838E1,2.247560062E-2,3.169541717E-2,1.286621332E-2,4.093032540E-2
1.170721238E1,-3.475415963E-3,1.409003556E-2,-9.191793770E-2,9.305651449E-2
1.171715738E1,-4.344309468E-2,-9.491960585E-2,-3.249297738E-3,1.044394178E-1
1.172710138E1,-2.362559719E-2,-6.332885385E-2,3.068677247E-2,7.423200507E-2
1.173704538E1,1.888974080E-2,-8.398297369E-2,-3.149310350E-3,8.613872726E-2
1.174699037E1,-3.494169080E-2,-5.568712771E-2,-5.093860388E-2,8.316681618E-2
1.175693438E1,-4.860426291E-2,-8.130085588E-2,-6.068532765E-2,1.124940555E-1
1.176687838E1,-5.211267453E-2,-2.729421794E-2,5.970299542E-2,8.381618485E-2
1.177682338E1,-5.912590264E-2,-1.344076073E-1,9.442668557E-3,1.471408891E-1
1.178676738E1,-5.597060803E-2,-7.360767424E-2,-1.439175189E-2,9.358376565E-2
1.179671138E1,-1.632589662E-2,-1.120975560E-1,-3.874715924E-2,1.197235955E-1
1.180665638E1,-8.199707653E-2,6.540695429E-3,-2.184168935E-2,8.510793530E-2
1.181660038E1,-2.102208330E-2,-9.521196663E-2,3.142410636E-2,1.024437457E-1
1.182654438E1,-6.350900291E-2,-3.077565014E-2,-2.034246325E-2,7.344623818E-2
1.183648938E1,-1.050994073E-1,-1.757556081E-2,-9.345166236E-2,1.417321380E-1
1.184643338E1,-4.439717298E-2,-5.579062343E-2,-4.024433881E-2,8.187374083E-2
1.185637738E1,2.560934732E-2,-7.384741008E-2,-3.482923239E-2,8.557075479E-2
1.186632238E1,-1.565391907E-2,-1.444086850E-2,5.487787306E-2,5.886565057E-2
1.187626638E1,-3.002623353E-2,-5.791082382E-2,-1.133278102E-2,6.620929044E-2
1.188621037E1,-4.596491656E-2,-8.840171456E-2,-7.014086008E-2,1.218498131E-1
1.189615538E1,-9.083549017E-3,2.811341286E-2,3.795895457E-2,4.810152885E-2
1.190609938E1,4.164158581E-2,-8.507757246E-2,4.962531924E-3,9.485168279E-2
1.191604338E1,3.564710255E-2,-1.112239820E-1,-9.132181406E-3,1.171532621E-1
1.192598838E1,2.042908884E-2,-5.634377003E-2,-3.191468775E-2,6.790077603E-2
1.193593238E1,-1.679506715E-2,-1.568691015E-2,-7.103168339E-2,7.465690508E-2
1.194587638E1,-2.013613877E-2,-1.418832725E-1,8.324096203E-3,1.435465697E-1
1.195582138E1,-1.444747859E-2,-5.716822743E-3,-1.596582234E-2,2.227822217E-2
1.196576538E1,8.012361950E-3,-1.412675607E-1,7.566297054E-3,1.416967555E-1
1.197570937E1,-1.743045393E-2,-8.355788112E-2,-6.625830889E-2,1.080550958E-1
1.198565338E1,-2.191377912E-2,-1.243006951E-1,-6.652669609E-2,1.426768299E-1
1.199559838E1,-4.971145147E-2,-4.687069595E-2,1.778138280E-2,7.059934929E-2
1.200554238E1,-1.628561479E-2,-1.161777431E-1,2.915831029E-2,1.208829860E-1
1.201548638E1,3.004340515E-3,-1.999513865E-2,3.244853854E-2,3.823269916E-2
1.202543138E1,2.157988940E-2,-3.196088076E-2,4.582462907E-3,3.883540256E-2
1.203537538E1,-7.168471687E-3,3.804198503E-3,-3.940233976E-2,4.022938343E-2
1.204531938E1,-1.459910877E-2,-2.350346804E-2,6.405273914E-2,6.977320674E-2
1.205526438E1,-4.775756781E-2,2.441797256E-2,4.801850438E-2,7.199166223E-2
1.206520837E1,-2.779352448E-2,-6.173139453E-2,-2.441095591E-2,7.196624099E-2
1.207515238E1,-1.806069698E-2,-5.345992327E-2,-1.072437823E-2,5.743835356E-2
1.208509738E1,-3.003150059E-2,2.292517841E-2,-7.443914831E-2,8.347839022E-2
1.209504138E1,8.786076489E-3,-2.428816438E-1,-3.635564804E-2,2.457446259E-1
1.210498538E1,-5.649989525E-2,-1.004165733E-1,-1.279090118E-1,1.721523792E-1
1.211493038E1,-8.270215024E-2,-1.405442601E-1,-7.746742129E-2,1.805367998E-1
1.212487438E1,-1.891375093E-2,-1.111883140E-1,-2.903493404E-2,1.164628633E-1
1.213481838E1,-8.942448394E-3,-1.450735134E-1,1.689494491E-2,1.463274781E-1
1.214476338E1,-7.348852809E-2,3.412961304E-2,7.808547199E-2,1.125288193E-1
1.215470738E1,-3.220403356E-2,-1.287054026E-1,1.964722931E-2,1.341200733E-1
1.216465138E1,-9.065404376E-2,7.489113808E-3,-3.569023490E-2,9.771404885E-2
1.217459638E1,-3.411810134E-2,-8.473258674E-2,1.103866607E-2,9.200819661E-2
1.218454038E1,2.709069829E-2,-8.529508889E-2,-5.368007094E-2,1.043585557E-1
1.219448438E1,1.009955755E-3,-1.228073162E-1,3.261401474E-2,1.270682135E-1
1.220442938E1,-2.854667783E-2,4.662569761E-2,1.273640513E-2,5.613452154E-2
1.221437338E1,1.526022786E-3,-3.842146933E-2,-6.388024628E-2,7.456020330E-2
1.222431738E1,-3.739537435E-2,-3.546804070E-2,-1.849649727E-2,5.475871022E-2
1.223426238E1,4.746934120E-3,-9.578499377E-2,4.512881041E-3,9.600866893E-2
1.224420638E1,5.140686992E-2,-7.117991030E-2,1.097955072E-1,1.405855587E-1
1.225415038E1,-4.743416654E-4,3.547798097E-2,-7.435319424E-3,3.625184283E-2
1.226409538E1,-6.071972572E-3,-5.123856604E-2,9.254972935E-3,5.242054964E-2
1.227403938E1,-2.612239025E-3,-7.238326728E-2,2.412736595E-2,7.634324438E-2
1.228398338E1,1.999117350E-2,-1.383690959E-1,7.947944820E-2,1.608186445E-1
1.229392838E1,2.053017715E-2,-5.961119413E-2,-1.020456076E-2,6.386795519E-2
1.230387238E1,2.550172201E-2,-1.012667584E-1,-8.076408148E-2,1.320156470E-1
1.231381638E1,-4.321281031E-2,-7.596702576E-3,-9.149489164E-2,1.014710405E-1
1.232376138E1,-2.254780459E-2,-1.555388600E-1,1.249900818E-2,1.576609199E-1
1.233370538E1,-7.754489690E-2,-4.001249671E-3,-6.276167393E-2,9.984111752E-2
1.234364938E1,1.294674044E-3,-1.271962363E-1,-4.988435090E-2,1.366345753E-1
1.235359438E1,-4.916791166E-2,4.073521256E-2,-7.786210835E-2,1.006943345E-1
1.236353838E1,-4.306446462E-2,-5.420895159E-2,-2.436096221E-2,7.339356257E-2
1.237348238E1,-2.554481782E-2,1.911337852E-2,4.454993606E-2,5.479558156E-2
1.238342737E1,-3.717530434E-2,-5.084095538E-2,-7.014963090E-2,9.427500577E-2
1.239337138E1,-1.087726464E-1,4.010078967E-2,-5.386104226E-2,1.278302539E-1
1.240331900E1,-1.762184517E-2,-7.462567449E-2,-9.808236480E-2,1.244976747E-1
1.241326400E1,-7.401606571E-3,-6.238569796E-2,-5.801607370E-3,6.309055189E-2
1.242320800E1,-1.309873151E-2,-1.460318720E-1,1.002739012E-2,1.469606511E-1
1.243315200E1,-4.647155039E-2,-1.027250540E-1,-5.860751957E-2,1.270703863E-1
1.244309700E1,-3.706250789E-2,-1.797258675E-2,-1.249827728E-1,1.315953527E-1
1.245304100E1,5.466520800E-3,-9.296546638E-2,-2.050355405E-2,9.535647077E-2
1.246298500E1,2.829702913E-2,8.681361079E-3,1.827459544E-2,3.478575465E-2
1.247292900E1,2.017097538E-3,-3.567970991E-2,8.535677701E-2,9.253588365E-2
1.248287400E1,-1.199094909E-3,-5.025331020E-2,-1.326186517E-1,1.418257374E-1
1.249281800E1,-1.939663044E-2,-2.490095258E-2,-2.364146233E-2,3.943609327E-2
1.250276200E1,-7.554082312E-2,3.474474013E-2,4.290686846E-3,8.325877082E-2
1.251270700E1,1.839037945E-2,-1.177904052E-1,8.348099023E-2,1.455398960E-1
1.252265100E1,1.861404458E-2,3.280755758E-2,2.447615236E-2,4.496554820E-2
1.253259500E1,-2.520218011E-2,-6.451233029E-2,-1.397426069E-2,7.065600190E-2
1.254254000E1,-5.104238739E-2,-8.959688544E-2,3.558323085E-2,1.090829662E-1
1.255248400E1,1.683441252E-2,-1.637851882E-1,5.659169197E-2,1.741022829E-1
1.256242800E1,2.720297397E-2,3.090838194E-3,1.611287981E-2,3.176759307E-2
1.257237300E1,3.199817046E-2,-1.376335162E-1,-3.277130485E-2,1.450545625E-1
1.258231700E1,-2.634893331E-2,-8.230365336E-2,-8.177828103E-2,1.189783379E-1
1.259226100E1,1.886887812E-2,-1.038249153E-1,4.069662094E-3,1.056040233E-1
1.260220600E1,7.548527000E-3,-8.239019215E-2,-3.028272986E-3,8.279066650E-2
1.261215000E1,-3.447118637E-2,-1.331305754E-1,-9.961433530E-2,1.698088001E-1
1.262209400E1,-1.713234186E-3,-6.453454971E-2,-5.676857024E-2,8.596693461E-2
1.263203900E1,-1.491394479E-2,-4.438796818E-2,-7.629856288E-2,8.952199823E-2
1.264198300E1,-6.356636500E-2,-8.628677666E-2,4.102669626E-2,1.147574851E-1
1.265192700E1,-3.490415898E-2,-3.121477604E-2,8.126460314E-3,4.752580262E-2
1.266187200E1,-6.647165003E-2,-3.815366685E-2,-2.184402823E-2,7.969532058E-2
1.267181600E1,-1.014378078E-1,5.027669907E-2,-6.370658398E-2,1.299072906E-1
1.268176000E1,-2.740721995E-2,-5.513222694E-2,5.509831309E-3,6.181485578E-2
1.269170500E1,-2.500416964E-2,4.455110550E-2,5.749830276E-2,7.691595622E-2
1.270164900E1,-4.093648469E-2,-2.927466989E-2,7.647748768E-2,9.155112341E-2
1.271159300E1,-6.612511571E-2,2.361281097E-2,-9.454479933E-2,1.177659325E-1
1.272153800E1,-8.547121799E-3,-6.182027221E-2,-6.499384850E-2,9.010549201E-2
1.273148200E1,3.440919674E-2,-4.027269781E-2,-7.383922398E-2,9.087416579E-2
1.274142600E1,2.817382647E-2,-1.396490514E-1,-7.835268974E-5,1.424627257E-1
1.275137100E1,-7.912653219E-3,-5.350787044E-3,-2.244512200E-2,2.439312413E-2
1.276131500E1,1.530735733E-2,-1.075753194E-1,-5.677821815E-2,1.225990644E-1
1.277125900E1,-4.874644618E-2,-3.105514705E-2,-3.444419324E-2,6.728328635E-2
1.278120400E1,4.473188496E-3,-1.095563561E-1,7.283291817E-3,1.098892666E-1
1.279114800E1,5.638306514E-2,-1.112573111E-1,8.541729569E-2,1.511732573E-1
1.280109200E1,-3.644902990E-3,-4.637368262E-2,-2.709248900E-2,5.383128011E-2
1.281103700E1,-4.991763434E-2,-5.221271217E-2,-1.194264561E-2,7.321587474E-2
1.282098100E1,-2.967644669E-4,-1.203970939E-1,-2.345376670E-2,1.226606190E-1
1.283092500E1,1.370667291E-2,-6.215824127E-2,2.969216108E-2,7.023634579E-2
1.284087000E1,1.423346593E-2,-2.136104822E-2,-2.494889975E-2,3.579571947E-2
1.285081400E1,1.443262758E-2,-1.164057845E-1,-2.841045141E-2,1.206886952E-1
1.286075800E1,-2.431319320E-2,-6.052394450E-2,-1.047373733E-1,1.233863711E-1
1.287070300E1,1.029987494E-2,-1.087354070E-1,8.746148229E-2,1.399249336E-1
1.288064700E1,-2.453563408E-2,-1.662129521E-2,1.309600890E-2,3.240015807E-2
1.289059100E1,-3.679593881E-2,-1.013503736E-1,2.298657417E-2,1.102461879E-1
1.290053600E1,-8.714996274E-3,4.838921785E-2,-4.598191917E-2,6.731867835E-2
1.291048000E1,-5.664781610E-2,-3.808700860E-2,-1.320301294E-3,6.827399570E-2
1.292042400E1,-3.234990789E-2,-6.211204827E-2,2.938021213E-2,7.594484805E-2
1.293036900E1,-4.736655811E-3,-1.509639984E-1,9.687666893E-3,1.513486558E-1
1.294031300E1,-9.229233309E-2,1.683998108E-2,-7.579277873E-2,1.206068199E-1
1.295025700E1,-8.711002808E-2,-3.156677842E-2,-6.629163802E-2,1.139262909E-1
1.296020200E1,-2.621659437E-2,-3.794492126E-2,-3.396589100E-2,5.727834339E-2
1.297014600E1,-1.303523440E-2,-1.161701417E-1,9.615395308E-2,1.513638063E-1
1.298009000E1,-6.680815729E-2,-1.184645891E-2,2.734216511E-2,7.315232370E-2
1.299003500E1,-7.513366962E-2,-3.071951687E-2,-1.446244472E-1,1.658462775E-1
1.299997900E1,-3.288710256E-2,-3.009561896E-3,-5.265973181E-2,6.215839711E-2
1.300992300E1,4.053151019E-2,-8.610434353E-2,2.204400301E-2,9.768674097E-2
1.301986800E1,-4.176054010E-4,-5.197940826E-2,1.280838436E-1,1.382298964E-1
1.302981200E1,-3.859466112E-2,4.478382468E-3,-8.809590518E-2,9.628339570E-2
1.303975600E1,-1.571740704E-3,-4.325360835E-2,-9.699536741E-2,1.062141530E-1
1.304970100E1,-4.284378248E-3,-8.281879306E-2,-6.746225059E-2,1.069039926E-1
1.305964500E1,7.406951291E-3,-1.010890031E-1,8.271939039E-2,1.308294578E-1
1.306958900E1,6.197856730E-3,-1.183417976E-2,-4.761387706E-3,1.418210321E-2
1.307953400E1,-7.553597633E-3,-1.071046185E-1,-6.765871704E-2,1.269100396E-1
1.308947800E1,1.343352572E-2,-4.226718307E-2,-8.307139277E-3,4.512186765E-2
1.309942200E1,2.345517826E-2,-9.444247305E-2,1.282434726E-1,1.609842053E-1
1.310936700E1,2.746240762E-3,-4.131350219E-2,-3.262278557E-2,5.271236515E-2
1.311931100E1,5.474198925E-2,-1.323382777E-1,-5.294829190E-2,1.526880046E-1
1.312925500E1,1.568131875E-3,7.770949602E-3,-7.333577871E-2,7.376302010E-2
1.313920000E1,1.074483891E-2,-1.016193455E-1,-6.796511114E-3,1.024115985E-1
1.314914400E1,2.679274611E-2,-3.046165466E-2,5.699865818E-2,6.996149429E-2
1.315908800E1,3.274230631E-3,-8.590846181E-2,-4.782320738E-2,9.837704794E-2
1.316903200E1,-3.122685876E-2,-6.651792526E-2,-6.461348712E-2,9.785015998E-2
1.317897700E1,-3.793798225E-2,-4.105330110E-2,-9.090052217E-2,1.067125530E-1
1.318892100E1,-3.230449147E-2,-6.313940406E-2,-5.128008127E-4,7.092550655E-2
1.319886600E1,1.334685902E-2,-1.315541661E-1,5.548773766E-2,1.433998825E-1
1.320881000E1,-1.014343725E-1,3.868751764E-2,6.616709232E-3,1.087632143E-1
1.321875400E1,-9.562826098E-2,2.843676388E-2,-6.330809623E-2,1.181580674E-1
1.322869800E1,-3.053574071E-2,-8.954542994E-2,4.644735754E-2,1.053953154E-1
1.323864300E1,-5.295064906E-3,-3.971838176E-2,7.118400335E-3,4.069716434E-2
1.324858700E1,-6.905386269E-2,-5.549183071E-2,8.720332772E-2,1.243068767E-1
1.325853100E1,-5.244375028E-2,-7.007010877E-2,-1.682170853E-1,1.896237192E-1
1.326847600E1,-5.432224596E-2,-3.965874016E-2,-8.001096010E-2,1.045250009E-1
1.327842000E1,4.068881399E-2,-5.575729430E-2,-2.991961777E-2,7.523057211E-2
1.328836400E1,5.518894950E-2,-1.286749971E-1,1.129255217E-1,1.798756473E-1
1.329830900E1,8.612067006E-3,-5.979772031E-2,-6.794610769E-2,9.092089200E-2
1.330825300E1,-1.968852527E-2,-1.489648354E-1,-1.380091998E-1,2.040213211E-1
1.331819700E1,-4.769453666E-2,-8.424785256E-2,-2.797717273E-2,1.007729710E-1
1.332814200E1,-1.518801018E-2,-1.127284706E-1,1.354454881E-1,1.768724511E-1
1.333808600E1,2.395345696E-2,3.571888626E-2,6.164894879E-2,7.516781108E-2
1.334803000E1,-3.567316377E-2,-3.276545763E-2,-1.040669900E-1,1.147871432E-1
1.335797500E1,-3.640014627E-2,1.612662077E-2,-6.642378509E-2,7.744131824E-2
1.336791900E1,6.980296411E-3,-1.169653630E-1,2.457555503E-2,1.197229242E-1
1.337786300E1,-3.896866822E-2,5.997489095E-3,7.421519995E-2,8.403822274E-2
1.338780800E1,-2.590150254E-2,-5.224487185E-2,-1.363278329E-1,1.482757313E-1
1.339775200E1,9.037036244E-3,-2.140256345E-2,2.689076006E-2,3.553661103E-2
1.340769242E1,-1.074535055E-2,-2.631247044E-5,5.339531153E-2,5.446579243E-2
1.341763742E1,1.732695364E-2,-8.756439328E-2,1.860089931E-1,2.063179386E-1
1.342758142E1,3.369042319E-3,-4.463764429E-2,-5.915628076E-3,4.515378599E-2
1.343752542E1,-7.099949629E-3,-4.938675284E-2,-4.621639252E-2,6.801040787E-2
1.344747042E1,-1.554542124E-2,-2.040444374E-2,-6.220268011E-3,2.639494611E-2
1.345741442E1,-3.778344674E-2,-5.418848634E-2,7.758611977E-2,1.018998866E-1
1.346735842E1,5.375852413E-3,-6.087828577E-2,-7.334513426E-2,9.547027907E-2
1.347730342E1,-2.521893604E-2,-7.602140486E-2,-6.748300821E-2,1.047339731E-1
1.348724742E1,-5.510649006E-2,-1.663123548E-2,-2.119621521E-1,2.196389701E-1
1.349719142E1,-4.843883696E-3,-1.451811022E-1,3.711724788E-2,1.499290023E-1
1.350713642E1,1.636979185E-2,-3.721460402E-2,8.893965840E-2,9.779140900E-2
1.351708042E1,-1.586504466E-2,-5.221738994E-2,9.841945678E-2,1.125377489E-1
1.352702442E1,-2.712373049E-2,1.924026310E-2,5.560848266E-2,6.479342423E-2
1.353696942E1,-6.224092912E-2,-5.017729640E-2,-4.649998248E-3,8.008318685E-2
1.354691342E1,-6.030009664E-3,-2.860808730E-2,1.220085865E-1,1.254626592E-1
1.355685742E1,7.904489044E-2,-1.147364044E-1,7.521010369E-2,1.583322358E-1
1.356680242E1,9.082909478E-3,3.891906738E-3,-1.185230613E-3,9.952434589E-3
1.357674642E1,-7.073303685E-4,-8.812338710E-2,-1.248968187E-1,1.528576036E-1
1.358669042E1,-2.363230778E-2,-1.188154221E-2,2.633147389E-2,3.732296255E-2
1.359663542E1,-1.801740018E-2,-8.390871406E-2,2.968397498E-2,9.080989690E-2
1.360657942E1,-3.115116016E-2,-7.020751834E-2,7.998347819E-2,1.108911502E-1
1.361652342E1,-1.968297956E-2,-2.447644472E-2,-9.923660517E-2,1.040885192E-1
1.362646842E1,-6.763931616E-2,-3.109549284E-2,2.469834656E-2,7.843478238E-2
1.363641242E1,-1.053157177E-1,-3.269412160E-2,4.537410110E-2,1.192439308E-1
1.364635642E1,-1.446213043E-1,7.254640460E-3,7.732328743E-2,1.641549337E-1
1.365630142E1,-1.020265676E-1,2.986582339E-2,-1.012755293E-1,1.468268393E-1
1.366624542E1,-4.341759534E-2,-1.109713823E-1,-4.413858443E-2,1.270745840E-1
1.367618942E1,-9.618148067E-2,-4.937739730E-2,-1.972382784E-2,1.099001091E-1
1.368613442E1,-1.032452004E-2,-1.590208769E-1,4.733321071E-3,1.594259682E-1
1.369607842E1,2.063765171E-2,-1.538928688E-2,-8.619468302E-2,8.995702418E-2
1.370602242E1,-1.032764008E-2,-7.878830731E-2,-1.999338448E-1,2.151459965E-1
1.371596742E1,-7.872672882E-3,1.424849510E-2,-9.924683779E-2,1.005730252E-1
1.372591142E1,2.323975404E-2,-1.569492084E-1,4.959082067E-2,1.662299301E-1
1.373585542E1,1.117200543E-2,2.078977525E-2,3.047802687E-2,3.854787390E-2
1.374580042E1,5.711339608E-2,-6.308970273E-2,-5.682558060E-2,1.023298452E-1
1.375574442E1,-2.293124033E-2,6.934680820E-2,-1.207426643E-1,1.411156001E-1
1.376568842E1,-2.639816412E-2,-2.598151803E-2,-4.808457792E-3,3.735001492E-2
1.377563342E1,3.416402025E-2,3.498506069E-2,1.668444514E-1,1.738626059E-1
1.378557742E1,7.289943025E-3,-1.438882828E-2,4.338283181E-2,4.628446548E-2
1.379552142E1,-1.168025181E-2,-3.365540385E-2,-4.704962075E-3,3.593398334E-2
1.380546642E1,-1.677739303E-2,-6.771660447E-2,-1.009524706E-1,1.227127571E-1
1.381541042E1,-1.581003972E-2,-6.606067300E-2,-1.232885420E-2,6.903600886E-2
1.382535442E1,3.602610262E-2,-1.339287204E-1,2.302955121E-2,1.405885573E-1
1.383529942E1,2.288546759E-2,-1.093405938E-1,-4.900142133E-2,1.219846276E-1
1.384524342E1,-3.477763072E-2,-5.135317147E-2,-8.400460839E-2,1.044193758E-1
1.385518742E1,2.358992003E-2,-1.826266712E-1,2.163996041E-2,1.854110926E-1
1.386513242E1,6.112583312E-3,-8.870343089E-2,1.581964195E-3,8.892786367E-2
1.387507642E1,-8.115177015E-3,-1.184663433E-1,1.843948692E-2,1.201671555E-1
1.388502042E1,-2.147513288E-3,-7.340126753E-2,-6.064264297E-2,9.523595978E-2
1.389496542E1,-2.836568367E-2,-1.285627306E-1,3.095545202E-2,1.352450654E-1
1.390490942E1,-2.685840395E-2,-3.253156900E-2,6.239037573E-2,7.531424718E-2
1.391485342E1,4.544442301E-3,-1.461482316E-1,-1.256654352E-2,1.467578808E-1
1.392479842E1,-5.377985276E-2,-4.771327972E-4,-1.396607459E-2,5.556573996E-2
1.393474242E1,1.461538961E-2,-1.190791315E-1,-3.080897927E-3,1.200122540E-1
1.394468642E1,-1.559551086E-2,3.458803475E-2,3.435794681E-2,5.118613695E-2
1.395463142E1,-5.638483758E-2,-6.781132936E-2,-5.393003941E-2,1.033734756E-1
1.396457542E1,-4.778795963E-2,3.464533746E-2,-6.807620823E-3,5.941659865E-2
1.397451942E1,-1.398078399E-2,-7.909820974E-2,5.616747648E-2,9.801415468E-2
1.398446442E1,-4.304061438E-2,7.872691154E-3,-1.778079808E-2,4.722955147E-2
1.399440842E1,-2.094198558E-2,-8.285329163E-2,-8.585642159E-2,1.211385976E-1
1.400435242E1,-4.077766426E-2,2.417297423E-2,-5.624553680E-2,7.355753528E-2
1.401429742E1,4.315391332E-3,-8.441859126E-2,-2.858235955E-2,8.923044565E-2
1.402424142E1,-2.929216585E-2,-8.516469598E-3,4.312496960E-2,5.282351974E-2
1.403418542E1,-7.190505641E-2,1.663415909E-2,-1.375557482E-1,1.561045043E-1
1.404413042E1,-9.260093817E-3,-6.549758613E-2,-1.159555489E-1,1.334967132E-1
1.405407442E1,1.160534349E-2,-2.514828980E-2,-3.545576155E-2,4.499146035E-2
1.406401942E1,-1.458742804E-2,-6.211672604E-2,9.326659799E-2,1.130041548E-1
1.407396342E1,-1.360502729E-2,-1.767496347E-2,2.177620053E-2,3.117216725E-2
1.408390742E1,-6.426039753E-3,5.460714698E-3,-5.247525215E-2,5.314852284E-2
1.409385142E1,-1.005109875E-2,6.719210923E-2,-5.365346611E-2,8.657077194E-2
1.410379642E1,7.883755183E-2,-1.890048140E-1,4.217158109E-2,2.090852017E-1
1.411374042E1,-9.747724193E-3,-2.198436141E-2,-2.017815650E-2,3.139248753E-2
1.412368442E1,3.197291323E-2,-1.666783905E-1,-3.568789601E-2,1.734288873E-1
1.413362942E1,-6.075983397E-3,-2.467934310E-2,-7.765628636E-2,8.170976907E-2
1.414357342E1,-4.895948126E-2,-1.793440443E-1,2.780351043E-3,1.859275326E-1
1.415351842E1,-2.752669958E-2,-4.284021020E-2,9.786017060E-2,1.103159816E-1
1.416346242E1,1.988137376E-2,-9.690999806E-2,3.898221731E-2,1.063316981E-1
1.417340642E1,-6.907189770E-2,3.062888503E-2,-1.940573931E-2,7.801050165E-2
1.418335142E1,-2.442217068E-2,-4.749517858E-2,3.263097167E-2,6.258605852E-2
1.419329542E1,-5.229473764E-2,-4.093694150E-2,1.069388500E-1,1.258828439E-1
1.420323942E1,-2.305694176E-2,-1.056433994E-1,1.453769839E-1,1.811811741E-1
1.421318442E1,-1.400963634E-2,7.685931087E-2,1.046593130E-2,7.882359606E-2
1.422312842E1,1.873712847E-4,-2.051320195E-2,-9.298183858E-2,9.521790204E-2
1.423307242E1,-1.931359084E-2,-1.178389370E-1,-3.756660640E-2,1.251809881E-1
1.424301742E1,2.520659750E-2,-6.240499377E-2,1.876079142E-2,6.986932875E-2
1.425296142E1,-1.887490349E-3,-7.359188676E-2,2.184695184E-2,7.678943756E-2
1.426290542E1,-1.261991307E-2,-6.198925674E-2,-1.428290597E-1,1.562116207E-1
1.427285042E1,-2.170178558E-2,-4.614037871E-3,-2.395019531E-2,3.264764460E-2
1.428279442E1,-1.760079063E-2,-4.387926042E-2,-3.422960043E-2,5.836816659E-2
1.429273842E1,2.696239302E-2,-1.703574586E-1,4.122170091E-2,1.773354532E-1
1.430268342E1,-4.466107883E-2,4.291096151E-2,-7.934320807E-2,1.006543951E-1
1.431262742E1,-5.737145472E-2,-8.864437401E-2,-7.474905074E-2,1.293705123E-1
1.432257142E1,-4.616651303E-2,-2.859814703E-2,-4.336353600E-2,6.949530339E-2
1.433251642E1,-4.161442823E-2,-7.270252526E-2,5.668787867E-2,1.011480766E-1
1.434246042E1,-3.923029457E-2,-3.559784889E-3,-5.330409497E-2,6.627982062E-2
1.435240442E1,-2.387220351E-2,-1.127623844E-1,-1.600558341E-2,1.163675906E-1
1.436234942E1,-7.082487924E-2,6.929769158E-2,-7.132638305E-2,1.220892563E-1
1.437229342E1,4.267690386E-2,-1.182651991E-1,2.702466130E-2,1.286013521E-1
1.438223742E1,3.082650265E-2,2.622768581E-2,3.878282726E-2,5.605597612E-2
1.439218242E1,-3.643295463E-2,4.178420305E-2,-1.852368683E-2,5.845003662E-2
1.440212642E1,-5.384595827E-3,-1.478760839E-2,-4.610529542E-4,1.574419905E-2
1.441207050E1,-1.540993029E-2,-6.706230104E-2,4.748494595E-2,8.360405651E-2
1.442201550E1,-2.343701991E-2,-4.134975493E-2,6.507161647E-2,8.058170639E-2
1.443195950E1,1.220812747E-2,-1.010603517E-1,-1.157602519E-2,1.024511465E-1
1.444190350E1,-1.747329849E-2,-5.996144235E-2,-1.158450365E-2,6.352079544E-2
1.445184850E1,-2.909214539E-2,-9.480558515E-2,-1.809128523E-2,1.008054884E-1
1.446179250E1,1.862596742E-2,-9.735497117E-2,4.736244678E-2,1.098549882E-1
1.447173650E1,-1.745526348E-2,-6.659803212E-2,-1.234054863E-2,6.994478712E-2
1.448168150E1,3.714663014E-3,-1.299543679E-1,3.312447667E-3,1.300496396E-1
1.449162550E1,2.850228467E-2,-4.720808029E-2,-3.868050098E-2,6.735847558E-2
1.450156950E1,-5.596689871E-3,-1.080834424E-1,-3.011316061E-3,1.082701320E-1
1.451151450E1,-2.153137122E-2,-6.431878746E-2,-9.492136002E-2,1.166643517E-1
1.452145850E1,3.220350366E-2,-1.292041701E-1,-2.314327955E-3,1.331770976E-1
1.453140250E1,-3.043806480E-2,-9.447931051E-3,8.600084782E-3,3.301061418E-2
1.454134750E1,-2.410024492E-2,-1.217834687E-1,-9.957808256E-3,1.245439401E-1
1.455129150E1,-6.109621789E-2,7.872106433E-3,-6.060639024E-2,8.641673702E-2
1.456123550E1,7.470420990E-3,-1.139055151E-1,-2.797658801E-2,1.175285626E-1
1.457118050E1,-1.060977280E-2,-1.802404225E-2,1.199088514E-2,2.410839489E-2
1.458112450E1,-4.137745155E-2,-4.215140820E-2,-3.178254068E-2,6.707432147E-2
1.459106850E1,-5.601892522E-2,4.728760242E-2,-5.182679594E-2,8.977891792E-2
1.460101350E1,-5.642974237E-3,-3.500435650E-2,-2.059096992E-3,3.551602473E-2
1.461095750E1,-1.606623456E-2,-3.632875085E-3,4.460256100E-2,4.754692547E-2
1.462090150E1,-9.392939815E-3,-8.489338517E-2,-9.932080507E-3,8.598697801E-2
1.463084650E1,-6.283852827E-2,5.122804105E-2,1.404735088E-2,8.228195970E-2
1.464079050E1,-5.217118780E-3,5.753660202E-3,-7.481103122E-2,7.521311938E-2
1.465073450E1,6.290013873E-2,-8.583069384E-2,5.910482526E-2,1.217239328E-1
1.466067950E1,2.070658947E-2,-1.273991346E-2,1.398244679E-2,2.804598119E-2
1.467062350E1,-3.426406702E-2,-4.555624187E-2,-1.659439802E-3,5.702763543E-2
1.468056750E1,-1.020325884E-2,-5.709279835E-2,-7.471162856E-2,9.458076737E-2
1.469051250E1,-5.238465685E-4,-9.201997161E-2,2.805698723E-2,9.620365961E-2
1.470045650E1,-2.655374117E-2,-4.060072660E-2,4.273759156E-2,6.465308890E-2
1.471040050E1,-5.828636582E-2,-2.316082120E-2,9.154576242E-2,1.109700441E-1
1.472034550E1,-6.392407299E-2,4.828572214E-2,-1.333691418E-2,8.121373868E-2
1.473028950E1,1.216979166E-2,-1.785739660E-1,3.651176870E-2,1.826742303E-1
1.474023450E1,-2.751901598E-2,-8.557400107E-3,1.098077863E-2,3.083995519E-2
1.475017850E1,-5.422340975E-2,-1.099948972E-1,8.621427119E-3,1.229365063E-1
1.476012250E1,-3.419762347E-3,-9.661646783E-2,-4.733321071E-2,1.076423219E-1
1.477006750E1,4.826924943E-2,-1.243527353E-1,-8.633501619E-2,1.588938584E-1
1.478001150E1,2.803420136E-4,-7.734112144E-3,-2.980501235E-2,3.079340584E-2
1.478995550E1,9.992507827E-3,-1.789762545E-1,-5.303716958E-2,1.869365968E-1
1.479990050E1,2.644823547E-2,-8.113654912E-2,-3.857115805E-2,9.365032299E-2
1.480984450E1,3.391723577E-2,-8.593945205E-2,-3.778997004E-2,9.982008885E-2
1.481978850E1,-6.796052016E-2,5.518952966E-2,-6.444801092E-3,8.778412126E-2
1.482973350E1,-3.053594628E-2,-8.220834374E-2,-4.494988561E-2,9.854515722E-2
1.483967750E1,3.524784279E-2,-4.694437087E-2,5.592803299E-2,8.108100426E-2
1.484962150E1,-4.162425886E-2,6.029297948E-2,-5.045386970E-2,8.895737894E-2
1.485956650E1,-1.002429658E-1,2.668961585E-2,-9.253218770E-4,1.037393079E-1
1.486951050E1,-1.278072977E-2,-1.013603139E-1,-8.882300645E-2,1.353764631E-1
1.487945450E1,2.335488481E-2,-3.160127699E-2,5.352365792E-2,6.639934720E-2
1.488939950E1,-1.475567254E-2,1.361114860E-2,-3.821155429E-3,2.043512826E-2
1.489934350E1,-6.446972328E-2,-5.366282165E-2,-5.924632788E-2,1.026945520E-1
1.490928750E1,-4.876720837E-2,4.226659834E-2,-9.547772259E-2,1.152419258E-1
1.491923250E1,5.823716698E-2,-9.105635047E-2,1.023023003E-1,1.488240143E-1
1.492917650E1,2.925058667E-2,-7.067003310E-2,4.690811813E-2,8.972302907E-2
1.493912050E1,-4.403601605E-2,-2.880864680E-2,-4.297118783E-3,5.279748166E-2
1.494906550E1,-2.803661333E-2,-2.624932051E-2,-1.486566871E-1,1.535379078E-1
1.495900950E1,2.590048384E-2,-1.964588445E-1,-2.486089915E-2,1.997122354E-1
1.496895350E1,-8.779082671E-3,-4.061709881E-2,6.763942122E-2,7.938458485E-2
1.497889850E1,-3.780860804E-2,-1.176413012E-1,1.249374568E-2,1.241976661E-1
1.498884250E1,-4.628375427E-2,-3.302156568E-2,-1.396905667E-1,1.508179834E-1
1.499878650E1,3.668186786E-3,-9.693572581E-2,-5.724424124E-2,1.126361118E-1
1.500873150E1,3.749033678E-3,-8.183178306E-2,5.939484715E-2,1.011842075E-1
1.501867550E1,-5.424196552E-2,-5.938549161E-2,2.539767355E-2,8.434375649E-2
1.502861950E1,-4.806088299E-2,4.475634277E-2,-2.785555065E-2,7.133659926E-2
1.503856450E1,2.393002242E-2,-8.292228878E-2,-2.459865153E-2,8.974322039E-2
1.504850850E1,2.711627986E-3,1.194936991E-2,7.231543958E-2,7.334618715E-2
1.505845250E1,-1.247645072E-2,-3.982363164E-2,1.718730569E-2,4.513299167E-2
1.506839750E1,-4.675584384E-3,-7.468765497E-2,-1.697212815E-2,7.673434712E-2
1.507834150E1,4.037136957E-4,-1.862221241E-2,-7.657572091E-2,7.880857068E-2
1.508828550E1,-3.427502599E-2,-4.474230945E-2,4.887979925E-2,7.460486871E-2
1.509823050E1,-2.032162341E-2,-4.105154693E-2,-4.297995865E-3,4.600728912E-2
1.510817450E1,3.848642367E-2,-1.243001103E-1,-4.971595109E-3,1.302168921E-1
1.511811850E1,2.226217724E-3,-8.137628496E-2,-1.194036520E-1,1.445139713E-1
1.512806350E1,-9.157576595E-2,-3.251695096E-2,-2.747694343E-2,1.009874023E-1
1.513800750E1,-3.262383167E-2,2.955065846E-2,-1.676162839E-2,4.710104027E-2
1.514795150E1,5.135613162E-2,-1.608235735E-1,6.912198275E-2,1.824267594E-1
1.515789650E1,-1.768761721E-2,4.347638726E-2,8.102486730E-3,4.763085495E-2
1.516784050E1,-4.098578403E-2,-9.748828769E-2,-2.928694904E-2,1.097338877E-1
1.517778450E1,-2.835865330E-2,-9.119551420E-2,-1.154292995E-1,1.498157475E-1
1.518772950E1,4.567977344E-3,-1.146954739E-1,9.857820868E-3,1.152089180E-1
1.519767350E1,5.298006786E-2,-7.702829540E-2,5.535968363E-2,1.086505428E-1
1.520761850E1,-4.996756408E-3,-1.134862697E-1,-9.546748996E-3,1.139966728E-1
1.521756250E1,-2.676302581E-2,-1.432509363E-2,-9.172410250E-2,9.661665921E-2
1.522750650E1,-9.458350972E-3,-7.379712403E-2,4.067615569E-2,8.479401842E-2
1.523745150E1,1.584657568E-2,-2.562366843E-2,4.462419569E-2,5.384241067E-2
1.524739550E1,-2.036977615E-2,-8.730360746E-2,-1.401226759E-2,9.073693459E-2
1.525733950E1,-5.136496183E-2,-1.368423879E-2,-1.622251511E-2,5.557686291E-2
1.526728450E1,-4.247995319E-2,2.861861229E-2,-1.974136949E-2,5.489347012E-2
1.527722850E1,5.218967505E-2,-4.542000175E-2,1.112602347E-1,1.310174743E-1
1.528717250E1,-1.628493413E-2,-6.271138787E-3,1.094481826E-2,2.059891522E-2
1.529711750E1,-5.273765966E-2,-1.386959553E-2,-1.598365635E-2,5.682520300E-2
1.530706150E1,8.862368949E-4,-5.076260269E-2,-3.863898575E-2,6.380124190E-2
1.531700550E1,5.227107012E-2,-8.012264192E-2,7.699496627E-2,1.228011700E-1
1.532695050E1,-2.640459606E-2,8.431100249E-3,-2.166656524E-2,3.518133303E-2
1.533689450E1,-1.659432493E-2,-4.972647607E-2,3.179248095E-2,6.130950895E-2
1.534683850E1,-7.141053728E-3,2.817773223E-3,-6.054762572E-2,6.103236416E-2
1.535678350E1,-2.070658491E-2,-6.396210730E-2,6.256930053E-2,9.184133709E-2
1.536672750E1,-7.004782083E-2,-5.412182808E-2,-3.838346243E-2,9.648398658E-2
1.537667150E1,1.051500679E-2,-1.266062522E-1,-1.238557220E-2,1.276444705E-1
1.538661650E1,-4.191174544E-4,-1.435608387E-2,-9.215884298E-2,9.327124500E-2
1.539656050E1,-5.527449701E-2,-1.192662424E-1,-1.016874656E-1,1.661928015E-1
1.540650488E1,-8.299296699E-2,-2.261001348E-2,-8.805380523E-2,1.230955641E-1
1.541644988E1,2.684590552E-2,-1.512388176E-1,1.904584318E-2,1.547792839E-1
1.542639388E1,-8.352290746E-3,-3.367820799E-2,-1.882218719E-3,3.474946333E-2
1.543633788E1,-3.983162132E-2,-9.304791212E-2,-4.257416189E-2,1.098045139E-1
1.544628288E1,-2.529701008E-2,1.873330951E-2,-1.633068860E-2,3.546219105E-2
1.545622688E1,-3.596590371E-3,-4.739051342E-2,1.684290469E-2,5.042300728E-2
1.546617088E1,5.486452953E-2,7.472741604E-3,7.677657276E-2,9.466044894E-2
1.547611588E1,3.933001701E-3,1.654645085E-2,-2.648291677E-2,3.147377351E-2
1.548605987E1,1.093736763E-2,2.390751064E-2,-5.031529069E-2,5.676991767E-2
1.549600388E1,1.068116365E-2,-5.378970623E-2,-5.583476990E-2,7.826200409E-2
1.550594888E1,5.895761247E-3,-4.537439346E-2,6.654014468E-2,8.075386330E-2
1.551589288E1,1.195367309E-3,5.783656418E-2,-6.610043406E-2,8.783942420E-2
1.552583688E1,1.149178417E-2,-1.177483052E-1,-7.748437822E-3,1.185612195E-1
1.553578188E1,-2.423389491E-2,-3.300753236E-2,-7.382665247E-2,8.442247017E-2
1.554572588E1,3.990363800E-3,-7.402224183E-2,5.742316604E-2,9.376905293E-2
1.555566988E1,9.483900564E-3,-8.063427329E-2,-6.424686670E-2,1.035349713E-1
1.556561488E1,-2.882914860E-2,-1.432333946E-1,2.443376005E-2,1.481348500E-1
1.557555887E1,-3.466063159E-2,1.066824496E-2,-3.488799691E-2,5.032239224E-2
1.558550288E1,1.625234961E-2,-1.850678837E-1,1.471393347E-2,1.863619068E-1
