"Time (s)","Linear Acceleration x (m/s^2)","Linear Acceleration y (m/s^2)","Linear Acceleration z (m/s^2)","Absolute acceleration (m/s^2)"
1.272362494E-2,2.747846005E-2,-5.552800122E-2,-1.246655613E-1,1.392118058E-1
2.267262503E-2,2.026780162E-2,-5.436365613E-2,-1.306513560E-1,1.429544253E-1
3.262162511E-2,1.407759195E-2,-5.043401658E-2,-1.173267210E-1,1.284808471E-1
4.257162497E-2,1.490140982E-2,-4.697703305E-2,-1.197211558E-1,1.294683312E-1
5.252062506E-2,1.357868741E-2,-5.991968044E-2,-1.303496397E-1,1.441033567E-1
6.246962491E-2,1.284729210E-2,-5.746501017E-2,-1.200193638E-1,1.336859304E-1
7.241962501E-2,1.177863121E-2,-5.425890874E-2,-1.239089316E-1,1.357799273E-1
8.236862510E-2,1.936105379E-2,-5.747410077E-2,-1.282516587E-1,1.418682862E-1
9.231862496E-2,2.793491746E-2,-6.792149456E-2,-1.194200242E-1,1.401956890E-1
1.022676250E-1,3.803896093E-2,-7.412081310E-2,-1.222646946E-1,1.479510494E-1
1.122166249E-1,4.005194714E-2,-8.688567773E-2,-1.366324729E-1,1.667984176E-1
1.221666250E-1,4.006514906E-2,-1.006010712E-1,-1.233090073E-1,1.641063770E-1
1.321156251E-1,3.358603212E-2,-1.218630822E-1,-9.950733125E-2,1.608736813E-1
1.420646249E-1,2.708760110E-2,-1.282374426E-1,-1.236066306E-1,1.801587604E-1
1.520146250E-1,2.945729488E-2,-1.115594477E-1,-1.481532419E-1,1.877834542E-1
1.619636251E-1,1.845874619E-2,-9.970858511E-2,-1.468019503E-1,1.784190009E-1
1.719136250E-1,3.324848332E-2,-6.473484426E-2,-1.572772372E-1,1.732979834E-1
1.818626251E-1,4.369695520E-2,-4.058668415E-2,-1.084804684E-1,1.237930323E-1
1.918116249E-1,1.424977418E-2,9.138001213E-2,-2.360930264E-2,9.545031091E-2
2.017616250E-1,-6.558629936E-3,3.109912542E-1,-1.372288889E-1,3.399857994E-1
2.117106251E-1,5.703118332E-3,2.842395483E-2,-1.442724448E-1,1.471563288E-1
2.216606250E-1,4.224069701E-2,-3.724109008E-2,-1.541589171E-1,1.641223537E-1
2.316096250E-1,3.279836649E-2,-2.921056978E-2,-8.351051867E-2,9.435569384E-2
2.415586249E-1,3.668010456E-2,-4.749116776E-2,-8.516586542E-2,1.041828475E-1
2.515086250E-1,2.131920408E-2,-9.230300426E-2,-1.712403882E-1,1.956977864E-1
2.614576251E-1,-3.056121265E-2,-1.048859200E-1,-1.676507825E-1,2.001045447E-1
2.714066249E-1,-1.416410333E-2,-4.315962349E-2,-9.819112301E-2,1.081890547E-1
2.813566250E-1,2.014886560E-2,-3.289674589E-2,-1.122478294E-1,1.186918190E-1
2.913056251E-1,2.193789432E-2,-2.732656949E-2,-1.363465440E-1,1.407778132E-1
3.012556250E-1,5.994064819E-2,-1.478273875E-2,-1.435310179E-1,1.562452040E-1
3.112046251E-1,5.710389893E-2,-2.447497378E-2,-1.041646385E-1,1.212854135E-1
3.211536249E-1,4.715998694E-3,-4.637900907E-2,-1.058164769E-1,1.156303590E-1
3.311036250E-1,8.010868169E-3,-5.321137092E-2,-1.237832165E-1,1.349737333E-1
3.410526251E-1,1.528899799E-2,-7.340346023E-2,-1.499799120E-1,1.676776534E-1
3.510026250E-1,1.694310221E-2,-4.842764502E-2,-1.168987048E-1,1.276621036E-1
3.609516250E-1,2.221927330E-2,-5.250210366E-2,-1.100153625E-1,1.239094306E-1
3.709006249E-1,1.985951979E-2,-5.123047130E-2,-1.345648974E-1,1.453501749E-1
3.808506250E-1,3.239334631E-2,-2.398847630E-3,-1.401045495E-1,1.438206110E-1
3.907996251E-1,2.975786917E-2,-3.137225800E-2,-1.233411670E-1,1.307011584E-1
4.007486249E-1,9.503863323E-3,-6.141598293E-2,-1.182505810E-1,1.335868492E-1
4.106986250E-1,2.669046552E-2,-5.885651959E-2,-1.164549011E-1,1.331848897E-1
4.206476251E-1,2.621766332E-2,-4.275918972E-2,-1.258864599E-1,1.355105714E-1
4.305976250E-1,1.066993517E-2,-4.928819072E-2,-1.269360352E-1,1.365867134E-1
4.405466251E-1,1.626170972E-2,-5.746760488E-2,-1.323265833E-1,1.451802103E-1
4.504963751E-1,2.920899834E-2,-3.069034475E-2,-1.251421094E-1,1.321196821E-1
4.604463750E-1,3.569074653E-2,-2.653273688E-2,-1.347227722E-1,1.418733269E-1
4.703953750E-1,2.540789704E-2,-5.186222641E-2,-1.321780640E-1,1.442438642E-1
4.803453749E-1,9.201178551E-3,-4.501343753E-2,-1.122735572E-1,1.213104401E-1
4.902943750E-1,2.160051911E-2,-4.924916969E-2,-1.278452772E-1,1.386956309E-1
5.002433751E-1,2.768487590E-2,-4.950142222E-2,-1.265021718E-1,1.386349257E-1
5.101933749E-1,2.179842909E-2,-3.984405122E-2,-1.241118300E-1,1.321607592E-1
5.201423750E-1,1.922652215E-2,-3.563600197E-2,-1.200743276E-1,1.267179069E-1
5.300913751E-1,1.731082812E-2,-2.793542909E-2,-1.287580276E-1,1.328859760E-1
5.400413750E-1,2.253662179E-2,-3.756516287E-2,-1.308548391E-1,1.379928610E-1
5.499903751E-1,1.304945044E-2,-5.023265309E-2,-1.247211099E-1,1.350887221E-1
5.599403749E-1,8.359937808E-3,-4.273214635E-2,-1.218764395E-1,1.294209851E-1
5.698893750E-1,1.152893683E-2,-4.001705571E-2,-1.187329763E-1,1.258244841E-1
5.798383751E-1,1.982983603E-2,-3.802007625E-2,-1.371481973E-1,1.436954300E-1
5.897883750E-1,2.518806000E-2,-2.871626993E-2,-1.269722879E-1,1.325934554E-1
5.997373750E-1,1.409400984E-2,-4.462475301E-2,-1.223331070E-1,1.309786195E-1
6.096873749E-1,1.526590149E-2,-4.970398257E-2,-1.232341629E-1,1.337542244E-1
6.196363750E-1,2.289596974E-2,-4.578805656E-2,-1.277283329E-1,1.376055906E-1
6.295853751E-1,2.209386880E-2,-3.628552713E-2,-1.296766251E-1,1.364580728E-1
6.395353749E-1,1.452919800E-2,-3.297618580E-2,-1.229435563E-1,1.281157463E-1
6.494843750E-1,2.109731139E-2,-4.250223200E-2,-1.196533281E-1,1.287185114E-1
6.594333751E-1,2.937887823E-2,-4.044967658E-2,-1.274383110E-1,1.368934547E-1
6.693833750E-1,1.968945717E-2,-3.489783668E-2,-1.284878862E-1,1.345907524E-1
6.793323751E-1,2.426959947E-2,-3.860322637E-2,-1.211572319E-1,1.294538427E-1
6.892823749E-1,2.011650492E-2,-4.370875013E-2,-1.301438177E-1,1.387535293E-1
6.992313750E-1,1.816154318E-2,-4.280901896E-2,-1.264033538E-1,1.346857884E-1
7.091803751E-1,2.603470028E-2,-3.545444593E-2,-1.323938262E-1,1.395096720E-1
7.191303750E-1,1.642056213E-2,-3.566291744E-2,-1.219173700E-1,1.280832684E-1
7.290793750E-1,1.760061247E-2,-3.829965538E-2,-1.198223126E-1,1.270198085E-1
7.390283749E-1,2.091652279E-2,-4.224601432E-2,-1.273090875E-1,1.357565115E-1
7.489783750E-1,2.005342808E-2,-3.210178038E-2,-1.223705292E-1,1.280906347E-1
7.589273751E-1,8.971072342E-3,-4.324746877E-2,-1.171349323E-1,1.251855265E-1
7.688773749E-1,2.059773076E-2,-3.920741734E-2,-1.207315546E-1,1.285985862E-1
7.788263750E-1,2.019417238E-2,-4.315197643E-2,-1.229798090E-1,1.318860535E-1
7.887753751E-1,2.472072129E-2,-4.234318773E-2,-1.253771675E-1,1.346235259E-1
7.987253750E-1,1.969533180E-2,-4.459415562E-2,-1.202889204E-1,1.297920228E-1
8.086743751E-1,1.910908448E-2,-3.741645173E-2,-1.216378731E-1,1.286892386E-1
8.186243749E-1,2.382153830E-2,-3.604677801E-2,-1.249327791E-1,1.321931737E-1
8.285733750E-1,2.467425420E-2,-4.151635489E-2,-1.306221199E-1,1.392643700E-1
8.385223751E-1,1.931597541E-2,-3.909024462E-2,-1.382585835E-1,1.449709973E-1
8.484723750E-1,7.260368904E-3,-3.683706575E-2,-1.246380794E-1,1.301704007E-1
8.584213750E-1,1.507842514E-2,-3.972494161E-2,-1.207485116E-1,1.280063785E-1
8.683703749E-1,2.263381348E-2,-3.225159701E-2,-1.170092171E-1,1.234650231E-1
8.783203750E-1,2.769648811E-2,-3.679219751E-2,-1.116215926E-1,1.207482555E-1
8.882693751E-1,2.019668486E-2,-4.392862371E-2,-1.185084432E-1,1.279917231E-1
8.982193749E-1,1.143757408E-2,-4.305092010E-2,-1.280896908E-1,1.356140432E-1
9.081683750E-1,2.438430539E-2,-3.262637612E-2,-1.116256857E-1,1.188249489E-1
9.181173751E-1,2.096511863E-2,-4.109329971E-2,-1.165677524E-1,1.253644143E-1
9.280673750E-1,1.466698215E-2,-4.192957032E-2,-1.258513767E-1,1.334607742E-1
9.380163751E-1,2.409127766E-2,-3.821806845E-2,-1.197170627E-1,1.279577490E-1
9.479663749E-1,2.044888258E-2,-3.940402997E-2,-1.128337204E-1,1.212529705E-1
9.579153750E-1,2.371023106E-2,-3.572286967E-2,-1.245117795E-1,1.316870598E-1
9.678643751E-1,8.721917002E-3,-3.873876301E-2,-1.168811631E-1,1.234421722E-1
9.778143750E-1,1.625980024E-2,-4.289563084E-2,-1.198743528E-1,1.283521590E-1
9.877633750E-1,1.552791157E-2,-3.948124062E-2,-1.249643540E-1,1.319695957E-1
9.977123749E-1,2.243043087E-2,-3.373034871E-2,-1.146381712E-1,1.215844190E-1
1.007662375E0,2.081525632E-2,-3.708021856E-2,-1.158380198E-1,1.233963709E-1
1.017611375E0,2.455613131E-2,-3.361103810E-2,-1.218273228E-1,1.287423864E-1
1.027561375E0,1.144413393E-2,-2.874554255E-2,-1.183885753E-1,1.223647383E-1
1.037510375E0,9.168680822E-3,-3.429343558E-2,-1.188393956E-1,1.240278452E-1
1.047459375E0,1.508060871E-2,-4.065607416E-2,-1.248286986E-1,1.321459236E-1
1.057409375E0,1.437781907E-2,-3.379542639E-2,-1.245316601E-1,1.298344596E-1
1.067358375E0,2.189339153E-2,-3.927622262E-2,-1.213905358E-1,1.294511663E-1
1.077308375E0,2.037335300E-2,-3.063595651E-2,-1.177997607E-1,1.234115836E-1
1.087257375E0,1.700196723E-3,-2.948839475E-2,-1.113637304E-1,1.152143071E-1
1.097206375E0,8.827422699E-3,-3.017054555E-2,-1.212443554E-1,1.252532592E-1
1.107156375E0,1.171483261E-2,-3.459337033E-2,-1.140581274E-1,1.197630786E-1
1.117105375E0,1.363519527E-2,-3.054468513E-2,-1.228915161E-1,1.273625576E-1
1.127054375E0,1.972844166E-2,-2.861810066E-2,-1.200497693E-1,1.249806153E-1
1.137004375E0,2.110365196E-2,-3.187718335E-2,-1.198994958E-1,1.258467641E-1
1.146953375E0,9.789362764E-3,-3.530831122E-2,-1.212484485E-1,1.266637072E-1
1.156903375E0,1.448966534E-2,-3.254593123E-2,-1.299339026E-1,1.347293847E-1
1.166852375E0,1.602138916E-2,-2.525312855E-2,-1.269412977E-1,1.304166341E-1
1.176801375E0,1.323470668E-2,-3.331929859E-2,-1.223038709E-1,1.274502647E-1
1.186751375E0,3.857033579E-3,-3.592255209E-2,-1.218565589E-1,1.270996751E-1
1.196700375E0,1.862161855E-2,-3.608260134E-2,-1.263507289E-1,1.327148277E-1
1.206650375E0,1.775602964E-2,-2.768803705E-2,-1.154263759E-1,1.200214657E-1
1.216599375E0,1.170012320E-2,-3.635837065E-2,-1.185704237E-1,1.245703391E-1
1.226548375E0,1.779147838E-2,-2.667624948E-2,-1.206678200E-1,1.248554435E-1
1.236498375E0,1.259079119E-2,-3.084665727E-2,-1.197708571E-1,1.243185525E-1
1.246447375E0,1.624126274E-2,-3.603953294E-2,-1.277055287E-1,1.336836887E-1
1.256396375E0,1.148753123E-2,-2.962796048E-2,-1.238153762E-1,1.278281142E-1
1.266346375E0,1.776498319E-2,-2.414678967E-2,-1.247135085E-1,1.282658227E-1
1.276295375E0,1.503546637E-2,-2.951606853E-2,-1.256151491E-1,1.299093116E-1
1.286245375E0,1.536756995E-2,-2.723159792E-2,-1.200801748E-1,1.240845297E-1
1.296194375E0,1.310396659E-2,-2.748696593E-2,-1.188850039E-1,1.227228234E-1
1.306143375E0,1.285781709E-2,-2.726457073E-2,-1.259256363E-1,1.294833818E-1
1.316093375E0,1.465247375E-2,-2.810841531E-2,-1.179927188E-1,1.221763467E-1
1.326042375E0,1.103588864E-2,-3.233224290E-2,-1.275751358E-1,1.320703602E-1
1.335992375E0,1.788080374E-2,-3.338222011E-2,-1.263787955E-1,1.319306474E-1
1.345941375E0,1.683967045E-2,-2.313513913E-2,-1.191954911E-1,1.225821123E-1
1.355890375E0,2.093111342E-2,-3.523165788E-2,-1.223401237E-1,1.290212660E-1
1.365840375E0,1.697434827E-2,-3.499096273E-2,-1.301245219E-1,1.358119551E-1
1.375789375E0,9.473969433E-3,-3.501309992E-2,-1.320716447E-1,1.369620115E-1
1.385738375E0,2.266843996E-2,-3.567618331E-2,-1.262349540E-1,1.331236712E-1
1.395688375E0,9.163747234E-3,-3.115888945E-2,-1.308758891E-1,1.348456488E-1
1.405637375E0,2.456180493E-2,-3.088839177E-2,-1.338690788E-1,1.395646992E-1
1.415587375E0,1.887698656E-2,-2.711633468E-2,-1.232417643E-1,1.275937643E-1
1.425536375E0,1.892631331E-2,-2.896562627E-2,-1.091716093E-1,1.145235920E-1
1.435485375E0,1.521230810E-2,-3.262282211E-2,-1.204006022E-1,1.256660967E-1
1.445435375E0,1.234658771E-2,-2.985697034E-2,-1.192007536E-1,1.235018079E-1
1.455384375E0,1.708185481E-2,-2.432850103E-2,-1.245907170E-1,1.280879092E-1
1.465333375E0,1.457353634E-2,-3.253086551E-2,-1.307279545E-1,1.355007131E-1
1.475283375E0,2.043983767E-2,-3.038914005E-2,-1.287790775E-1,1.338855392E-1
1.485232375E0,1.789385947E-2,-3.568238684E-2,-1.334176737E-1,1.392612602E-1
1.495182375E0,6.961420868E-3,-3.459772834E-2,-1.214396524E-1,1.264636445E-1
1.505131375E0,1.257033507E-2,-3.058722362E-2,-1.160502738E-1,1.206700361E-1
1.515080375E0,1.637535584E-2,-3.549726765E-2,-1.253321439E-1,1.312872979E-1
1.525030375E0,2.690098356E-2,-3.290649430E-2,-1.203935856E-1,1.276758228E-1
1.534979375E0,2.094878297E-2,-3.655104554E-2,-1.266828507E-1,1.335042138E-1
1.544929375E0,1.073259174E-2,-2.734356296E-2,-1.235405570E-1,1.269847557E-1
1.554878375E0,1.968360996E-2,-2.927016570E-2,-1.227944523E-1,1.277601840E-1
1.564827375E0,1.678200228E-2,-2.501255217E-2,-1.251894718E-1,1.287620566E-1
1.574777375E0,2.409967390E-2,-2.089269538E-2,-1.247415751E-1,1.287546487E-1
1.584726375E0,5.168719366E-3,-3.242534154E-2,-1.217472160E-1,1.260971968E-1
1.594675375E0,1.404470136E-2,-3.673658500E-2,-1.144124687E-1,1.209836489E-1
1.604625375E0,2.361885918E-2,-3.316230998E-2,-1.186025834E-1,1.253960211E-1
1.614574375E0,2.707555035E-2,-3.378038809E-2,-1.271360099E-1,1.343047470E-1
1.624524375E0,1.738688760E-2,-3.007900008E-2,-1.226459330E-1,1.274718596E-1
1.634473375E0,2.540538456E-2,-2.241449721E-2,-1.184552336E-1,1.232050551E-1
1.644422375E0,1.698071625E-2,-3.355481347E-2,-1.144136381E-1,1.204356709E-1
1.654372375E0,1.761162168E-2,-3.174401301E-2,-1.254882646E-1,1.306336715E-1
1.664321375E0,2.632852287E-2,-2.985029172E-2,-1.221962821E-1,1.285152225E-1
1.674271375E0,1.861366086E-2,-2.991938937E-2,-1.232476115E-1,1.281858494E-1
1.684220375E0,1.527897550E-2,-3.129241610E-2,-1.160643071E-1,1.211758465E-1
1.694169375E0,1.611456089E-2,-2.880551306E-2,-1.266939604E-1,1.309228638E-1
1.704119375E0,2.219544590E-2,-2.970646849E-2,-1.193574589E-1,1.249852595E-1
1.714068375E0,1.432557785E-2,-3.024023705E-2,-1.136687028E-1,1.184916374E-1
1.724017375E0,1.413505912E-2,-3.219169046E-2,-1.307361406E-1,1.353811039E-1
1.733967375E0,1.613781271E-2,-2.996494283E-2,-1.361255193E-1,1.403156577E-1
1.743916375E0,2.119752718E-2,-3.034610820E-2,-1.150188249E-1,1.208286039E-1
1.753866375E0,1.888499907E-2,-3.278981494E-2,-1.220547795E-1,1.277856970E-1
1.763815375E0,1.672393212E-2,-3.160446555E-2,-1.319342351E-1,1.366937253E-1
1.773764375E0,1.375127164E-2,-2.440649740E-2,-1.196632683E-1,1.228986264E-1
1.783714375E0,1.240446601E-2,-2.641349022E-2,-1.278967327E-1,1.311835259E-1
1.793663375E0,2.027667294E-2,-2.971292784E-2,-1.216138995E-1,1.268224826E-1
1.803612375E0,2.164421791E-2,-2.823376500E-2,-1.234125030E-1,1.284377809E-1
1.813562375E0,1.598276099E-2,-2.324632759E-2,-1.274564373E-1,1.305411193E-1
1.823511375E0,2.756246810E-2,-2.888635081E-2,-1.312009943E-1,1.371415758E-1
1.833461375E0,1.789796166E-2,-2.551491936E-2,-1.256625116E-1,1.294697453E-1
1.843410375E0,1.052973904E-2,-2.048562868E-2,-1.276084650E-1,1.296705700E-1
1.853359375E0,1.916809567E-2,-2.923648939E-2,-1.262606817E-1,1.310112513E-1
1.863309375E0,2.037408390E-2,-2.926905108E-2,-1.169793963E-1,1.222945617E-1
1.873258375E0,1.332849967E-2,-2.560535020E-2,-1.211695111E-1,1.245605607E-1
1.883208375E0,1.208686170E-2,-2.665565631E-2,-1.258122003E-1,1.291716919E-1
1.893157375E0,1.754969602E-2,-3.060950699E-2,-1.130904132E-1,1.184667688E-1
1.903106375E0,1.763893001E-2,-2.823804991E-2,-1.246187836E-1,1.289897691E-1
1.913056375E0,1.823814170E-2,-3.012815324E-2,-1.192299896E-1,1.243226683E-1
1.923005375E0,1.725916249E-2,-3.575125608E-2,-1.186324042E-1,1.250986744E-1
1.932954375E0,1.742992859E-2,-3.206153509E-2,-1.267202729E-1,1.318702848E-1
1.942904375E0,1.299979479E-2,-2.412099796E-2,-1.292643964E-1,1.321366769E-1
1.952853375E0,1.945883020E-2,-2.923352011E-2,-1.247766584E-1,1.296243004E-1
1.962803375E0,9.661829509E-3,-2.689138133E-2,-1.234312141E-1,1.266955483E-1
1.972752375E0,2.048265939E-2,-2.677794535E-2,-1.235832417E-1,1.280992401E-1
1.982701375E0,1.679013357E-2,-2.709394167E-2,-1.238820344E-1,1.279169602E-1
1.992651375E0,1.832586821E-2,-2.969488369E-2,-1.259747529E-1,1.307182540E-1
2.002600375E0,1.285778968E-2,-2.336820549E-2,-1.202877510E-1,1.232093292E-1
2.012549375E0,9.346344816E-3,-2.970051164E-2,-1.226862788E-1,1.265756594E-1
2.022499375E0,1.802802566E-2,-3.008285559E-2,-1.150562471E-1,1.202827000E-1
2.032448375E0,1.933937341E-2,-2.908278071E-2,-1.312249678E-1,1.357932682E-1
2.042398375E0,2.266303129E-2,-2.183966110E-2,-1.243398714E-1,1.282614026E-1
2.052347375E0,2.071155961E-2,-2.852711250E-2,-1.161075765E-1,1.213413951E-1
2.062296375E0,1.582044594E-2,-2.952025294E-2,-1.250906539E-1,1.294967318E-1
2.072246375E0,1.706495270E-2,-2.708637684E-2,-1.249421346E-1,1.289783758E-1
2.082195375E0,1.531836198E-2,-2.432973443E-2,-1.203017843E-1,1.236895610E-1
2.092144375E0,1.576121547E-2,-2.447603359E-2,-1.225471151E-1,1.259574831E-1
2.102094375E0,1.604973902E-2,-1.905686153E-2,-1.203000301E-1,1.228529826E-1
2.112043375E0,8.322725762E-3,-2.164206175E-2,-1.262869942E-1,1.283980199E-1
2.121993375E0,1.254183903E-2,-2.463579048E-2,-1.182049727E-1,1.213945447E-1
2.131942375E0,1.843289967E-2,-3.205940634E-2,-1.131167257E-1,1.190082810E-1
2.141891375E0,1.593062941E-2,-3.036396048E-2,-1.252397579E-1,1.298489584E-1
2.151841375E0,1.653313930E-2,-2.878614415E-2,-1.330247408E-1,1.371042248E-1
2.161790375E0,1.415638318E-2,-3.051250717E-2,-1.234452474E-1,1.279458690E-1
2.171739375E0,5.812123222E-3,-2.806679045E-2,-1.216495675E-1,1.249805696E-1
2.181689375E0,1.489708836E-2,-2.545476613E-2,-1.249438888E-1,1.283777384E-1
2.191638375E0,1.382136513E-2,-2.528758144E-2,-1.312331539E-1,1.343600856E-1
2.201588375E0,1.327116041E-2,-2.287166725E-2,-1.240492648E-1,1.268363393E-1
2.211537375E0,7.391191218E-3,-2.157425232E-2,-1.247971237E-1,1.268637070E-1
2.221486375E0,1.023853856E-2,-2.913041725E-2,-1.230002743E-1,1.268167038E-1
2.231436375E0,9.187684273E-3,-3.533557386E-2,-1.325815219E-1,1.375168217E-1
2.241385375E0,1.523281904E-2,-2.165583012E-2,-1.212051791E-1,1.240633274E-1
2.251335375E0,1.077062605E-2,-2.197146099E-2,-1.252461898E-1,1.276141040E-1
2.261284375E0,1.428669387E-2,-3.633761303E-2,-1.268921810E-1,1.327635392E-1
2.271233375E0,1.162875976E-2,-3.118215040E-2,-1.204543966E-1,1.249672606E-1
2.281183375E0,1.216046353E-2,-3.499111804E-2,-1.185066891E-1,1.241615503E-1
2.291132375E0,9.874585932E-3,-2.701494031E-2,-1.152117831E-1,1.187479238E-1
2.301081375E0,1.072971381E-2,-2.579443454E-2,-1.214992940E-1,1.246697961E-1
2.311031375E0,1.892946532E-2,-2.269731059E-2,-1.289831454E-1,1.323259020E-1
2.320980375E0,1.079469100E-2,-2.522344479E-2,-1.288340414E-1,1.317230342E-1
2.330930375E0,1.554049222E-2,-2.639808646E-2,-1.339263815E-1,1.373850120E-1
2.340879375E0,1.459921841E-2,-3.479143563E-2,-1.234499252E-1,1.290870450E-1
2.350828375E0,1.472222007E-2,-3.025037832E-2,-1.262951803E-1,1.306992797E-1
2.360778375E0,1.646979751E-2,-3.062406108E-2,-1.233025753E-1,1.281117186E-1
2.370727375E0,1.416058587E-2,-2.287150280E-2,-1.274938595E-1,1.303008521E-1
2.380676375E0,1.708299684E-2,-2.523830951E-2,-1.256987643E-1,1.293405598E-1
2.390626375E0,1.814860621E-2,-2.635677223E-2,-1.318365866E-1,1.356647962E-1
2.400575375E0,2.013040119E-2,-2.003238724E-2,-1.352794272E-1,1.382282641E-1
2.410525375E0,3.343200367E-3,-2.563555473E-2,-1.171670920E-1,1.199853578E-1
2.420474375E0,1.774360430E-2,-2.088132072E-2,-1.295924252E-1,1.324577734E-1
2.430423375E0,1.694676585E-2,-2.697604719E-2,-1.331861240E-1,1.369432131E-1
2.440373375E0,1.122723877E-2,-3.275776489E-2,-1.294468296E-1,1.339985214E-1
2.450322375E0,8.081783932E-3,-3.178658805E-2,-1.363342649E-1,1.402238717E-1
2.460270750E0,8.704293128E-3,-3.354232418E-2,-1.294474143E-1,1.340055420E-1
2.470220750E0,2.174691877E-2,-2.674055058E-2,-1.309448862E-1,1.354051282E-1
2.480169750E0,1.848159601E-2,-2.509874378E-2,-1.173226279E-1,1.213924024E-1
2.490119750E0,1.454631024E-2,-2.814632172E-2,-1.222623557E-1,1.263008083E-1
2.500068750E0,9.528010497E-3,-3.175767174E-2,-1.313939524E-1,1.355127426E-1
2.510017750E0,1.280391307E-2,-2.558856687E-2,-1.215168357E-1,1.248401230E-1
2.519967750E0,1.310664352E-2,-2.655436244E-2,-1.222658640E-1,1.258008735E-1
2.529916750E0,1.514775119E-2,-2.913081011E-2,-1.291521299E-1,1.332603884E-1
2.539865750E0,1.417355938E-2,-3.082329581E-2,-1.307992905E-1,1.351274204E-1
2.549815750E0,1.396345248E-2,-3.117718941E-2,-1.293035728E-1,1.337400803E-1
2.559764750E0,1.202195761E-2,-3.062146638E-2,-1.243632603E-1,1.286406708E-1
2.569714750E0,1.783888651E-2,-2.955286944E-2,-1.317003465E-1,1.361491066E-1
2.579663750E0,1.391474700E-2,-2.244056300E-2,-1.239200413E-1,1.267019167E-1
2.589612750E0,1.290903504E-2,-2.624445087E-2,-1.206274742E-1,1.241225278E-1
2.599562750E0,1.486451754E-2,-2.638161376E-2,-1.261682957E-1,1.297512323E-1
2.609511750E0,1.811251793E-2,-2.777574529E-2,-1.113508666E-1,1.161833500E-1
2.619460750E0,1.794366131E-2,-2.294687706E-2,-1.284147960E-1,1.316772341E-1
2.629410750E0,1.518593168E-2,-2.595954529E-2,-1.161391515E-1,1.199700505E-1
2.639359750E0,1.854900344E-2,-2.397476275E-2,-1.221278697E-1,1.258335064E-1
2.649309750E0,1.641649649E-2,-2.719108768E-2,-1.177863121E-1,1.219937372E-1
2.659258750E0,1.370770988E-2,-2.657309180E-2,-1.167402452E-1,1.205085697E-1
2.669207750E0,2.015388141E-2,-2.614355899E-2,-1.215314537E-1,1.259347405E-1
2.679157750E0,1.078859710E-2,-2.904386932E-2,-1.267705590E-1,1.305017808E-1
2.689106750E0,1.430945233E-2,-3.348592596E-2,-1.312623900E-1,1.362199791E-1
2.699055750E0,1.592238849E-2,-3.256460577E-2,-1.180921215E-1,1.235302601E-1
2.709005750E0,1.032007981E-2,-2.831279377E-2,-1.139002526E-1,1.178192933E-1
2.718954750E0,2.060942519E-2,-2.381971104E-2,-1.186902916E-1,1.227986660E-1
2.728904750E0,2.116493809E-2,-2.550280466E-2,-1.249789721E-1,1.292984575E-1
2.738853750E0,2.650971347E-2,-3.091418347E-2,-1.309682751E-1,1.371537120E-1
2.748802750E0,9.470040835E-3,-3.504676709E-2,-1.219875365E-1,1.272749647E-1
2.758752750E0,2.292156044E-2,-2.869286279E-2,-1.230365270E-1,1.284004100E-1
2.768701750E0,8.174635889E-3,-2.539285873E-2,-1.237843859E-1,1.266262064E-1
2.778650750E0,1.434977070E-2,-2.186679583E-2,-1.216904980E-1,1.244694741E-1
2.788600750E0,1.703141344E-2,-1.588362328E-2,-1.188469970E-1,1.211072551E-1
2.798549750E0,1.188127725E-2,-2.254291669E-2,-1.165999120E-1,1.193519473E-1
2.808499750E0,1.837741507E-2,-1.809935256E-2,-1.174980444E-1,1.202959117E-1
2.818448750E0,1.500191798E-2,-2.608539747E-2,-1.318664074E-1,1.352562564E-1
2.828397750E0,6.600437528E-3,-2.578898018E-2,-1.308185863E-1,1.334995873E-1
2.838347750E0,1.087535516E-2,-3.036541315E-2,-1.182441491E-1,1.225643115E-1
2.848296750E0,1.065484204E-2,-2.612191516E-2,-1.260279626E-1,1.291469220E-1
2.858245750E0,1.412390373E-2,-1.863048987E-2,-1.267775756E-1,1.289152182E-1
2.868195750E0,2.060474742E-2,-1.900169671E-2,-1.146562976E-1,1.180325661E-1
2.878144750E0,1.366000026E-2,-2.090968885E-2,-1.275306970E-1,1.299534123E-1
2.888094750E0,1.619891611E-2,-2.914022047E-2,-1.182482421E-1,1.228584718E-1
2.898043750E0,2.320522349E-2,-1.753474907E-2,-1.191457897E-1,1.226444823E-1
2.907992750E0,7.050755359E-3,-1.773477866E-2,-1.306729907E-1,1.320593276E-1
2.917942750E0,1.162822986E-2,-2.840586500E-2,-1.243895727E-1,1.281205475E-1
2.927891750E0,9.492899794E-3,-2.954078215E-2,-1.113678235E-1,1.156095371E-1
2.937840750E0,6.553349169E-3,-2.413965424E-2,-1.206473547E-1,1.232130411E-1
2.947790750E0,1.383723484E-2,-2.270869439E-2,-1.242387146E-1,1.270527924E-1
2.957739750E0,8.893021150E-3,-2.595832103E-2,-1.209443933E-1,1.240180089E-1
2.967689750E0,7.563674944E-3,-2.240115825E-2,-1.311238110E-1,1.332384137E-1
2.977638750E0,2.296552420E-2,-2.268557047E-2,-1.338164538E-1,1.376549807E-1
2.987587750E0,2.890050290E-3,-2.160075665E-2,-1.195966101E-1,1.215660077E-1
2.997537750E0,1.649300365E-2,-3.085339984E-2,-1.185511279E-1,1.236055071E-1
3.007486750E0,1.678476144E-2,-3.364656908E-2,-1.222939306E-1,1.279438365E-1
3.017435750E0,1.601903200E-2,-2.502787370E-2,-1.258876294E-1,1.293472036E-1
3.027385750E0,1.916385644E-2,-2.043313164E-2,-1.172068530E-1,1.205081435E-1
3.037334750E0,1.408086274E-2,-3.020353664E-2,-1.200538623E-1,1.245931546E-1
3.047284750E0,1.189288032E-2,-2.869723907E-2,-1.267875159E-1,1.305375284E-1
3.057233750E0,1.033975021E-2,-2.399436920E-2,-1.194539380E-1,1.222778945E-1
3.067182750E0,6.436925624E-3,-2.184237457E-2,-1.188528442E-1,1.210145525E-1
3.077132750E0,1.300153068E-2,-3.344911591E-2,-1.278335828E-1,1.327754045E-1
3.087081750E0,1.821984175E-2,-3.128097748E-2,-1.248409778E-1,1.299835833E-1
3.097031750E0,1.431884442E-2,-1.825164512E-2,-1.263378650E-1,1.284500214E-1
3.106980750E0,6.538073318E-3,-2.344873262E-2,-1.266389966E-1,1.289574539E-1
3.116929750E0,8.223131234E-3,-2.632855942E-2,-1.240972120E-1,1.271256502E-1
3.126879750E0,7.637971127E-3,-3.576375450E-2,-1.347262806E-1,1.396014162E-1
3.136828750E0,1.111939419E-2,-2.833063692E-2,-1.270933253E-1,1.306865687E-1
3.146777750E0,2.069648475E-2,-2.546912835E-2,-1.128728968E-1,1.175470621E-1
3.156727750E0,2.321212138E-2,-1.825648734E-2,-1.236510694E-1,1.271286312E-1
3.166676750E0,1.373700991E-2,-2.243658872E-2,-1.160186988E-1,1.189640468E-1
3.176625750E0,9.008521931E-3,-2.582026279E-2,-1.154216981E-1,1.186170638E-1
3.186575750E0,3.178144433E-4,-2.651008805E-2,-1.299420887E-1,1.326191245E-1
3.196524750E0,1.061826954E-2,-2.726718371E-2,-1.244041908E-1,1.277992552E-1
3.206474750E0,6.773131387E-3,-2.291795162E-2,-1.244053602E-1,1.266799174E-1
3.216423750E0,1.189884631E-2,-2.064491048E-2,-1.233575392E-1,1.256378818E-1
3.226372750E0,1.855443039E-2,-1.528022717E-2,-1.272500306E-1,1.295002800E-1
3.236322750E0,7.506363094E-3,-2.626963045E-2,-1.305437672E-1,1.333720890E-1
3.246271750E0,1.719711805E-2,-2.688470271E-2,-1.143779701E-1,1.187469922E-1
3.256220750E0,1.580891596E-2,-3.338015531E-2,-1.250064540E-1,1.303486484E-1
3.266170750E0,1.625324953E-2,-2.811696687E-2,-1.338369191E-1,1.377209238E-1
3.276119750E0,1.580963773E-2,-1.992438734E-2,-1.305449367E-1,1.329996479E-1
3.286069750E0,7.578557935E-3,-2.361332260E-2,-1.281493324E-1,1.305269127E-1
3.296018750E0,1.108515143E-2,-2.114636404E-2,-1.247082460E-1,1.269732094E-1
3.305967750E0,1.713347476E-2,-2.266360687E-2,-1.185715932E-1,1.219279203E-1
3.315917750E0,1.525273612E-2,-1.980103849E-2,-1.245585573E-1,1.270415730E-1
3.325866750E0,1.166004237E-2,-2.244081882E-2,-1.256052089E-1,1.281257797E-1
3.335815750E0,1.544785039E-2,-2.232961209E-2,-1.315921730E-1,1.343642350E-1
3.345765750E0,1.254186644E-2,-2.721637689E-2,-1.305455214E-1,1.339408927E-1
3.355714750E0,1.743710057E-2,-2.903699884E-2,-1.227628773E-1,1.273496126E-1
3.365664750E0,1.450935401E-2,-2.282329068E-2,-1.175243568E-1,1.205960132E-1
3.375613750E0,1.597659401E-2,-2.822494850E-2,-1.369838905E-1,1.407710394E-1
3.385562750E0,9.896805352E-3,-2.406493778E-2,-1.329422951E-1,1.354648361E-1
3.395512750E0,1.450015378E-2,-2.425346481E-2,-1.161771584E-1,1.195642804E-1
3.405461750E0,1.162181620E-2,-2.673740770E-2,-1.262074721E-1,1.295310063E-1
3.415410750E0,1.200392260E-2,-2.424108515E-2,-1.350379372E-1,1.377206188E-1
3.425360750E0,1.112262843E-2,-2.477788696E-2,-1.215665370E-1,1.245635559E-1
3.435309750E0,1.170675614E-2,-1.618697500E-2,-1.235113209E-1,1.251163966E-1
3.445259750E0,2.099482066E-2,-1.925262448E-2,-1.277049440E-1,1.308434132E-1
3.455208917E0,2.275287741E-2,-2.281564361E-2,-1.211192250E-1,1.253320138E-1
3.465157917E0,9.760062732E-3,-2.159575911E-2,-1.330954921E-1,1.351889258E-1
3.475107917E0,3.482656460E-3,-2.165392977E-2,-1.232172060E-1,1.251539109E-1
3.485056917E0,7.787833437E-3,-1.821435998E-2,-1.280078298E-1,1.295315319E-1
3.495005917E0,2.080625709E-2,-2.993858468E-2,-1.251631594E-1,1.303650093E-1
3.504955917E0,2.010356795E-2,-1.848662096E-2,-1.167811757E-1,1.199322792E-1
3.514904917E0,8.540762952E-3,-1.673913488E-2,-1.280095840E-1,1.293815939E-1
3.524854917E0,5.069243610E-3,-1.922774641E-2,-1.351952273E-1,1.366497455E-1
3.534803917E0,1.267972369E-2,-2.404967107E-2,-1.238194692E-1,1.267691722E-1
3.544752917E0,1.286451397E-3,-1.819917549E-2,-1.263659316E-1,1.276762062E-1
3.554702917E0,1.323843428E-2,-2.414999650E-2,-1.353478396E-1,1.381213820E-1
3.564651917E0,1.389554255E-2,-2.759407961E-2,-1.262179971E-1,1.299442269E-1
3.574600917E0,5.192729495E-3,-2.538622580E-2,-1.220261282E-1,1.247469473E-1
3.584550917E0,1.050035678E-2,-2.191522722E-2,-1.354963589E-1,1.376582651E-1
3.594499917E0,3.750221394E-3,-2.473789749E-2,-1.241182619E-1,1.266150492E-1
3.604449917E0,1.525749612E-2,-2.678135318E-2,-1.272646487E-1,1.309439684E-1
3.614398917E0,6.946574422E-3,-2.636229968E-2,-1.254689687E-1,1.283966038E-1
3.624347917E0,8.430679981E-3,-2.190417233E-2,-1.260683084E-1,1.282345020E-1
3.634297917E0,1.056558064E-2,-2.604145199E-2,-1.242720437E-1,1.274100842E-1
3.644246917E0,1.408501974E-2,-2.965421814E-2,-1.229236758E-1,1.272320341E-1
3.654195917E0,1.783127599E-2,-2.190766239E-2,-1.224740249E-1,1.256892471E-1
3.664145917E0,1.420641342E-2,-1.979772203E-2,-1.173869473E-1,1.198893964E-1
3.674094917E0,1.088374226E-2,-2.418613960E-2,-1.149930972E-1,1.180120231E-1
3.684044917E0,1.642025149E-2,-2.616129250E-2,-1.314571023E-1,1.350370602E-1
3.693993917E0,1.056277581E-2,-2.365746908E-2,-1.278657424E-1,1.304641566E-1
3.703942917E0,1.090578809E-2,-2.218312106E-2,-1.193340701E-1,1.218673351E-1
3.713892917E0,1.481470658E-2,-2.117396473E-2,-1.229277688E-1,1.256146833E-1
3.723841917E0,1.404200616E-2,-2.613071339E-2,-1.278692508E-1,1.312651417E-1
3.733790917E0,1.021553342E-2,-1.751128712E-2,-1.194872671E-1,1.211949228E-1
3.743740917E0,1.135054193E-2,-1.666442757E-2,-1.214332205E-1,1.230957554E-1
3.753689917E0,1.486745942E-2,-2.355342519E-2,-1.248754764E-1,1.279440885E-1
3.763639917E0,8.130087415E-3,-2.394970195E-2,-1.281680435E-1,1.306397103E-1
3.773588917E0,1.419967085E-2,-3.077401475E-2,-1.236756277E-1,1.282354535E-1
3.783537917E0,1.694566950E-2,-2.605648116E-2,-1.197860599E-1,1.237529638E-1
3.793487917E0,1.270247301E-2,-2.913377940E-2,-1.257730240E-1,1.297265720E-1
3.803436917E0,8.054566970E-3,-1.744239961E-2,-1.266711563E-1,1.281198470E-1
3.813385917E0,5.888438523E-3,-1.256493554E-2,-1.197854751E-1,1.205865306E-1
3.823335917E0,8.485762579E-3,-3.062642737E-2,-1.236785513E-1,1.276963988E-1
3.833284917E0,1.052996744E-2,-2.725288544E-2,-1.163438040E-1,1.199561616E-1
3.843233917E0,1.950447503E-2,-2.080358930E-2,-1.262261832E-1,1.294073537E-1
3.853183917E0,1.130687968E-2,-2.487108610E-2,-1.301175052E-1,1.329548104E-1
3.863132917E0,1.864537287E-2,-2.406368611E-2,-1.203865689E-1,1.241758305E-1
3.873082917E0,8.334456738E-3,-2.364855208E-2,-1.229324466E-1,1.254635549E-1
3.883031917E0,1.058064636E-2,-1.613614990E-2,-1.370043558E-1,1.383564921E-1
3.892980917E0,1.595449336E-2,-1.567162517E-2,-1.214355594E-1,1.234776934E-1
3.902930917E0,1.172647222E-2,-1.563602110E-2,-1.350601566E-1,1.364669968E-1
3.912879917E0,9.462823179E-3,-2.322589888E-2,-1.227880204E-1,1.253231238E-1
3.922828917E0,6.104822047E-3,-2.685855470E-2,-1.250321817E-1,1.280300640E-1
3.932778917E0,1.382612513E-2,-2.265951382E-2,-1.193445951E-1,1.222609818E-1
3.942727917E0,1.340452261E-2,-2.269354644E-2,-1.374563456E-1,1.399604416E-1
3.952677917E0,1.457138018E-2,-1.988261629E-2,-1.182944351E-1,1.208354954E-1
3.962626917E0,2.006853947E-2,-2.023176815E-2,-1.239843607E-1,1.272171074E-1
3.972575917E0,1.224268086E-2,-2.746690267E-2,-1.370072794E-1,1.402687014E-1
3.982525917E0,1.330030513E-2,-2.369088043E-2,-1.196445572E-1,1.226905702E-1
3.992474917E0,1.519074650E-2,-2.671181699E-2,-1.203930008E-1,1.242527851E-1
4.002423917E0,5.654604714E-3,-2.962686413E-2,-1.259303141E-1,1.294919674E-1
4.012373917E0,6.802394874E-3,-1.774042488E-2,-1.238375956E-1,1.252866526E-1
4.022322917E0,1.514132839E-2,-2.399199377E-2,-1.386573637E-1,1.415299971E-1
4.032272917E0,6.107900972E-3,-3.061075866E-2,-1.220401615E-1,1.259687502E-1
4.042221917E0,1.412151916E-2,-2.160907980E-2,-1.194948685E-1,1.222513527E-1
4.052170917E0,2.675366113E-3,-2.235607987E-2,-1.178477079E-1,1.199793071E-1
4.062120917E0,1.053703892E-2,-2.902729612E-2,-1.307209378E-1,1.343189365E-1
4.072069917E0,1.710111408E-2,-1.993664822E-2,-1.310197306E-1,1.336266734E-1
4.082018917E0,1.206768466E-2,-2.268684955E-2,-1.217396146E-1,1.244220878E-1
4.091968917E0,4.952929700E-3,-2.169049314E-2,-1.220378226E-1,1.240493416E-1
4.101917917E0,2.614226164E-3,-2.165855273E-2,-1.208379740E-1,1.227914616E-1
4.111867917E0,1.470149900E-2,-3.004087441E-2,-1.184435391E-1,1.230750185E-1
4.121816917E0,6.990931034E-3,-2.300210584E-2,-1.256291825E-1,1.279088014E-1
4.131765917E0,1.680673418E-2,-1.754447007E-2,-1.233815128E-1,1.257508347E-1
4.141715917E0,1.570738454E-2,-2.909483146E-2,-1.295158267E-1,1.336696694E-1
4.151664917E0,1.963328736E-2,-1.769705499E-2,-1.226283914E-1,1.254447054E-1
4.161613917E0,1.511925515E-2,-2.026613882E-2,-1.244246560E-1,1.269677254E-1
4.171563917E0,9.913945002E-3,-2.402753388E-2,-1.215799856E-1,1.243273968E-1
4.181512917E0,1.656700747E-2,-1.622911150E-2,-1.241246939E-1,1.262726789E-1
4.191461917E0,1.077638190E-2,-2.192418991E-2,-1.316102993E-1,1.338584006E-1
4.201411917E0,5.821634084E-3,-3.681941447E-2,-1.209835696E-1,1.265961485E-1
4.211360917E0,1.504274799E-2,-2.977454287E-2,-1.265208828E-1,1.308447227E-1
4.221310917E0,1.287200572E-2,-2.648084284E-2,-1.251742691E-1,1.285905176E-1
4.231259917E0,2.101949774E-2,-1.741814280E-2,-1.221816641E-1,1.251941294E-1
4.241208917E0,6.975801364E-3,-2.243661613E-2,-1.257730240E-1,1.279488847E-1
4.251158917E0,1.287576986E-2,-2.731125710E-2,-1.185873806E-1,1.223709813E-1
4.261107917E0,7.869347278E-3,-2.224937732E-2,-1.269687796E-1,1.291434567E-1
4.271056917E0,2.876154017E-3,-1.892130663E-2,-1.193375784E-1,1.208625075E-1
4.281006917E0,1.208425786E-2,-1.690348732E-2,-1.203853995E-1,1.221654680E-1
4.290955917E0,5.780959390E-3,-2.281834795E-2,-1.218805325E-1,1.241328349E-1
4.300905917E0,8.308838625E-3,-3.246282768E-2,-1.149977750E-1,1.197804668E-1
4.310854917E0,9.127567587E-3,-1.382500137E-2,-1.203848147E-1,1.215193267E-1
4.320803917E0,1.192590795E-2,-2.178596721E-2,-1.355016214E-1,1.377590107E-1
4.330753917E0,1.546792279E-2,-3.279506830E-2,-1.188873428E-1,1.242938994E-1
4.340702917E0,1.338193774E-2,-2.120971497E-2,-1.274207693E-1,1.298652406E-1
4.350651917E0,1.415981842E-2,-2.241663510E-2,-1.244264102E-1,1.272200359E-1
4.360601917E0,1.592733121E-2,-2.307303074E-2,-1.323593277E-1,1.352961058E-1
4.370550917E0,1.311937949E-2,-2.446950115E-2,-1.239773440E-1,1.270482445E-1
4.380500917E0,7.675740486E-3,-1.981854360E-2,-1.301151663E-1,1.318394788E-1
4.390449917E0,1.479220393E-2,-2.427997828E-2,-1.175424832E-1,1.209320553E-1
4.400398917E0,1.233743316E-2,-3.155304660E-2,-1.173933792E-1,1.221843382E-1
4.410348917E0,1.293617891E-2,-2.683399639E-2,-1.257765323E-1,1.292561185E-1
4.420297917E0,1.771944799E-2,-1.787786186E-2,-1.296696085E-1,1.320901364E-1
4.430246917E0,1.735150281E-2,-1.359771827E-2,-1.247298807E-1,1.266630006E-1
4.440196917E0,1.028515183E-2,-1.490280767E-2,-1.163449734E-1,1.177456193E-1
4.450145917E0,1.030738039E-2,-1.966911069E-2,-1.335580069E-1,1.353914961E-1
4.460095792E0,4.420239218E-3,-2.607154688E-2,-1.224804568E-1,1.253025394E-1
4.470044792E0,1.102077724E-2,-2.464879140E-2,-1.275704581E-1,1.303964808E-1
4.479993792E0,1.114220747E-2,-1.347191177E-2,-1.178412759E-1,1.191310518E-1
4.489943792E0,1.340388307E-2,-2.317426066E-2,-1.266729105E-1,1.294709878E-1
4.499892792E0,1.858490900E-2,-2.537601144E-2,-1.287697220E-1,1.325555812E-1
4.509841792E0,1.407487848E-2,-2.122382138E-2,-1.182909268E-1,1.210012238E-1
4.519791792E0,8.323008986E-3,-2.661620588E-2,-1.247281265E-1,1.278076697E-1
4.529740792E0,7.398262694E-3,-3.033274183E-2,-1.211344278E-1,1.250934016E-1
4.539689792E0,1.767472593E-2,-2.321329082E-2,-1.244258255E-1,1.278007780E-1
4.549639792E0,1.394732695E-2,-2.601428071E-2,-1.274201846E-1,1.307943966E-1
4.559588792E0,1.439880509E-2,-1.843031410E-2,-1.266717410E-1,1.288127790E-1
4.569538792E0,6.217718991E-3,-1.864942024E-2,-1.265220523E-1,1.280401914E-1
4.579487792E0,9.764685687E-3,-2.086329485E-2,-1.149954361E-1,1.172799065E-1
4.589436792E0,1.081917621E-2,-2.512270823E-2,-1.242737979E-1,1.272485044E-1
4.599386792E0,8.312639315E-3,-2.484480103E-2,-1.190323538E-1,1.218813577E-1
4.609335792E0,9.355426272E-3,-2.182196413E-2,-1.229230911E-1,1.251950815E-1
4.619284792E0,5.675289240E-3,-1.785467399E-2,-1.314588565E-1,1.327871576E-1
4.629234792E0,1.443930619E-2,-2.106456698E-2,-1.215834939E-1,1.242366916E-1
4.639183792E0,1.641262271E-2,-2.443876673E-2,-1.226330692E-1,1.261169979E-1
4.649133792E0,1.317422454E-2,-2.693110585E-2,-1.292211270E-1,1.326534746E-1
4.659082792E0,5.820062645E-3,-2.613181888E-2,-1.247328043E-1,1.275735770E-1
4.669031792E0,1.070524687E-2,-2.413821070E-2,-1.260835111E-1,1.288188934E-1
4.678981792E0,2.066945052E-2,-2.559694483E-2,-1.220436698E-1,1.264005028E-1
4.688930792E0,1.095418294E-2,-1.792351582E-2,-1.253368217E-1,1.270848748E-1
4.698879792E0,2.813515719E-2,-2.618912159E-2,-1.205438590E-1,1.265238282E-1
4.708829792E0,1.663061421E-2,-2.449690998E-2,-1.170945865E-1,1.207800402E-1
4.718778792E0,1.111558436E-2,-1.780581320E-2,-1.224781179E-1,1.242638023E-1
4.728728792E0,2.227398131E-2,-2.092414244E-2,-1.205269021E-1,1.243409993E-1
4.738677792E0,9.736253601E-3,-2.873296190E-2,-1.330972463E-1,1.365110058E-1
4.748626792E0,1.311955308E-2,-2.259486554E-2,-1.278558022E-1,1.304981102E-1
4.758576792E0,9.441526523E-3,-2.091063903E-2,-1.324938136E-1,1.344656384E-1
4.768525792E0,1.137721072E-2,-1.684614806E-2,-1.274032277E-1,1.290147901E-1
4.778474792E0,1.729248248E-2,-1.682952918E-2,-1.218635756E-1,1.242296022E-1
4.788424792E0,1.736008178E-2,-2.535424883E-2,-1.281481630E-1,1.317807347E-1
4.798373792E0,2.045350553E-2,-2.925306260E-2,-1.230599159E-1,1.281320821E-1
4.808322792E0,1.679460120E-2,-2.796132130E-2,-1.303952479E-1,1.344128521E-1
4.818272792E0,7.651310088E-3,-2.226927613E-2,-1.241065675E-1,1.263206369E-1
4.828221792E0,1.247959360E-2,-2.293840773E-2,-1.185669154E-1,1.214085015E-1
4.838171792E0,1.038181362E-2,-2.553691037E-2,-1.276973426E-1,1.306389190E-1
4.848120792E0,4.350465490E-3,-2.730486170E-2,-1.276950037E-1,1.306541083E-1
4.858069792E0,1.206539146E-2,-2.869848160E-2,-1.359267139E-1,1.394462193E-1
4.868019792E0,6.215434922E-3,-2.974960084E-2,-1.181108326E-1,1.219583501E-1
4.877968792E0,1.880062558E-2,-2.276592401E-2,-1.217027771E-1,1.252330499E-1
4.887917792E0,1.512245284E-2,-1.936530216E-2,-1.302338648E-1,1.325313663E-1
4.897867792E0,2.093189914E-2,-1.819653511E-2,-1.205005896E-1,1.236513259E-1
4.907816792E0,1.844817552E-2,-1.769990550E-2,-1.182529199E-1,1.209850193E-1
4.917765792E0,1.087664338E-2,-2.174343785E-2,-1.303806299E-1,1.326280027E-1
4.927715792E0,1.617672410E-2,-2.342623911E-2,-1.342742908E-1,1.372590990E-1
4.937664792E0,1.579379543E-2,-2.465219010E-2,-1.202058899E-1,1.237199678E-1
4.947614792E0,1.444842420E-2,-2.070243247E-2,-1.194580311E-1,1.220965555E-1
4.957563792E0,1.199866924E-2,-1.892605749E-2,-1.214028150E-1,1.234536642E-1
4.967512792E0,7.142675417E-3,-2.828358511E-2,-1.312828553E-1,1.344848210E-1
4.977462792E0,6.577642523E-3,-1.968442309E-2,-1.296351099E-1,1.312859612E-1
4.987411792E0,1.373171087E-2,-2.491494935E-2,-1.190054566E-1,1.223585439E-1
4.997360792E0,6.203566901E-3,-2.742710506E-2,-1.249924207E-1,1.281164921E-1
5.007310792E0,1.141306146E-2,-2.134251986E-2,-1.261881763E-1,1.284881977E-1
5.017259792E0,2.046894584E-2,-2.266561685E-2,-1.190031177E-1,1.228594724E-1
5.027209792E0,2.040811652E-2,-2.248426180E-2,-1.170530713E-1,1.209274772E-1
5.037158792E0,6.902665487E-3,-1.995823723E-2,-1.282779711E-1,1.300046765E-1
5.047107792E0,1.261970750E-2,-1.611330008E-2,-1.239346594E-1,1.256132766E-1
5.057057792E0,2.121759958E-2,-2.633151043E-2,-1.124004418E-1,1.173771455E-1
5.067006792E0,1.168145780E-2,-2.704650613E-2,-1.369517308E-1,1.400847834E-1
5.076955792E0,1.736386419E-2,-2.247845113E-2,-1.666012073E-1,1.690051680E-1
5.086905792E0,1.139390269E-2,-2.105380445E-2,-8.816782594E-2,9.135999798E-2
5.096854792E0,1.830476342E-2,-1.763893914E-2,-1.110748780E-1,1.139465886E-1
5.106803792E0,1.639717326E-2,-2.310826935E-2,-1.350285816E-1,1.379694794E-1
5.116753792E0,8.452278133E-3,-2.438940343E-2,-1.233516920E-1,1.260235054E-1
5.126702792E0,1.387596351E-2,-1.465007091E-2,-1.173623890E-1,1.190844124E-1
5.136652792E0,1.207652858E-2,-1.887430049E-2,-1.169127381E-1,1.190406237E-1
5.146601792E0,1.149373476E-2,-1.950349744E-2,-1.233487684E-1,1.254089750E-1
5.156550792E0,1.312900912E-2,-2.723155224E-2,-1.203561634E-1,1.240948604E-1
5.166500792E0,9.882726353E-3,-2.678743794E-2,-1.242492396E-1,1.274876804E-1
5.176449792E0,1.759587988E-2,-2.640435395E-2,-1.185610682E-1,1.227335805E-1
5.186398792E0,1.451372115E-2,-1.629151225E-2,-1.260472584E-1,1.279217449E-1
5.196348792E0,7.454414237E-3,-1.539642231E-2,-1.291895521E-1,1.303171457E-1
5.206297792E0,2.610482119E-2,-3.223167993E-2,-1.224518055E-1,1.292856819E-1
5.216247792E0,1.151254635E-2,-2.532468385E-2,-1.266442591E-1,1.296635905E-1
5.226196792E0,2.432861980E-3,-1.545395343E-2,-1.288919288E-1,1.298378712E-1
5.236145792E0,2.996168118E-3,-1.685434330E-2,-1.275494081E-1,1.286930356E-1
5.246095792E0,1.482187855E-2,-2.520490729E-2,-1.160251307E-1,1.196528579E-1
5.256044792E0,8.469308149E-3,-2.512114593E-2,-1.107860255E-1,1.139137595E-1
5.265993792E0,6.838327842E-3,-1.974814860E-2,-1.247064918E-1,1.264454871E-1
5.275943792E0,1.771538235E-2,-2.363002371E-2,-1.182687074E-1,1.219003689E-1
5.285892792E0,9.724073119E-2,-7.539621874E-2,-1.122811586E-1,1.665755329E-1
5.295841792E0,6.182093002E-1,-3.895765535E-1,-1.265015870E-1,7.415896988E-1
5.305791792E0,4.871452039E-1,-3.186854591E-1,-1.380282032E-1,5.982663758E-1
5.315740792E0,-7.395922895E-2,-1.997351308E-2,-1.223114723E-1,1.443225728E-1
5.325690792E0,-4.630165223E-1,3.915051662E-2,-1.116853273E-1,4.779023700E-1
5.335639792E0,-6.262742186E-1,-1.548109182E-1,-1.179757619E-1,6.558232213E-1
5.345588792E0,-1.805020671E-1,-1.336208919E-1,-1.224634999E-1,2.557984515E-1
5.355538792E0,1.247400311E-1,-8.515976239E-3,-1.175226027E-1,1.715930050E-1
5.365487792E0,1.371574158E-1,1.119942247E-1,-1.350379372E-1,2.226883642E-1
5.375436792E0,6.852852691E-2,1.892003668E-1,-1.313027358E-1,2.402776441E-1
5.385386792E0,2.848937055E-3,1.561905870E-1,-1.259203738E-1,2.006478418E-1
5.395335792E0,-7.814436441E-2,2.051826345E-1,-1.263700247E-1,2.533295054E-1
5.405284792E0,1.305225528E-2,1.261375156E-1,-1.368453115E-1,1.865681471E-1
5.415234792E0,3.541378037E-2,-2.235778836E-2,-1.365435952E-1,1.428221269E-1
5.425183792E0,6.846587034E-3,-2.406678331E-2,-1.155848354E-1,1.182621663E-1
5.435133792E0,-3.889174079E-2,-1.029472208E-1,-1.182786477E-1,1.615566039E-1
5.445082792E0,-1.717042185E-1,-3.465393287E-1,-1.217179799E-1,4.054468049E-1
5.455032292E0,9.360225557E-2,-7.030480870E-1,-1.134804225E-1,7.182727902E-1
5.464982292E0,3.919173401E-1,-7.678250769E-1,-1.097311878E-1,8.690198408E-1
5.474931292E0,2.421848018E-1,-5.365489502E-1,-1.302326953E-1,6.029086242E-1
5.484880292E0,-1.162665842E-2,-2.853573349E-1,-1.270874780E-1,3.125943295E-1
5.494830292E0,-1.742237472E-1,2.135010296E-3,-1.110631835E-1,2.066240623E-1
5.504779292E0,-2.332831469E-1,2.110925615E-1,-9.817650497E-2,3.295750632E-1
5.514729292E0,-2.363833041E-1,2.412436925E-1,-1.095323825E-1,3.550674984E-1
5.524678292E0,-1.416528740E-1,2.672119812E-1,-9.722808659E-2,3.176807838E-1
5.534627292E0,-3.787841831E-2,2.798091495E-1,-9.779117346E-2,2.988160778E-1
5.544577292E0,-7.134726858E-3,2.377059808E-1,-1.510528761E-1,2.817303836E-1
5.554526292E0,3.133066054E-3,9.316116538E-2,-1.688500464E-1,1.928708298E-1
5.564475292E0,4.091202688E-2,-1.255798466E-1,-1.969985425E-1,2.371761320E-1
5.574425292E0,6.868360603E-2,-2.909647233E-1,-1.636372536E-1,3.408152854E-1
5.584374292E0,6.350800705E-2,-3.399919821E-1,-1.136605167E-1,3.640693998E-1
5.594323292E0,8.428027720E-2,-2.335586787E-1,-1.018427092E-1,2.683742889E-1
5.604273292E0,6.569221619E-2,-4.677534065E-2,-6.920355141E-2,1.062663225E-1
5.614222292E0,2.676236800E-2,2.037973195E-1,-7.606175065E-2,2.191687972E-1
5.624172292E0,2.736038284E-2,3.585549183E-1,-1.089593554E-1,3.757424133E-1
5.634121292E0,2.463962772E-2,4.035887115E-1,-1.054785079E-1,4.178716010E-1
5.644070292E0,-2.889164072E-2,3.831566031E-1,-1.527456450E-1,4.134911625E-1
5.654020292E0,3.989399009E-2,2.947666012E-1,-1.641102934E-1,3.397220453E-1
5.663969292E0,5.873430365E-2,-1.179051750E-2,-1.727998406E-1,1.828893644E-1
5.673918292E0,-4.468454992E-2,-8.784624735E-2,-1.334422320E-1,1.658930422E-1
5.683868292E0,-9.340619112E-2,-1.599092882E-1,-1.082939422E-1,2.145303590E-1
5.693817292E0,-5.793637798E-2,-1.794927098E-1,-8.671947062E-2,2.075922044E-1
5.703766292E0,2.169425911E-1,-4.226097040E-1,-7.680083871E-2,4.812082902E-1
5.713716292E0,4.232580871E-1,-7.146509363E-1,-7.749431849E-2,8.341934658E-1
5.723665292E0,1.386350255E-1,-4.586877189E-1,-1.226418400E-1,4.946262374E-1
5.733615292E0,-9.548436466E-2,-1.239068394E-1,-1.216852355E-1,1.981854316E-1
5.743564292E0,-1.363392167E-1,1.850077670E-1,-1.253719050E-1,2.617906997E-1
5.753513292E0,-1.915443146E-1,4.024867671E-1,-1.179781008E-1,4.610896382E-1
5.763463292E0,-1.039506761E-1,4.247792403E-1,-1.258490378E-1,4.550616731E-1
5.773412292E0,-2.288773796E-2,4.467033023E-1,-1.474971843E-1,4.709810062E-1
5.783361292E0,9.530638089E-2,3.509670597E-1,-1.462569898E-1,3.919850638E-1
5.793311292E0,8.121461858E-2,-3.882953189E-3,-1.221243614E-1,1.467148637E-1
5.803260292E0,3.028543420E-2,-1.013017504E-1,-1.000768501E-1,1.455837493E-1
5.813209292E0,2.110749468E-1,-4.023985107E-1,-1.004744607E-1,4.653733038E-1
5.823159292E0,2.098640250E-1,-5.858657192E-1,-1.323072875E-1,6.362285503E-1
5.833108292E0,-3.906434328E-2,-3.347756810E-1,-1.373534346E-1,3.639598130E-1
5.843058292E0,-1.731133610E-1,-5.801320491E-2,-1.341696256E-1,2.265728495E-1
5.853007292E0,-1.156697845E-1,1.925371353E-1,-7.078931630E-2,2.355019635E-1
5.862956292E0,-4.161393944E-2,3.127862763E-1,-5.902179480E-2,3.210148702E-1
5.872906292E0,4.350910426E-2,3.075942412E-1,-1.253947091E-1,3.350090931E-1
5.882855292E0,1.101530553E-1,4.836615059E-1,-1.543600613E-1,5.195085912E-1
5.892804292E0,9.890850328E-2,2.020406149E-1,-1.791662890E-1,2.875827901E-1
5.902754292E0,-4.038032312E-3,-7.014648803E-2,-1.790060753E-1,1.923018733E-1
5.912703292E0,-7.592262346E-3,-1.782443292E-2,-1.555090392E-1,1.567112444E-1
5.922652292E0,1.016055132E-2,-2.558195220E-2,-9.981840312E-2,1.035441292E-1
5.932602292E0,1.538720381E-2,-2.387405360E-2,-8.811286211E-2,9.257760499E-2
5.942551292E0,1.864019260E-2,-3.398535127E-2,-1.214589483E-1,1.274940665E-1
5.952501292E0,5.793993199E-2,-5.629452551E-2,-1.142300355E-1,1.399092933E-1
5.962450292E0,3.242518622E-1,-2.282372922E-1,-1.101416624E-1,4.115370184E-1
5.972399292E0,3.449851388E-1,-2.529726224E-1,-1.993567246E-1,4.719671570E-1
5.982349292E0,-3.852578731E-2,1.111935765E-2,-2.834198052E-1,2.862423141E-1
5.992298292E0,-2.269427186E-1,1.539906086E-1,-2.693595904E-1,3.844095395E-1
6.002247292E0,-3.260963299E-1,2.210468066E-1,-1.376463801E-1,4.173092774E-1
6.012197292E0,-1.261567292E-1,6.834461370E-2,-2.010506630E-2,1.448817457E-1
6.022146292E0,4.825879754E-2,-7.124572802E-2,4.647951722E-2,9.780189580E-2
6.032095292E0,9.891277906E-3,-4.727901433E-2,3.664742410E-2,6.063147918E-2
6.042045292E0,9.684606241E-3,-4.440476066E-2,-6.596536338E-2,8.010620159E-2
6.051994292E0,8.421397526E-3,-2.930167671E-2,-1.154234523E-1,1.193820821E-1
6.061944292E0,7.448146753E-3,-2.511419322E-2,-1.398788470E-1,1.423105387E-1
6.071893292E0,1.079370428E-2,-2.013123259E-2,-1.875652295E-1,1.889510146E-1
6.081842292E0,1.672310072E-2,-1.233855693E-2,-2.183870727E-1,2.193736894E-1
6.091792292E0,8.632482011E-3,-4.029645212E-4,-2.527301091E-1,2.528778167E-1
6.101741292E0,-7.281062566E-4,-6.745494157E-3,-2.371338308E-1,2.372308697E-1
6.111690292E0,6.570863407E-3,-1.696116462E-2,-1.857905996E-1,1.866788800E-1
6.121640292E0,1.413356991E-2,-2.382694697E-2,-1.012065321E-1,1.049297067E-1
6.131589292E0,1.911482206E-2,-3.261755962E-2,-2.704921961E-2,4.648593227E-2
6.141538292E0,1.495565188E-2,-6.674127063E-2,1.747838008E-1,1.876897593E-1
6.151488292E0,1.908614329E-2,-7.034156576E-2,1.766321057E-1,1.910788254E-1
6.161437292E0,2.856678220E-2,-6.834797585E-2,1.120063394E-1,1.342867340E-1
6.171387292E0,1.364286974E-2,-6.571808098E-2,1.560914218E-2,6.891037209E-2
6.181336292E0,2.211412392E-2,-5.574578259E-2,-8.522141397E-2,1.042080426E-1
6.191285292E0,1.846579939E-2,-4.473333763E-2,-1.827640808E-1,1.890628638E-1
6.201235292E0,1.013496975E-2,-1.761815412E-2,-2.735040969E-1,2.742582870E-1
6.211184292E0,6.973151844E-3,-8.172799498E-3,-3.744323015E-1,3.745863958E-1
6.221133292E0,1.161134603E-2,-1.265319195E-3,-4.149488282E-1,4.151131827E-1
6.231083292E0,1.095238309E-3,1.002978383E-2,-4.094179469E-1,4.095422462E-1
6.241032292E0,9.311937606E-3,7.426384147E-3,-3.753123075E-1,3.755012537E-1
6.250981292E0,-1.128512621E-4,1.217435980E-2,-2.901136976E-1,2.903690502E-1
6.260931292E0,4.721590094E-3,-2.936142795E-3,-1.911653602E-1,1.912462007E-1
6.270880292E0,8.253244394E-3,-1.283114830E-2,-8.752989471E-2,8.884951816E-2
6.280830292E0,5.965548679E-3,-2.644463578E-2,-8.694809675E-4,2.712309956E-2
6.290779292E0,1.985660532E-2,-3.519378802E-2,6.734413683E-2,7.853738126E-2
6.300728292E0,1.802705722E-2,-4.502487615E-2,1.006574786E-1,1.117324584E-1
6.310678292E0,2.131620739E-2,-4.796777979E-2,1.058012742E-1,1.181067238E-1
6.320627292E0,2.333711475E-2,-5.953775676E-2,7.184239984E-2,9.618053763E-2
6.330576292E0,2.073738785E-2,-6.258954652E-2,1.043201745E-2,6.675565576E-2
6.340526292E0,1.939314952E-2,-5.030025238E-2,-5.017320335E-2,7.364482312E-2
6.350475292E0,1.922128706E-2,-4.395145526E-2,-1.183926684E-1,1.277419752E-1
6.360424292E0,7.260441994E-3,-3.034343127E-2,-1.840978307E-1,1.867229206E-1
6.370374292E0,6.659275135E-3,-1.623970957E-2,-2.467332047E-1,2.473567230E-1
6.380323292E0,-6.436222130E-3,-6.282449495E-3,-2.963099921E-1,2.964464632E-1
6.390273292E0,1.078259457E-2,-1.053494671E-2,-3.180323982E-1,3.183894718E-1
6.400222292E0,-1.989551671E-3,-5.879923515E-3,-3.087487739E-1,3.088111676E-1
6.410171292E0,1.357467659E-4,-2.526801154E-3,-2.688690090E-1,2.688809163E-1
6.420121292E0,-2.475290839E-4,-3.851798493E-3,-1.941550416E-1,1.941934031E-1
6.430070292E0,4.565304983E-4,-5.368968230E-3,-1.345567113E-1,1.346645566E-1
6.440019292E0,8.309551254E-3,-1.863379721E-2,-7.971216738E-2,8.228181251E-2
6.449969292E0,1.557543847E-2,-2.603527587E-2,-2.479804158E-2,3.918383263E-2
6.459918250E0,1.039731788E-2,-4.133095248E-2,4.902890325E-3,4.289976906E-2
6.469867250E0,1.443755203E-2,-4.371488057E-2,1.597634733E-2,4.873066145E-2
6.479817250E0,1.714474892E-2,-4.100195523E-2,2.907644928E-2,5.310878130E-2
6.489766250E0,1.675044559E-2,-4.279116668E-2,-1.209028780E-2,4.751669635E-2
6.499715250E0,1.696906750E-2,-3.421235114E-2,-4.213328183E-2,5.686517089E-2
6.509665250E0,9.971713666E-3,-3.540275289E-2,-1.019426966E-1,1.083748281E-1
6.519614250E0,1.169586570E-2,-3.610374268E-2,-1.508400375E-1,1.555409606E-1
6.529564250E0,8.671512175E-4,-2.730320804E-2,-1.957372981E-1,1.976342759E-1
6.539513250E0,2.465606388E-3,-1.460119184E-2,-2.197494739E-1,2.202478270E-1
6.549462250E0,2.496578358E-4,-6.643277518E-3,-2.368011242E-1,2.368944235E-1
6.559412250E0,8.377104867E-3,-6.029776689E-3,-2.329741216E-1,2.332026488E-1
6.569361250E0,7.482636189E-3,-1.666469252E-2,-2.200745791E-1,2.208314339E-1
6.579310250E0,6.195874158E-3,-1.464069709E-2,-1.895515287E-1,1.902170363E-1
6.589260250E0,7.555753794E-3,-1.414732000E-2,-1.424194622E-1,1.433197101E-1
6.599209250E0,1.403784916E-2,-2.503322756E-2,-1.053054303E-1,1.091464949E-1
6.609158250E0,9.232863151E-3,-3.893609740E-2,-6.680502355E-2,7.787282334E-2
6.619108250E0,1.056400920E-2,-3.345159184E-2,-3.408809781E-2,4.891426887E-2
6.629057250E0,1.257983680E-2,-3.668466356E-2,-3.874365091E-2,5.481867675E-2
6.639007250E0,1.478885092E-2,-4.293051314E-2,-3.241579413E-2,5.578998816E-2
6.648956250E0,1.359818422E-2,-3.307901457E-2,-4.639473259E-2,5.857988590E-2
6.658905250E0,1.626230358E-2,-3.221863333E-2,-7.217159808E-2,8.069226989E-2
6.668855250E0,1.147428364E-2,-2.713999763E-2,-1.085699308E-1,1.124974157E-1
6.678804250E0,1.360933048E-2,-2.960487312E-2,-1.383842987E-1,1.421684793E-1
6.688753250E0,1.346112183E-2,-2.333908819E-2,-1.647909093E-1,1.669789167E-1
6.698703250E0,6.267328961E-3,-2.598847987E-2,-1.900333393E-1,1.919045349E-1
6.708652250E0,7.881023437E-3,-1.949511034E-2,-2.029048151E-1,2.039915043E-1
6.718601250E0,2.035965772E-2,-1.118762389E-2,-1.926154697E-1,1.940113341E-1
6.728551250E0,9.526886735E-3,-1.719388381E-2,-1.846112162E-1,1.856547666E-1
6.738500250E0,5.651936922E-3,-1.680427652E-2,-1.631536889E-1,1.641141502E-1
6.748449250E0,1.558642027E-2,-1.957567401E-2,-1.123612654E-1,1.151138457E-1
6.758399250E0,9.385347571E-3,-3.143561807E-2,-8.580788970E-2,9.186553634E-2
6.768348250E0,5.940296017E-3,-2.392547255E-2,-7.314749837E-2,7.718984306E-2
6.778298250E0,1.387080152E-2,-2.572964922E-2,-6.224711895E-2,6.876858150E-2
6.788247250E0,1.023033419E-2,-3.270046217E-2,-6.268624485E-2,7.143910174E-2
6.798196250E0,1.144870207E-2,-3.414885404E-2,-7.117406309E-2,7.976819082E-2
6.808146250E0,1.694406152E-2,-2.809488449E-2,-8.473083258E-2,9.086109038E-2
6.818095250E0,1.111516410E-2,-3.011845965E-2,-1.181821686E-1,1.224650704E-1
6.828044250E0,1.698421544E-2,-2.800631745E-2,-1.257396948E-1,1.299357081E-1
6.837994250E0,2.450518744E-2,-1.622525599E-2,-1.478304756E-1,1.507236300E-1
6.847943250E0,8.691611979E-3,-1.552682435E-2,-1.675519645E-1,1.684941756E-1
6.857892250E0,1.136754454E-2,-1.065338938E-2,-1.747305912E-1,1.754237591E-1
6.867842250E0,3.697733497E-3,-1.410324661E-2,-1.680138946E-1,1.686453188E-1
6.877791250E0,8.838632908E-3,-2.119341586E-2,-1.673063815E-1,1.688748282E-1
6.887741250E0,1.051809942E-2,-2.155212427E-2,-1.441625172E-1,1.461436137E-1
6.897690250E0,1.003358452E-2,-2.507958502E-2,-1.273085028E-1,1.301426651E-1
6.907639250E0,1.198664591E-2,-2.543060068E-2,-1.170396227E-1,1.203688847E-1
6.917589250E0,6.677785227E-3,-2.531890059E-2,-1.018123037E-1,1.051255664E-1
6.927538250E0,8.053032076E-3,-2.707933277E-2,-8.865548372E-2,9.304803267E-2
6.937487250E0,1.230963148E-2,-2.533708178E-2,-8.654756248E-2,9.101634640E-2
6.947437250E0,1.443335848E-2,-2.377172733E-2,-9.205680907E-2,9.616586168E-2
6.957386250E0,1.520246834E-2,-2.254774064E-2,-9.904949427E-2,1.027147407E-1
6.967335250E0,8.041712232E-3,-2.153675705E-2,-1.049855876E-1,1.074731345E-1
6.977285250E0,1.280234163E-2,-2.345256072E-2,-1.288860816E-1,1.316265345E-1
6.987234250E0,1.372039103E-2,-2.453493515E-2,-1.400782371E-1,1.428710071E-1
6.997183250E0,9.919353677E-3,-2.311576109E-2,-1.494899154E-1,1.515914469E-1
7.007133250E0,1.253207236E-2,-1.846691402E-2,-1.595202291E-1,1.610738441E-1
7.017082250E0,1.214686875E-2,-2.135578573E-2,-1.542951572E-1,1.562389565E-1
7.027032250E0,1.361060956E-2,-1.690060940E-2,-1.372569555E-1,1.389616894E-1
7.036981250E0,9.649979761E-3,-2.004907921E-2,-1.350455385E-1,1.368663040E-1
7.046930250E0,3.996836850E-3,-2.144725811E-2,-1.198141265E-1,1.217841718E-1
7.056880250E0,1.233803616E-2,-2.577063454E-2,-1.053229719E-1,1.091296530E-1
7.066829250E0,1.661701030E-2,-2.704585746E-2,-1.001014084E-1,1.050137867E-1
7.076778250E0,9.119518530E-3,-2.952800050E-2,-1.005557370E-1,1.051975507E-1
7.086728250E0,1.086186089E-2,-2.610381620E-2,-1.029437399E-1,1.067558093E-1
7.096677250E0,9.006274408E-3,-2.409904350E-2,-1.098124641E-1,1.127858774E-1
7.106626250E0,4.675771678E-3,-3.206826853E-2,-1.076881707E-1,1.124587871E-1
7.116576250E0,5.055420427E-3,-3.229150426E-2,-1.042166787E-1,1.092218598E-1
7.126525250E0,1.221628617E-2,-1.670622602E-2,-1.297877222E-1,1.314275027E-1
7.136474250E0,5.745611144E-3,-2.173731655E-2,-1.368090588E-1,1.386442986E-1
7.146424250E0,1.266525183E-2,-2.299572872E-2,-1.406992114E-1,1.431274964E-1
7.156373250E0,1.497417111E-2,-1.888206633E-2,-1.483432764E-1,1.502880098E-1
7.166323250E0,1.001191327E-2,-1.914097007E-2,-1.402770424E-1,1.419304892E-1
7.176272250E0,2.526554475E-3,-3.179209722E-2,-1.269787198E-1,1.309225581E-1
7.186221250E0,7.822048785E-3,-2.813387811E-2,-1.280516839E-1,1.313390014E-1
7.196171250E0,1.799023803E-3,-2.117141571E-2,-1.153462690E-1,1.172869435E-1
7.206120250E0,3.624935662E-3,-2.406947851E-2,-1.132658297E-1,1.158517506E-1
7.216069250E0,7.408202961E-3,-3.222866496E-2,-1.029472482E-1,1.081281843E-1
7.226019250E0,5.523024090E-3,-2.749148838E-2,-9.905534148E-2,1.029477848E-1
7.235968250E0,7.565036248E-3,-2.683117328E-2,-1.205999923E-1,1.237800459E-1
7.245917250E0,1.322106622E-2,-3.150560193E-2,-1.166922981E-1,1.215914963E-1
7.255867250E0,1.597293036E-2,-1.298408953E-2,-1.244591546E-1,1.261499197E-1
7.265816250E0,9.104178725E-3,-2.154311590E-2,-1.299812651E-1,1.320686230E-1
7.275765250E0,4.939462831E-3,-2.419939633E-2,-1.304168826E-1,1.327349703E-1
7.285715250E0,3.429876203E-3,-2.658866001E-2,-1.353495938E-1,1.379791050E-1
7.295664250E0,-1.109180264E-3,-3.295271471E-2,-1.272652334E-1,1.314669210E-1
7.305614250E0,-5.073409751E-3,-2.779145055E-2,-1.269717032E-1,1.300765837E-1
7.315563250E0,1.077872079E-2,-1.519437360E-2,-1.415043730E-1,1.427253915E-1
7.325512250E0,1.490035001E-2,-1.553875633E-2,-1.352291411E-1,1.369320780E-1
7.335462250E0,1.406039748E-2,-1.631168514E-2,-1.127904510E-1,1.148279221E-1
7.345411250E0,1.241742125E-2,-1.639584851E-2,-1.134026545E-1,1.152526713E-1
7.355360250E0,8.230778296E-3,-2.335114807E-2,-1.267319673E-1,1.291278954E-1
7.365310250E0,-1.905470537E-3,-3.746552266E-2,-1.111643404E-1,1.173235133E-1
7.375259250E0,-6.611821325E-3,-2.839824535E-2,-1.030764717E-1,1.071211255E-1
7.385208250E0,9.041302884E-3,-2.054088486E-2,-1.500693744E-1,1.517382294E-1
7.395158250E0,1.120586903E-2,-2.433316967E-2,-1.186207098E-1,1.216081717E-1
7.405107250E0,1.146976118E-2,-2.445358576E-2,-1.169595158E-1,1.200377508E-1
7.415056250E0,1.179264626E-3,-2.047956219E-2,-1.236867374E-1,1.253762822E-1
7.425006250E0,-1.460068021E-3,-2.862590304E-2,-1.301175052E-1,1.332371543E-1
7.434955250E0,8.118420392E-3,-2.705660172E-2,-1.323663443E-1,1.353470264E-1
7.444905250E0,1.333228209E-2,-2.606290396E-2,-1.226424247E-1,1.260880210E-1
7.454854250E0,1.172646308E-2,-1.854873849E-2,-1.334311223E-1,1.352236297E-1
7.464803125E0,9.689868735E-3,-1.873358360E-2,-1.153328204E-1,1.172454697E-1
7.474753125E0,1.027366754E-2,-2.225724366E-2,-1.142966938E-1,1.168959681E-1
7.484702125E0,1.342527109E-2,-2.556218131E-2,-1.172986543E-1,1.207999889E-1
7.494651125E0,8.548190743E-3,-2.122157386E-2,-1.243387020E-1,1.264260241E-1
7.504601125E0,1.199464928E-2,-2.990514591E-2,-1.108649629E-1,1.154522818E-1
7.514550125E0,4.889587909E-3,-2.270696763E-2,-1.083126533E-1,1.107752017E-1
7.524499125E0,1.329959250E-2,-3.016675400E-2,-1.163876581E-1,1.209669342E-1
7.534449125E0,4.400166823E-3,-2.996197354E-2,-1.225219721E-1,1.262090130E-1
7.544398125E0,1.446946504E-2,-2.073225327E-2,-1.259607196E-1,1.284729334E-1
7.554347125E0,1.233635508E-2,-1.898974646E-2,-1.147299725E-1,1.169434167E-1
7.564297125E0,1.372283955E-2,-1.994481605E-2,-1.240124273E-1,1.263534493E-1
7.574246125E0,6.684792750E-3,-2.447774207E-2,-1.186259723E-1,1.213093880E-1
7.584196125E0,7.687663324E-3,-2.349018389E-2,-1.271646613E-1,1.295443553E-1
7.594145125E0,8.345493358E-3,-1.221541822E-2,-1.268705463E-1,1.277301814E-1
7.604094125E0,-5.724935755E-3,-1.845666312E-2,-1.361559248E-1,1.375203954E-1
7.614044125E0,4.318790026E-3,-2.306319097E-2,-1.270325142E-1,1.291813547E-1
7.623993125E0,1.264888876E-2,-1.896834930E-2,-1.093745077E-1,1.117254474E-1
7.633942125E0,1.263324746E-2,-3.591939094E-2,-1.081764132E-1,1.146818990E-1
7.643892125E0,3.296002373E-3,-4.024631225E-2,-1.170092171E-1,1.237812028E-1
7.653841125E0,-2.577114617E-3,-3.113761107E-2,-1.149164987E-1,1.190881774E-1
7.663790125E0,1.919946050E-2,-2.591898937E-2,-1.140207052E-1,1.184952932E-1
7.673740125E0,1.876791772E-2,-1.398535213E-2,-1.192551327E-1,1.215302904E-1
7.683689125E0,7.445204873E-3,-1.603748728E-2,-1.131079549E-1,1.144816209E-1
7.693638125E0,1.830903919E-2,-1.608260220E-2,-1.250760359E-1,1.274279630E-1
7.703588125E0,-3.474890627E-4,-1.670843700E-2,-1.259694904E-1,1.270732274E-1
7.713537125E0,7.786883265E-3,-2.762211883E-2,-1.231265742E-1,1.264269365E-1
7.723486125E0,4.808265930E-3,-3.119926265E-2,-1.472252887E-1,1.505715745E-1
7.733436125E0,1.497809971E-2,-1.667251317E-2,-1.307671309E-1,1.326738809E-1
7.743385125E0,1.198420652E-2,-1.379908176E-2,-1.348128194E-1,1.360460662E-1
7.753335125E0,5.385367842E-3,-1.526638571E-2,-1.252350801E-1,1.262770368E-1
7.763284125E0,3.871139986E-3,-1.381936429E-2,-1.069759798E-1,1.079343356E-1
7.773233125E0,1.041213691E-2,-2.898634734E-2,-1.125138777E-1,1.166533052E-1
7.783183125E0,7.103745751E-3,-3.371235939E-2,-1.226868635E-1,1.274325424E-1
7.793132125E0,5.512617873E-3,-3.506525891E-2,-1.255268562E-1,1.304490435E-1
7.803081125E0,1.115557384E-2,-2.740995627E-2,-1.297122931E-1,1.330452236E-1
7.813031125E0,1.414023939E-2,-2.087276917E-2,-1.180318952E-1,1.206944371E-1
7.822980125E0,1.176647997E-2,-1.946039250E-2,-1.219179547E-1,1.240207426E-1
7.832929125E0,1.203687714E-2,-2.906199569E-2,-1.247585320E-1,1.286630379E-1
7.842879125E0,7.267321609E-3,-2.323067715E-2,-1.258022600E-1,1.281354243E-1
7.852828125E0,8.808675064E-3,-2.287346710E-2,-1.311904693E-1,1.334605840E-1
7.862777125E0,1.123558933E-2,-3.207418883E-2,-1.211689264E-1,1.258447487E-1
7.872727125E0,3.154408392E-3,-2.790484998E-2,-1.172852057E-1,1.206003749E-1
7.882676125E0,9.608747754E-3,-2.272984486E-2,-1.196854877E-1,1.222030681E-1
7.892625125E0,5.103139188E-3,-2.256723745E-2,-1.252280635E-1,1.273475171E-1
7.902575125E0,5.417856434E-3,-2.004573533E-2,-1.177465510E-1,1.195635185E-1
7.912524125E0,1.073648379E-2,-2.701503167E-2,-1.178933161E-1,1.214245363E-1
7.922474125E0,6.090496369E-3,-2.314318819E-2,-1.042710578E-1,1.069820303E-1
7.932423125E0,1.158656845E-2,-2.411294891E-2,-1.295661128E-1,1.322991325E-1
7.942372125E0,1.005917522E-2,-1.348506801E-2,-1.244755268E-1,1.256072882E-1
7.952322125E0,1.131817211E-2,-1.723667812E-2,-1.144452131E-1,1.162880514E-1
7.962271125E0,1.617696164E-2,-2.023505721E-2,-1.169869977E-1,1.198211553E-1
7.972220125E0,6.422800943E-3,-2.218510363E-2,-1.216314411E-1,1.238048410E-1
7.982170125E0,2.178663416E-3,-2.348296624E-2,-1.295702058E-1,1.316990300E-1
7.992119125E0,1.075170483E-2,-1.880245283E-2,-1.321166682E-1,1.338803399E-1
8.002068125E0,1.131020528E-2,-3.350873010E-2,-1.319681489E-1,1.366248443E-1
8.012018125E0,1.165581227E-2,-1.975098085E-2,-1.298765999E-1,1.318858992E-1
8.021967125E0,1.311295669E-2,-2.239350205E-2,-1.265887105E-1,1.292212065E-1
8.031916125E0,2.176746625E-2,-2.453606805E-2,-1.218010104E-1,1.261401100E-1
8.041866125E0,1.454797304E-2,-1.939685885E-2,-1.249421346E-1,1.272730084E-1
8.051815125E0,-1.225722581E-3,-2.154048465E-2,-1.171594906E-1,1.191295140E-1
8.061764125E0,2.590270853E-3,-2.484924126E-2,-1.186581320E-1,1.212598308E-1
8.071714125E0,1.256431427E-2,-2.887331335E-2,-1.126717526E-1,1.169891193E-1
8.081663125E0,1.212244749E-2,-2.179593489E-2,-1.177588302E-1,1.203709209E-1
8.091612125E0,1.180577508E-2,-2.434188567E-2,-1.298801082E-1,1.326678041E-1
8.101562125E0,1.162721573E-2,-2.132793836E-2,-1.225476998E-1,1.249320288E-1
8.111511125E0,8.878174704E-3,-2.311501192E-2,-1.210496432E-1,1.235562296E-1
8.121461125E0,5.921502700E-3,-2.486972479E-2,-1.250929928E-1,1.276785975E-1
8.131410125E0,9.361849073E-3,-2.959814882E-2,-1.261437374E-1,1.299074175E-1
8.141359125E0,7.353138635E-3,-2.586188765E-2,-1.230043674E-1,1.259086187E-1
8.151309125E0,6.504524918E-3,-2.735780641E-2,-1.230061215E-1,1.261794926E-1
8.161258125E0,-2.061024746E-3,-2.474247476E-2,-1.137224972E-1,1.164012210E-1
8.171207125E0,1.511678835E-2,-1.076346321E-2,-1.176120651E-1,1.190670705E-1
8.181157125E0,2.878757855E-3,-2.364597565E-2,-1.256911629E-1,1.279284482E-1
8.191106125E0,-5.373709956E-3,-2.928857530E-2,-1.194024825E-1,1.230595394E-1
8.201055125E0,1.205038056E-2,-2.548410270E-2,-1.195457393E-1,1.228244070E-1
8.211005125E0,1.321783198E-2,-2.844811114E-2,-1.294211018E-1,1.331684186E-1
8.220954125E0,3.570711873E-3,-2.107521074E-2,-1.250766206E-1,1.268900134E-1
8.230903125E0,3.936610529E-3,-2.190944396E-2,-1.187908638E-1,1.208585535E-1
8.240853125E0,6.057843324E-3,-2.310454175E-2,-1.288194233E-1,1.310151180E-1
8.250802125E0,7.166064279E-3,-2.077382332E-2,-1.352554536E-1,1.370289821E-1
8.260751125E0,9.007708803E-3,-2.279445659E-2,-1.325639802E-1,1.348107374E-1
8.270701125E0,1.296062758E-3,-2.798733227E-2,-1.411050081E-1,1.438596325E-1
8.280650125E0,9.336148733E-3,-2.956924165E-2,-1.289895773E-1,1.326642935E-1
8.290600125E0,1.161254288E-2,-2.827017305E-2,-1.173208737E-1,1.212363034E-1
8.300549125E0,1.889019761E-2,-1.978955420E-2,-1.270535642E-1,1.299656654E-1
8.310498125E0,7.001556521E-3,-2.402233534E-2,-1.228605258E-1,1.253826272E-1
8.320448125E0,1.304186733E-2,-3.062654614E-2,-1.149241000E-1,1.196479185E-1
8.330397125E0,7.587429257E-3,-2.516965041E-2,-1.104270065E-1,1.135130131E-1
8.340346125E0,7.508966932E-3,-3.211990675E-2,-1.213519442E-1,1.257551882E-1
8.350296125E0,1.159895724E-2,-2.932817191E-2,-1.270366073E-1,1.308929985E-1
8.360245125E0,8.858157126E-3,-1.346323231E-2,-1.226874483E-1,1.237414059E-1
8.370194125E0,7.145352345E-3,-2.013662299E-2,-1.322610945E-1,1.339758812E-1
8.380144125E0,5.497305477E-3,-2.722750487E-2,-1.198392695E-1,1.230162912E-1
8.390093125E0,9.657800412E-3,-2.233055312E-2,-1.252321565E-1,1.275735856E-1
8.400042125E0,-8.942311350E-4,-3.019673925E-2,-1.277827120E-1,1.313052329E-1
8.409992125E0,1.007206650E-2,-3.190750664E-2,-1.177623385E-1,1.224234613E-1
8.419941125E0,2.481576595E-3,-2.451006621E-2,-1.209069711E-1,1.233912364E-1
8.429890125E0,6.753141219E-3,-3.016384866E-2,-1.250982553E-1,1.288605299E-1
8.439840125E0,9.761497127E-3,-3.268319461E-2,-1.168671298E-1,1.217431890E-1
8.449789125E0,7.194980588E-3,-2.325437665E-2,-1.251000094E-1,1.274462480E-1
8.459738375E0,7.757537551E-3,-2.283377912E-2,-1.165642440E-1,1.190327007E-1
8.469688375E0,-2.139669796E-3,-2.835373342E-2,-1.238960677E-1,1.271170641E-1
8.479637375E0,2.574465098E-3,-2.162684072E-2,-1.246398336E-1,1.265284009E-1
8.489587375E0,7.403936321E-3,-2.597766252E-2,-1.174524361E-1,1.205185959E-1
8.499536375E0,8.768850043E-3,-2.206585698E-2,-1.204462105E-1,1.227643450E-1
8.509485375E0,1.658985729E-2,-2.447324703E-2,-1.226979733E-1,1.262099672E-1
8.519435375E0,3.803586373E-3,-2.216703208E-2,-1.144703561E-1,1.166589345E-1
8.529384375E0,5.089288596E-3,-1.596496353E-2,-1.240516037E-1,1.251781982E-1
8.539333375E0,2.999987081E-3,-2.292015346E-2,-1.230055368E-1,1.251586810E-1
8.549283375E0,4.929942833E-3,-2.799392866E-2,-1.255543381E-1,1.287317218E-1
8.559232375E0,6.891071554E-3,-2.017378936E-2,-1.300467539E-1,1.317824982E-1
8.569181375E0,4.105850877E-3,-2.290538924E-2,-1.295965183E-1,1.316691779E-1
8.579131375E0,-1.732237637E-3,-2.961886989E-2,-1.272038376E-1,1.306181244E-1
8.589080375E0,2.995272763E-3,-2.829986595E-2,-1.216688633E-1,1.249526565E-1
8.599029375E0,8.349723453E-3,-2.458542220E-2,-1.248123264E-1,1.274844214E-1
8.608979375E0,3.808483416E-3,-2.781164171E-2,-1.230178159E-1,1.261799311E-1
8.618928375E0,7.930386728E-3,-2.298847452E-2,-1.266103452E-1,1.289245536E-1
8.628877375E0,1.156581083E-2,-1.801289599E-2,-1.239165330E-1,1.257518968E-1
8.638827375E0,1.540615244E-2,-2.226416895E-2,-1.324511290E-1,1.351900304E-1
8.648776375E0,7.549522854E-3,-1.800942421E-2,-1.288609385E-1,1.303321761E-1
8.658725375E0,3.305979185E-3,-2.280995172E-2,-1.266156077E-1,1.286962918E-1
8.668675375E0,1.052165343E-2,-2.398591815E-2,-1.197305113E-1,1.225619223E-1
8.678624375E0,5.552552529E-3,-2.679822788E-2,-1.251204747E-1,1.280785269E-1
8.688573375E0,1.396012687E-2,-2.891568739E-2,-1.195825768E-1,1.238183944E-1
8.698523375E0,4.719232935E-3,-2.504970940E-2,-1.197275877E-1,1.224110059E-1
8.708472375E0,9.464422027E-3,-2.602449507E-2,-1.276645982E-1,1.306334539E-1
8.718422375E0,6.681677280E-3,-2.341621662E-2,-1.260168529E-1,1.283480082E-1
8.728371375E0,3.901646007E-4,-2.286051186E-2,-1.174857652E-1,1.196898503E-1
8.738320375E0,1.220375120E-2,-1.646384066E-2,-1.185382640E-1,1.202967565E-1
8.748270375E0,3.091870593E-3,-2.074424006E-2,-1.327563536E-1,1.344028742E-1
8.758219375E0,5.615391824E-3,-2.247753751E-2,-1.252701634E-1,1.273946080E-1
8.768168375E0,3.612272786E-3,-2.428489359E-2,-1.294637865E-1,1.317713041E-1
8.778118375E0,5.872395225E-3,-1.925923001E-2,-1.218279076E-1,1.234805330E-1
8.788067375E0,5.648300685E-3,-2.275703441E-2,-1.115011400E-1,1.139398532E-1
8.798016375E0,1.292965561E-3,-2.116874792E-2,-1.165876329E-1,1.185009021E-1
8.807966375E0,7.347483281E-3,-2.149100259E-2,-1.317032701E-1,1.336472972E-1
8.817915375E0,-1.530426471E-3,-3.188676730E-2,-1.213735789E-1,1.255016087E-1
8.827864375E0,7.564332755E-3,-2.375400295E-2,-1.264641649E-1,1.288978540E-1
8.837814375E0,1.308501796E-2,-1.780195769E-2,-1.218220603E-1,1.238092960E-1
8.847763375E0,1.179564295E-2,-1.826715851E-2,-1.275090623E-1,1.293498637E-1
8.857712375E0,6.304358281E-3,-3.092398670E-2,-1.291568077E-1,1.329568308E-1
8.867662375E0,1.055759554E-2,-2.905139761E-2,-1.293076658E-1,1.329508141E-1
8.877611375E0,9.559914367E-3,-1.909501461E-2,-1.128483385E-1,1.148510298E-1
8.887560375E0,1.515908930E-3,-2.921661800E-2,-1.176389623E-1,1.212222512E-1
8.897510375E0,-4.008458192E-3,-2.549672903E-2,-1.230271715E-1,1.257053533E-1
8.907459375E0,8.611249309E-3,-2.161430575E-2,-1.231791991E-1,1.253572771E-1
8.917409375E0,1.385296751E-3,-2.520151773E-2,-1.203356981E-1,1.229541207E-1
8.927358375E0,-5.355318636E-4,-1.840029230E-2,-1.252730870E-1,1.266183394E-1
8.937307375E0,3.089266755E-3,-3.032139458E-2,-1.290164745E-1,1.325676477E-1
8.947257375E0,1.062407107E-2,-2.554643037E-2,-1.254227757E-1,1.284381706E-1
8.957206375E0,7.245805683E-3,-2.772831889E-2,-1.249713707E-1,1.282154626E-1
8.967155375E0,1.038803542E-3,-2.643931847E-2,-1.333533543E-1,1.359530573E-1
8.977105375E0,-3.312146170E-3,-2.633750383E-2,-1.272114390E-1,1.299514703E-1
8.987054375E0,1.734841475E-3,-2.686223662E-2,-1.239171177E-1,1.268071035E-1
8.997003375E0,9.830448590E-3,-2.530974604E-2,-1.216729563E-1,1.246656700E-1
9.006953375E0,1.126642426E-2,-2.167157192E-2,-1.275125706E-1,1.298308323E-1
9.016902375E0,-1.020430494E-3,-2.169682458E-2,-1.233242100E-1,1.252224192E-1
9.026851375E0,-1.838684371E-3,-2.125300264E-2,-1.167384911E-1,1.186715896E-1
9.036801375E0,3.164942516E-3,-2.576864284E-2,-1.267711437E-1,1.294023287E-1
9.046750375E0,6.725476580E-3,-2.689368367E-2,-1.299169457E-1,1.328416916E-1
9.056699375E0,4.828256099E-3,-2.593013562E-2,-1.225810289E-1,1.253865728E-1
9.066649375E0,6.945523750E-3,-1.999431638E-2,-1.219775963E-1,1.238004321E-1
9.076598375E0,1.737180362E-3,-1.802446252E-2,-1.231768602E-1,1.245007548E-1
9.086547375E0,5.433826642E-3,-2.254936690E-2,-1.242205882E-1,1.263675392E-1
9.096497375E0,1.320826630E-2,-2.042542063E-2,-1.248187584E-1,1.271667352E-1
9.106446375E0,3.439039886E-3,-1.836387511E-2,-1.216735411E-1,1.230995918E-1
9.116395375E0,8.551068669E-3,-2.501506465E-2,-1.272102696E-1,1.299281606E-1
9.126345375E0,5.890987543E-3,-2.276125537E-2,-1.272079307E-1,1.293624216E-1
9.136294375E0,7.407143153E-3,-2.950704189E-2,-1.111924070E-1,1.152791511E-1
9.146243375E0,9.901428306E-3,-2.904843746E-2,-1.227190232E-1,1.264982556E-1
9.156193375E0,6.269192761E-3,-1.658517038E-2,-1.240673912E-1,1.253279227E-1
9.166142375E0,1.671152506E-3,-1.574728265E-2,-1.242170799E-1,1.252224125E-1
9.176091375E0,-1.771304347E-3,-2.604982082E-2,-1.279598826E-1,1.305965629E-1
9.186041375E0,5.642873738E-3,-2.820113936E-2,-1.245182115E-1,1.277964447E-1
9.195990375E0,8.453027308E-3,-3.256281506E-2,-1.297584862E-1,1.340487050E-1
9.205940375E0,3.126159031E-4,-2.410373954E-2,-1.179319078E-1,1.203703571E-1
9.215889375E0,1.374269268E-3,-2.847270599E-2,-1.132944810E-1,1.168256095E-1
9.225838375E0,4.398714155E-3,-1.674757680E-2,-1.110468113E-1,1.123887197E-1
9.235788375E0,1.153614535E-2,-2.433287730E-2,-1.198761070E-1,1.228635527E-1
9.245737375E0,3.589139739E-3,-2.276403280E-2,-1.182312852E-1,1.204562988E-1
9.255686375E0,5.616524722E-3,-2.005934838E-2,-1.192785215E-1,1.210838078E-1
9.265636375E0,-7.619287446E-4,-2.705312993E-2,-1.260186070E-1,1.288919768E-1
9.275585375E0,5.601084419E-3,-3.321909193E-2,-1.228739744E-1,1.274083742E-1
9.285534375E0,2.132726228E-3,-2.339154867E-2,-1.198825389E-1,1.221619262E-1
9.295484375E0,8.623957867E-3,-2.226542976E-2,-1.144966686E-1,1.169598612E-1
9.305433375E0,1.012529444E-2,-2.359947201E-2,-1.230289257E-1,1.256804409E-1
9.315382375E0,6.323955590E-3,-2.544995131E-2,-1.329095507E-1,1.354719199E-1
9.325332375E0,4.896056391E-3,-2.284777589E-2,-1.242287743E-1,1.264072015E-1
9.335281375E0,1.349744766E-2,-2.061167272E-2,-1.130027050E-1,1.156573970E-1
9.345230375E0,6.533742724E-3,-2.777847704E-2,-1.228868383E-1,1.261566828E-1
9.355180375E0,9.304637723E-3,-2.062166780E-2,-1.106106091E-1,1.129005593E-1
9.365129375E0,6.736321338E-3,-1.782832498E-2,-1.168969506E-1,1.184403827E-1
9.375078375E0,-4.372620955E-4,-2.147137787E-2,-1.267746520E-1,1.285808059E-1
9.385028375E0,1.298408953E-2,-2.404442685E-2,-1.165958190E-1,1.197551922E-1
9.394977375E0,7.561180741E-5,-2.468237635E-2,-1.186908764E-1,1.212301512E-1
9.404926375E0,7.132040793E-3,-2.561778467E-2,-1.272219640E-1,1.299714008E-1
9.414876375E0,4.746897575E-3,-2.745673399E-2,-1.183944225E-1,1.216291271E-1
9.424825375E0,6.553696347E-3,-2.506039884E-2,-1.200409985E-1,1.228039732E-1
9.434774375E0,6.215325287E-3,-2.436403200E-2,-1.239317358E-1,1.264567572E-1
9.444724375E0,3.026299551E-3,-1.949288109E-2,-1.197392821E-1,1.213533130E-1
9.454673375E0,4.288868727E-3,-1.187081622E-2,-1.219851977E-1,1.226364510E-1
9.464621875E0,3.363702167E-4,-2.845810622E-2,-1.317178881E-1,1.347574822E-1
9.474571875E0,3.537428426E-3,-2.024439448E-2,-1.254333007E-1,1.271057113E-1
9.484520875E0,8.186056232E-3,-2.511539921E-2,-1.230365270E-1,1.258403027E-1
9.494470875E0,1.349122586E-2,-2.216213504E-2,-1.279774243E-1,1.305809884E-1
9.504419875E0,6.538712857E-3,-2.888239481E-2,-1.185482043E-1,1.221909335E-1
9.514368875E0,2.204866251E-3,-1.875916516E-2,-1.221430725E-1,1.235948942E-1
9.524318875E0,2.024086788E-3,-2.499543993E-2,-1.204976660E-1,1.230794721E-1
9.534267875E0,7.631064104E-3,-2.662608219E-2,-1.336714429E-1,1.365109374E-1
9.544216875E0,3.515912499E-4,-1.931845134E-2,-1.106240577E-1,1.122987458E-1
9.554166875E0,4.392492352E-3,-2.206563771E-2,-1.276874024E-1,1.296543832E-1
9.564115875E0,4.316049144E-3,-2.233534053E-2,-1.270898169E-1,1.291097103E-1
9.574064875E0,-2.395220529E-3,-2.718432683E-2,-1.254414868E-1,1.283755870E-1
9.584014875E0,5.547591532E-3,-2.477395836E-2,-1.260408264E-1,1.285722160E-1
9.593963875E0,6.528891362E-3,-2.098454235E-2,-1.237954956E-1,1.257310709E-1
9.603912875E0,8.868006030E-3,-1.892484237E-2,-1.149638611E-1,1.168481089E-1
9.613862875E0,7.550308574E-4,-2.879406530E-2,-1.227482593E-1,1.260825263E-1
9.623811875E0,9.205728415E-3,-2.400234517E-2,-1.254414868E-1,1.280485245E-1
9.633760875E0,1.039041085E-3,-2.480286554E-2,-1.170571643E-1,1.196605259E-1
9.643710875E0,4.144652635E-3,-2.260246692E-2,-1.176553345E-1,1.198783858E-1
9.653659875E0,9.171732338E-3,-1.710632175E-2,-1.222939306E-1,1.238246841E-1
9.663608875E0,9.649714809E-3,-1.734658750E-2,-1.179471105E-1,1.196057774E-1
9.673558875E0,6.318482962E-3,-2.557599535E-2,-1.209397155E-1,1.237758844E-1
9.683507875E0,6.244387776E-3,-3.339414295E-2,-1.236341125E-1,1.282168278E-1
9.693456875E0,7.923644157E-3,-2.873778585E-2,-1.239299816E-1,1.274648375E-1
9.703406875E0,7.868936146E-3,-2.849878091E-2,-1.245316601E-1,1.279931054E-1
9.713355875E0,7.578110257E-3,-2.461823970E-2,-1.198907250E-1,1.226265527E-1
9.723304875E0,6.414103210E-3,-2.404225241E-2,-1.149504125E-1,1.176127882E-1
9.733254875E0,-1.616873899E-3,-2.446498783E-2,-1.200398290E-1,1.225182046E-1
9.743203875E0,-3.565175291E-3,-2.120944088E-2,-1.299169457E-1,1.316850927E-1
9.753152875E0,2.206730051E-3,-2.156301470E-2,-1.222857445E-1,1.241919344E-1
9.763102875E0,9.205764960E-3,-2.426958119E-2,-1.308156627E-1,1.333660238E-1
9.773051875E0,2.750502834E-3,-2.572513590E-2,-1.231791991E-1,1.258668462E-1
9.783000875E0,7.383882198E-3,-2.255168751E-2,-1.237756151E-1,1.260297712E-1
9.792950875E0,1.170865648E-2,-2.413502214E-2,-1.308092308E-1,1.335314450E-1
9.802899875E0,1.158264899E-2,-2.111672597E-2,-1.317073631E-1,1.338913865E-1
9.812848875E0,1.667177313E-2,-2.891327541E-2,-1.255683714E-1,1.299282164E-1
9.822798875E0,2.059681714E-3,-3.297402050E-2,-1.228728050E-1,1.272370014E-1
9.832747875E0,-1.400316786E-3,-2.291167499E-2,-1.320032322E-1,1.339841747E-1
9.842696875E0,2.043647552E-3,-2.577717612E-2,-1.367926866E-1,1.392152233E-1
9.852646875E0,5.711523704E-3,-2.086160464E-2,-1.159865391E-1,1.179860386E-1
9.862595875E0,2.131547648E-3,-2.097553398E-2,-1.236212486E-1,1.254062583E-1
9.872544875E0,7.305840142E-3,-2.222122846E-2,-1.287100804E-1,1.308183591E-1
9.882494875E0,-1.577149378E-3,-2.372180672E-2,-1.155398118E-1,1.179604155E-1
9.892443875E0,-1.410869183E-3,-2.665142622E-2,-1.239241344E-1,1.267654533E-1
9.902393875E0,2.688732482E-3,-2.648224069E-2,-1.303619188E-1,1.330517502E-1
9.912342875E0,7.028508531E-3,-2.604697030E-2,-1.305092686E-1,1.332685777E-1
9.922291875E0,5.004851148E-3,-3.311402477E-2,-1.164350206E-1,1.211556899E-1
9.932241875E0,1.537968465E-2,-1.882299118E-2,-1.240668064E-1,1.264255202E-1
9.942190875E0,1.020585811E-2,-2.216250049E-2,-1.276575816E-1,1.299684350E-1
9.952139875E0,4.122259626E-3,-2.476186194E-2,-1.233113462E-1,1.258404980E-1
9.962089875E0,2.036685711E-3,-3.240949010E-2,-1.198667514E-1,1.241876050E-1
9.972038875E0,-9.248376545E-4,-3.011087654E-2,-1.216653550E-1,1.253394543E-1
9.981987875E0,7.058758736E-3,-2.221576497E-2,-1.266050828E-1,1.287331087E-1
9.991937875E0,1.114889522E-2,-2.421743134E-2,-1.385801804E-1,1.411213954E-1
1.000188687E1,6.961091962E-3,-1.941856664E-2,-1.309460557E-1,1.325609559E-1
1.001183587E1,8.170661610E-3,-2.286069458E-2,-1.153784287E-1,1.179048467E-1
1.002178588E1,2.950879605E-3,-2.242198896E-2,-1.180734104E-1,1.202197302E-1
1.003173487E1,4.739963142E-3,-2.226944972E-2,-1.174752402E-1,1.196613041E-1
1.004168388E1,1.525584245E-3,-2.816051949E-2,-1.258572239E-1,1.289782271E-1
1.005163387E1,9.141390771E-4,-2.748894850E-2,-1.119390965E-1,1.152685528E-1
1.006158287E1,6.281965273E-3,-2.334308987E-2,-1.125372666E-1,1.151042975E-1
1.007153188E1,1.029948665E-2,-2.933856899E-2,-1.191235703E-1,1.231148085E-1
1.008148187E1,3.384194830E-3,-1.892352674E-2,-1.134377378E-1,1.150550868E-1
1.009143088E1,-1.476111319E-3,-2.176657090E-2,-1.224196458E-1,1.243484306E-1
1.010137988E1,-4.495202349E-3,-2.754288906E-2,-1.302017051E-1,1.331589336E-1
1.011132987E1,1.290064794E-2,-2.237771457E-2,-1.255596006E-1,1.281889314E-1
1.012127888E1,9.897088576E-3,-1.923872821E-2,-1.336439610E-1,1.353838592E-1
1.013122787E1,-9.602589905E-4,-2.864662411E-2,-1.092458689E-1,1.129433975E-1
1.014117787E1,1.542455290E-2,-3.078758212E-2,-1.218232298E-1,1.265965693E-1
1.015112688E1,8.141644802E-3,-2.876599867E-2,-1.294602782E-1,1.328673499E-1
1.016107587E1,6.885955241E-3,-2.723041020E-2,-1.308039683E-1,1.337856111E-1
1.017102588E1,-1.923779631E-3,-2.780064164E-2,-1.186809361E-1,1.219087413E-1
1.018097488E1,7.529688003E-3,-2.740672203E-2,-1.155357188E-1,1.189803636E-1
1.019092387E1,9.273035349E-3,-2.182354471E-2,-1.252672398E-1,1.274917160E-1
1.020087388E1,4.563258458E-3,-1.695703503E-2,-1.206315672E-1,1.219029917E-1
1.021082287E1,2.551889364E-3,-2.738808403E-2,-1.146457726E-1,1.178994167E-1
1.022077187E1,1.221038413E-2,-2.604035564E-2,-1.152433580E-1,1.187780500E-1
1.023072188E1,-2.706319811E-3,-2.527508302E-2,-1.218296617E-1,1.244532863E-1
1.024067087E1,2.963917069E-3,-3.022063974E-2,-1.255718797E-1,1.291912104E-1
1.025061988E1,-1.497983560E-4,-2.733622653E-2,-1.266220397E-1,1.295393093E-1
1.026056987E1,1.036901370E-2,-1.969201533E-2,-1.329089659E-1,1.347593601E-1
1.027051887E1,2.751644868E-3,-2.252223216E-2,-1.197375280E-1,1.218683638E-1
1.028046788E1,-4.951047627E-3,-2.627630906E-2,-1.249772179E-1,1.278055644E-1
1.029041787E1,3.117342526E-3,-2.246838296E-2,-1.189879149E-1,1.211307969E-1
1.030036688E1,2.803940903E-3,-2.117148880E-2,-1.176418859E-1,1.195646576E-1
1.031031588E1,5.594497165E-3,-2.848935228E-2,-1.254297924E-1,1.287461627E-1
1.032026587E1,1.255459327E-2,-2.816483181E-2,-1.264793676E-1,1.301841234E-1
1.033021488E1,5.636889478E-3,-1.861590838E-2,-1.267816687E-1,1.282650306E-1
1.034016387E1,3.924578056E-3,-2.286076767E-2,-1.160046655E-1,1.183008852E-1
1.035011387E1,8.084643586E-3,-1.609089794E-2,-1.194486755E-1,1.207984459E-1
1.036006288E1,3.255711403E-3,-2.050750092E-2,-1.112146264E-1,1.131364238E-1
1.037001187E1,8.720820649E-3,-1.661369383E-2,-1.354665381E-1,1.367598277E-1
1.037996188E1,1.875567511E-3,-3.322983619E-2,-1.273827624E-1,1.316590594E-1
1.038991087E1,9.351296676E-3,-2.625098331E-2,-1.258882141E-1,1.289356558E-1
1.039985987E1,-3.813663684E-4,-2.322017044E-2,-1.224459583E-1,1.246287866E-1
1.040980988E1,-4.465144007E-3,-1.141305232E-2,-1.348701221E-1,1.354257919E-1
1.041975887E1,5.391964233E-3,-1.677761687E-2,-1.170583338E-1,1.183774269E-1
1.042970788E1,7.299865019E-3,-1.925179308E-2,-1.221495044E-1,1.238725999E-1
1.043965788E1,1.043437460E-2,-1.623086566E-2,-1.245451087E-1,1.260309536E-1
1.044960687E1,6.160836546E-3,-2.498151625E-2,-1.140628052E-1,1.169288484E-1
1.045955588E1,-3.609751174E-3,-2.744544156E-2,-1.233423364E-1,1.264105000E-1
1.046950638E1,-9.778280463E-4,-1.845606012E-2,-1.278300744E-1,1.291592437E-1
1.047945538E1,5.772873787E-3,-2.601164946E-2,-1.203473926E-1,1.232616196E-1
1.048940437E1,6.230345322E-3,-1.650323628E-2,-1.225944775E-1,1.238570948E-1
1.049935438E1,-2.346359733E-3,-3.049006848E-2,-1.070291895E-1,1.113121605E-1
1.050930337E1,5.948628299E-4,-3.409816599E-2,-1.302280176E-1,1.346193721E-1
1.051925238E1,8.915030435E-3,-2.212414641E-2,-1.178044385E-1,1.201950138E-1
1.052920238E1,1.023911415E-3,-2.643127855E-2,-1.299309790E-1,1.325960791E-1
1.053915137E1,7.113083024E-3,-2.564884800E-2,-1.291837049E-1,1.318972667E-1
1.054910038E1,6.763784979E-3,-3.508877568E-2,-1.317319214E-1,1.364927474E-1
1.055905037E1,-1.709972536E-3,-2.503081558E-2,-1.229020411E-1,1.254367468E-1
1.056899937E1,1.364018368E-3,-2.630022783E-2,-1.164630872E-1,1.194035729E-1
1.057894938E1,3.430634513E-3,-2.539062034E-2,-1.236452222E-1,1.262719043E-1
1.058889837E1,1.633794280E-3,-2.035916436E-2,-1.314272815E-1,1.330048690E-1
1.059884738E1,4.794634609E-3,-2.887800939E-2,-1.234908557E-1,1.269130387E-1
1.060879738E1,6.027702754E-3,-2.630655013E-2,-1.276786315E-1,1.304998112E-1
1.061874637E1,1.290339796E-2,-1.789953310E-2,-1.243848950E-1,1.263269293E-1
1.062869538E1,6.834335290E-3,-2.005521879E-2,-1.198971570E-1,1.217548692E-1
1.063864537E1,7.734724274E-3,-2.480757985E-2,-1.178073621E-1,1.206391998E-1
1.064859438E1,-2.796741519E-3,-2.052970206E-2,-1.347210181E-1,1.363049637E-1
1.065854338E1,-5.280273277E-3,-2.888190145E-2,-1.206502783E-1,1.241713944E-1
1.066849337E1,-1.364434982E-2,-3.015109442E-2,-1.318786865E-1,1.359678077E-1
1.067844238E1,-4.038352082E-3,-2.994196510E-2,-1.308332044E-1,1.342764199E-1
1.068839137E1,-7.932204846E-4,-1.842055656E-2,-1.224512208E-1,1.238315290E-1
1.069834137E1,-6.815934833E-4,-1.822615491E-2,-1.245445240E-1,1.258729349E-1
1.070829038E1,6.670878204E-3,-3.548194611E-2,-1.196042114E-1,1.249345289E-1
1.071823937E1,-4.745801222E-3,-3.256849783E-2,-1.272400904E-1,1.314278139E-1
1.072818938E1,-5.359831955E-3,-2.102624031E-2,-1.326294690E-1,1.343927328E-1
1.073813838E1,5.399044845E-3,-3.274945088E-2,-1.214004761E-1,1.258560758E-1
1.074808737E1,7.171345046E-3,-1.906420710E-2,-1.214022303E-1,1.230990402E-1
1.075803738E1,1.130881657E-2,-2.854152041E-2,-1.179640675E-1,1.218935147E-1
1.076798637E1,3.927529072E-3,-2.333097517E-2,-1.227523524E-1,1.250115990E-1
1.077793537E1,4.949942138E-3,-2.674048662E-2,-1.272430140E-1,1.301166406E-1
1.078788538E1,9.336660365E-3,-2.703491220E-2,-1.269430518E-1,1.301253169E-1
1.079783437E1,-3.636091053E-3,-2.248755086E-2,-1.206572950E-1,1.227888184E-1
1.080778338E1,2.576338034E-4,-1.811038004E-2,-1.176641053E-1,1.190499639E-1
1.081773337E1,1.699529774E-4,-2.072653396E-2,-1.288901746E-1,1.305461421E-1
1.082768237E1,1.217875435E-2,-2.031828867E-2,-1.285890430E-1,1.307528084E-1
1.083763138E1,4.079474453E-3,-1.840895349E-2,-1.227488440E-1,1.241886081E-1
1.084758137E1,-6.707066987E-3,-1.559918365E-2,-1.151117957E-1,1.163574010E-1
1.085753038E1,8.657168224E-4,-2.653016958E-2,-1.218501270E-1,1.247078699E-1
1.086747938E1,1.211031452E-3,-2.474954624E-2,-1.218460339E-1,1.243401087E-1
1.087742937E1,-2.496441314E-3,-2.844812941E-2,-1.154152662E-1,1.188958029E-1
1.088737838E1,3.640101878E-3,-3.382104451E-2,-1.181084937E-1,1.229094369E-1
1.089732737E1,4.079008503E-3,-2.571318565E-2,-1.205040979E-1,1.232844023E-1
1.090727737E1,4.874403421E-3,-2.460307349E-2,-1.287428248E-1,1.311632036E-1
1.091722638E1,-1.970237587E-4,-2.125722360E-2,-1.284422779E-1,1.301895815E-1
1.092717537E1,5.524166124E-3,-1.930132996E-2,-1.160169446E-1,1.177411958E-1
1.093712538E1,-6.566203907E-3,-2.277479533E-2,-1.182611060E-1,1.206129990E-1
1.094707438E1,-8.749261871E-4,-2.437632943E-2,-1.113765943E-1,1.140163001E-1
1.095702337E1,9.759825189E-3,-1.998132460E-2,-1.146709156E-1,1.168072190E-1
1.096697338E1,9.255228750E-3,-2.250854602E-2,-1.226050025E-1,1.249971222E-1
1.097692237E1,2.773370929E-3,-3.376308398E-2,-1.272488612E-1,1.316810924E-1
1.098687138E1,-1.516347472E-4,-2.849644203E-2,-1.170665199E-1,1.204850209E-1
1.099682138E1,2.562871166E-3,-2.870440191E-2,-1.238007581E-1,1.271107340E-1
1.100677037E1,1.035456925E-2,-3.113211103E-2,-1.089809901E-1,1.138124845E-1
1.101671938E1,1.714376220E-3,-2.989986515E-2,-1.287404859E-1,1.321781137E-1
1.102666937E1,1.509285131E-3,-2.257668436E-2,-1.297847986E-1,1.317424706E-1
1.103661837E1,-1.913318597E-3,-2.584253702E-2,-1.269412977E-1,1.295592164E-1
1.104656738E1,-1.319497302E-3,-2.302054284E-2,-1.251462024E-1,1.272527346E-1
1.105651737E1,1.056454824E-3,-2.309871281E-2,-1.249988526E-1,1.271195492E-1
1.106646638E1,-4.613809464E-3,-2.930118335E-2,-1.220103407E-1,1.255642060E-1
1.107641538E1,-4.783049813E-3,-2.506167792E-2,-1.271009266E-1,1.296364564E-1
1.108636537E1,7.167653991E-3,-1.444976723E-2,-1.191674244E-1,1.202540897E-1
1.109631438E1,3.874109276E-3,-1.901233133E-2,-1.293427491E-1,1.307900004E-1
1.110626337E1,-2.501767762E-3,-2.837717710E-2,-1.202199233E-1,1.235489902E-1
1.111621338E1,6.945679067E-3,-2.281340523E-2,-1.834300786E-1,1.849737486E-1
1.112616238E1,9.967035893E-4,-6.902345717E-3,-2.414695412E-1,2.415702281E-1
1.113611137E1,-3.348645587E-3,-4.243068583E-3,-2.476389384E-1,2.476979226E-1
1.114606138E1,-1.122274373E-2,1.033793209E-2,-3.139475334E-1,3.143181136E-1
1.115601037E1,-1.574533663E-2,3.009311562E-2,-3.841147059E-1,3.856133018E-1
1.116595937E1,-1.073046299E-2,2.244495755E-2,-3.025437087E-1,3.035648442E-1
1.117590838E1,-1.136170646E-2,3.436152823E-4,-1.359021556E-1,1.363766928E-1
1.118585837E1,1.065086320E-2,-4.150017455E-2,1.915232098E-1,1.962570897E-1
1.119580738E1,2.014039627E-2,-8.021629787E-2,3.835159510E-1,3.923324798E-1
1.120575738E1,8.300803271E-3,-4.723893349E-2,6.259561300E-2,7.885829658E-2
1.121570637E1,5.346104703E-3,-2.284497106E-2,-1.297315890E-1,1.318361055E-1
1.122565538E1,1.069758610E-2,-3.511444861E-2,-5.708636642E-2,6.786984662E-2
1.123560537E1,1.138509989E-2,-3.787420649E-2,-2.601777077E-2,4.733920587E-2
1.124555437E1,7.203353983E-3,-4.845947580E-2,2.576809466E-2,5.535525094E-2
1.125550338E1,6.395958569E-3,-5.140594259E-2,2.897763133E-2,5.935640098E-2
1.126545337E1,1.160282188E-2,-4.920161538E-2,1.236042917E-2,5.204041353E-2
1.127540238E1,1.550102351E-2,-5.992034739E-2,-3.637202024E-2,7.178895192E-2
1.128535137E1,7.949408451E-3,-4.819205705E-2,-9.792799830E-2,1.094329032E-1
1.129530137E1,-3.741414025E-3,-3.410046833E-2,-1.834441119E-1,1.866241740E-1
1.130525038E1,6.604996528E-3,-9.343338981E-3,-3.049773198E-1,3.051918898E-1
1.131519937E1,-1.565071223E-3,5.367433336E-3,-4.030216777E-1,4.030604564E-1
1.132514838E1,-7.296036920E-3,2.520363735E-2,-4.306076717E-1,4.314063310E-1
1.133509838E1,-5.303095691E-3,1.556497743E-2,-3.821640748E-1,3.825176746E-1
1.134504737E1,4.439224396E-4,4.159416854E-3,-2.851763088E-1,2.852069860E-1
1.135499638E1,-3.110910589E-3,-7.399834134E-4,-1.985503936E-1,1.985761419E-1
1.136494637E1,8.320496511E-4,-3.365364969E-3,-1.363102913E-1,1.363543674E-1
1.137489537E1,-6.741474196E-4,-1.363296602E-2,-9.694274247E-2,9.789896605E-2
1.138484438E1,6.072671497E-3,-1.969380604E-2,-6.456027746E-2,6.776985142E-2
1.139479437E1,8.589180638E-3,-2.382345691E-2,-1.924026310E-2,3.180438409E-2
1.140474338E1,7.539029843E-3,-3.433152471E-2,2.540498257E-2,4.336938666E-2
1.141469238E1,1.726221400E-3,-4.205206948E-2,4.092758596E-2,5.870624908E-2
1.142464237E1,6.370381569E-3,-4.788531577E-2,1.070040464E-2,4.947811524E-2
1.143459138E1,4.879935435E-3,-4.330379390E-2,-2.952083766E-2,5.263565514E-2
1.144454037E1,3.657319187E-3,-4.006331267E-2,-8.902970552E-2,9.769715181E-2
1.145449038E1,7.286873236E-3,-2.819564846E-2,-1.052644998E-1,1.092186249E-1
1.146443892E1,9.091077307E-3,-2.636224486E-2,-1.080197078E-1,1.115610726E-1
1.147438792E1,2.625317601E-3,-2.097308546E-2,-1.456594044E-1,1.471850016E-1
1.148433792E1,3.512203172E-3,-1.202423254E-2,-1.963606113E-1,1.967597708E-1
1.149428692E1,-2.771516265E-3,-1.279021779E-2,-2.388803941E-1,2.392386124E-1
1.150423592E1,-1.275451323E-3,-1.323899159E-2,-2.197681850E-1,2.201702814E-1
1.151418592E1,1.067655897E-3,-2.414194744E-2,-1.430293268E-1,1.450564092E-1
1.152413492E1,5.692374073E-3,-3.245875290E-2,-2.972958326E-2,4.438267548E-2
1.153408392E1,1.150581292E-2,-4.667755511E-2,2.495591640E-2,5.416618544E-2
1.154403392E1,4.795255875E-3,-4.908476243E-2,2.762809396E-3,4.939576396E-2
1.155398292E1,1.340818626E-2,-4.674726488E-2,-2.012026906E-2,5.262994831E-2
1.156393192E1,1.321232281E-2,-5.426552340E-2,-2.199020863E-2,6.002401003E-2
1.157388192E1,1.372451149E-3,-4.363482853E-2,-1.115619510E-1,1.197996277E-1
1.158383092E1,-5.737558432E-2,-1.016606598E-1,-1.899339366E-1,2.229388878E-1
1.159377992E1,-2.697329717E-1,-3.833089596E-1,-2.165621567E-1,5.163146349E-1
1.160372992E1,-2.331626212E-1,-3.784617275E-1,-2.034129381E-1,4.888506014E-1
1.161367892E1,2.929965577E-1,-4.597143073E-1,-1.903058195E-1,5.774084621E-1
1.162362792E1,7.226611832E-1,-5.914622355E-1,-1.423364317E-1,9.446303094E-1
1.163357792E1,5.162265136E-1,-4.357057494E-1,-8.940860510E-2,6.814126592E-1
1.164352692E1,1.180759777E-1,-1.668735961E-1,-1.575532258E-2,2.050291779E-1
1.165347592E1,-1.678095709E-1,7.146689896E-2,1.158391893E-2,1.827614755E-1
1.166342592E1,-3.099954003E-1,2.060449709E-1,-8.033489585E-2,3.807957113E-1
1.167337492E1,-4.071899750E-1,3.713153701E-1,-1.938433850E-1,5.841695283E-1
1.168332392E1,-3.000595191E-1,5.405550969E-1,-2.643257225E-1,6.723865074E-1
1.169327392E1,-7.264266439E-2,5.820167164E-1,-2.362421304E-1,6.323217211E-1
1.170322292E1,9.729914853E-2,2.809621473E-1,-1.814034337E-1,3.483016771E-1
1.171317192E1,1.298340340E-1,6.878456187E-2,-1.126460248E-1,1.851413494E-1
1.172312192E1,1.736052945E-2,-4.677041620E-4,-7.199442744E-2,7.405946471E-2
1.173307092E1,7.074034587E-4,-4.445627097E-2,-6.288329601E-2,7.701408550E-2
1.174301992E1,6.748326402E-3,-3.624274196E-2,-9.596099496E-2,1.027987782E-1
1.175296992E1,-1.738030035E-3,-1.813155793E-2,-1.401244301E-1,1.413033264E-1
1.176291892E1,-8.741797535E-3,-2.609016661E-2,-1.524193704E-1,1.548831182E-1
1.177286792E1,-8.472926114E-3,-6.533508835E-2,-1.614463019E-1,1.743713642E-1
1.178281792E1,7.124631274E-3,-4.701717236E-1,-1.769636428E-1,5.024224725E-1
1.179276692E1,2.147362540E-1,-8.391145494E-1,-1.299105138E-1,8.758433806E-1
1.180271592E1,2.121796320E-1,-5.824065429E-1,-8.853152275E-2,6.261432807E-1
1.181266592E1,-1.718417195E-2,-2.308072714E-1,-1.168835020E-1,2.592856443E-1
1.182261492E1,-7.075145558E-2,7.638334751E-2,-7.229380488E-2,1.267540077E-1
1.183256392E1,-3.663262334E-2,1.966054269E-1,-1.576935589E-2,2.006098591E-1
1.184251392E1,5.743526246E-2,3.309377148E-1,4.539719760E-2,3.389387644E-1
1.185246292E1,-1.999519346E-3,3.121094246E-1,-2.954715014E-2,3.135112838E-1
1.186241192E1,-5.008057980E-2,3.111893652E-1,-9.517162085E-2,3.292484213E-1
1.187236192E1,5.386117017E-3,2.688784377E-1,-2.003805721E-1,3.353759058E-1
1.188231092E1,-8.555085889E-2,1.890817780E-1,-2.506005532E-1,3.253790182E-1
1.189225992E1,-1.830136107E-1,8.209852573E-2,-2.421004558E-1,3.143990781E-1
1.190220892E1,-1.211503797E-2,-7.282268554E-3,-2.212902153E-1,2.217412117E-1
1.191215892E1,7.596410215E-3,-2.072731968E-2,-2.249891639E-1,2.260695714E-1
1.192210792E1,-5.341530170E-2,-8.157527301E-2,-2.250382805E-1,2.452548619E-1
1.193205792E1,-2.674367701E-1,-3.820713964E-1,-1.230090451E-1,4.823196068E-1
1.194200692E1,-1.458658933E-1,-6.281093672E-1,4.443883896E-3,6.448395026E-1
1.195195592E1,5.163193016E-1,-9.107245955E-1,4.090595126E-2,1.047701392E0
1.196190592E1,5.111483896E-1,-6.995666548E-1,1.450694203E-3,8.664111525E-1
1.197185492E1,1.478338834E-1,-2.732069487E-1,-1.768069375E-1,3.574319334E-1
1.198180392E1,-1.423473587E-2,4.820590764E-2,-1.754585695E-1,1.825161551E-1
1.199175292E1,-5.376763299E-2,3.680723216E-1,-7.242653668E-2,3.789641085E-1
1.200170292E1,-1.888724111E-1,6.514469205E-1,-1.346280473E-1,6.915060296E-1
1.201165192E1,-2.552286974E-1,7.691091254E-1,-4.042764902E-3,8.103621899E-1
1.202160092E1,-1.174073577E-1,7.611358622E-1,-4.042706430E-2,7.711981820E-1
1.203155092E1,-1.020476175E-3,1.271075048E-2,-2.297394419E-1,2.300930588E-1
1.204149992E1,7.152798409E-3,-5.839380383E-2,-1.896655494E-1,1.985800078E-1
1.205144892E1,-2.491699588E-3,-2.081663590E-2,-1.797673827E-1,1.809857806E-1
1.206139892E1,-3.692206051E-3,-2.610679463E-2,-2.043999481E-1,2.060935125E-1
1.207134792E1,-6.569812736E-3,-2.221751913E-2,-1.997894186E-1,2.011282983E-1
1.208129692E1,4.606134994E-3,-1.473819941E-2,-1.874669963E-1,1.881018493E-1
1.209124692E1,8.208759874E-4,-1.337302074E-2,-1.810783285E-1,1.815733256E-1
1.210119592E1,1.744863968E-3,-2.097743433E-2,-1.516861296E-1,1.531397375E-1
1.211114492E1,-3.312630393E-3,-2.235814467E-2,-1.227465051E-1,1.248101145E-1
1.212109492E1,7.602275703E-3,-3.490034916E-2,-3.664800882E-2,5.117524321E-2
1.213104392E1,1.315979837E-2,-5.354920294E-2,6.060697496E-2,8.193840883E-2
1.214099292E1,1.587546458E-2,-5.681417853E-2,5.451534569E-2,8.032312353E-2
1.215094292E1,1.318435667E-2,-4.192285515E-2,-5.700976789E-2,7.198240535E-2
1.216089192E1,1.051603463E-3,-2.362406686E-2,-2.236074668E-1,2.248544009E-1
1.217084092E1,-7.001200207E-3,3.282736503E-3,-3.391478634E-1,3.392360040E-1
1.218079092E1,-8.441259786E-3,-4.549937770E-3,-2.787379396E-1,2.789028429E-1
1.219073992E1,3.753090184E-3,-2.388974972E-2,-1.288252705E-1,1.310753835E-1
1.220068892E1,-5.054735206E-4,-5.174445983E-2,3.821330845E-2,6.432730034E-2
1.221063892E1,-4.558125699E-2,-1.392456301E-1,1.022566921E-1,1.786712835E-1
1.222058792E1,-6.797327897E-2,-1.618350687E-1,4.006629109E-2,1.800451715E-1
1.223053692E1,3.761667319E-2,-5.525216796E-3,-4.471307337E-2,5.869242756E-2
1.224048692E1,-2.046035774E-2,-9.358329780E-2,5.560117364E-3,9.595506642E-2
1.225043592E1,-6.122975824E-2,-1.241717640E-1,-2.318479478E-1,2.700392215E-1
1.226038492E1,1.052999485E-1,1.484193267E-1,-4.333330590E-1,4.699935273E-1
1.227033492E1,9.063421804E-2,1.366049179E-1,-3.942561167E-1,4.269816749E-1
1.228028392E1,1.443111096E-2,-9.912309609E-3,-1.778939348E-1,1.787533577E-1
1.229023292E1,1.699471302E-2,-3.763724808E-2,-6.300959587E-3,4.177421220E-2
1.230018292E1,9.551627766E-3,-5.010939561E-2,1.265512884E-2,5.255794333E-2
1.231013192E1,1.088764345E-2,-4.169086687E-2,-3.456113756E-2,5.523713778E-2
1.232008092E1,4.551143758E-3,-4.532297451E-2,-7.510339200E-2,8.783737484E-2
1.233003092E1,3.957359008E-3,-4.173691370E-2,-9.015704870E-2,9.942798442E-2
1.233997992E1,4.282701742E-3,-3.989335969E-2,-7.459117591E-2,8.469749232E-2
1.234992892E1,1.291551266E-2,-3.555626057E-2,-8.350817978E-2,9.167701033E-2
1.235987792E1,7.589082923E-3,-2.924959995E-2,-1.389894855E-1,1.422364593E-1
1.236982792E1,-1.886750311E-3,-3.179372348E-2,-1.824196798E-1,1.851792112E-1
1.237977692E1,5.421647988E-4,-4.366934538E-2,-7.562613308E-2,8.733050826E-2
1.238972592E1,1.211095406E-2,-3.321350053E-2,-1.276686913E-1,1.324730409E-1
1.239967592E1,7.678307779E-4,-2.258063123E-2,-2.211615765E-1,2.223126568E-1
1.240962492E1,3.903272264E-3,-3.386188366E-2,-1.828693306E-1,1.860189635E-1
1.241957392E1,-3.071250021E-4,-2.743023880E-2,-1.450682509E-1,1.476391200E-1
1.242952392E1,1.182182752E-2,-3.100551881E-2,-9.344903111E-2,9.916561510E-2
1.243947292E1,8.249087390E-3,-3.970281355E-2,-4.679000437E-2,6.191660000E-2
1.244942192E1,1.006864954E-2,-4.748640776E-2,-1.727209032E-2,5.152340952E-2
1.245937192E1,9.681856222E-3,-6.500240006E-2,9.140192091E-2,1.125760254E-1
1.246932117E1,1.965879584E-2,-7.686077267E-2,8.029045701E-2,1.128742846E-1
1.247927017E1,1.118005905E-3,-7.765774816E-2,3.676787674E-2,8.592934625E-2
1.248922017E1,2.309485730E-2,-8.185831480E-2,1.079045177E-2,8.573558179E-2
1.249916917E1,2.244112032E-1,-2.158330089E-1,-4.173157811E-2,3.141429618E-1
1.250911817E1,4.534285504E-1,-3.741698346E-1,-9.623055160E-2,5.957019679E-1
1.251906817E1,2.302801083E-1,-2.837730501E-1,-1.484549582E-1,3.944552533E-1
1.252901717E1,-2.790562839E-1,-5.935026214E-1,-1.957068926E-1,6.844113960E-1
1.253896617E1,-3.000682351E-1,-7.269784749E-1,-1.729319876E-1,8.052602815E-1
1.254891617E1,-8.494560812E-2,-5.251102980E-1,-3.824079037E-3,5.319503783E-1
1.255886517E1,7.630241839E-2,-4.368864850E-1,1.549547231E-1,4.697901936E-1
1.256881417E1,3.784913655E-2,-2.118371679E-1,2.902721572E-1,3.613384398E-1
1.257876417E1,-3.153907724E-2,4.682742655E-3,3.562720191E-1,3.576959506E-1
1.258871317E1,-5.730322503E-2,9.492669560E-2,4.257936591E-1,4.399942923E-1
1.259866217E1,3.473355733E-2,-1.416385666E-1,4.243254232E-1,4.486869380E-1
1.260861217E1,-7.366654839E-2,-2.827375813E-1,2.689304048E-1,3.971030884E-1
1.261856117E1,-1.592440943E-1,-7.240462424E-1,1.862776726E-1,7.643958490E-1
1.262851017E1,5.091218177E-2,-7.313698800E-1,2.638041508E-1,7.791576102E-1
1.263845917E1,1.434693663E-1,-8.485448657E-1,2.986599880E-1,9.109388765E-1
1.264840917E1,9.245727025E-2,-1.140831389E0,3.097609270E-1,1.185747206E0
1.265835817E1,8.183686282E-2,-1.275268671E0,5.169488275E-1,1.378493215E0
1.266830717E1,1.455512675E-1,-1.282939779E0,7.191122156E-1,1.477918139E0
1.267825717E1,2.188622320E-1,-1.552242798E0,7.832444769E-1,1.752378467E0
1.268820617E1,2.260464866E-1,-1.910047080E0,7.473256159E-1,2.063461276E0
1.269815517E1,3.137938978E-1,-2.299105606E0,6.818099034E-1,2.418515649E0
1.270810517E1,3.984992219E-1,-2.727966130E0,5.699263555E-1,2.815211695E0
1.271805417E1,4.775572320E-1,-3.274520288E0,3.718051475E-1,3.329982446E0
1.272800317E1,5.812472228E-1,-4.002535181E0,-1.290480494E-2,4.044539868E0
1.273795317E1,4.075479343E-1,-4.657421288E0,-6.186324924E-1,4.715970158E0
1.274790217E1,2.379696903E-1,-5.268309143E0,-1.303531480E0,5.432394051E0
1.275785117E1,4.863437699E-1,-6.158370556E0,-1.736844074E0,6.417062061E0
1.276780117E1,7.842885704E-1,-7.094716773E0,-2.727969346E0,7.641461340E0
1.277775017E1,8.727286573E-1,-7.833037677E0,-3.998039550E0,8.837559323E0
1.278769917E1,8.953858139E-1,-8.532099205E0,-5.259041891E0,1.006260176E1
1.279764917E1,9.036926609E-1,-9.144342445E0,-6.168287433E0,1.106722319E1
1.280759817E1,8.974194025E-1,-9.576579736E0,-6.002238203E0,1.133768515E1
1.281754717E1,8.701072774E-1,-9.935899909E0,-5.406215724E0,1.134488264E1
1.282749717E1,8.392974941E-1,-1.026146469E1,-4.880537296E0,1.139393357E1
1.283744617E1,7.935708059E-1,-1.056758631E1,-4.296538739E0,1.143520355E1
1.284739517E1,7.415219620E-1,-1.082088769E1,-3.710090491E0,1.146325594E1
1.285734517E1,6.720996516E-1,-1.103975716E1,-3.125029787E0,1.149320527E1
1.286729417E1,5.987173145E-1,-1.120635252E1,-2.511382631E0,1.149990617E1
1.287724317E1,5.043617456E-1,-1.134605537E1,-1.907181652E0,1.151627956E1
1.288719217E1,3.931873919E-1,-1.143518447E1,-1.286400307E0,1.151402910E1
1.289714217E1,2.758894319E-1,-1.148243232E1,-6.732126691E-1,1.150545880E1
1.290709117E1,1.311005683E-1,-1.150461314E1,-6.247283975E-2,1.150552970E1
1.291704017E1,-1.997544084E-2,-1.146692550E1,5.436378586E-1,1.147982237E1
1.292699017E1,-1.918397269E-1,-1.139475215E1,1.136738630E0,1.145291900E1
1.293693917E1,-3.854150901E-1,-1.127598584E1,1.724583778E0,1.141361427E1
1.294688817E1,-6.020933506E-1,-1.112030957E1,2.311485624E0,1.137395126E1
1.295683817E1,-8.323709556E-1,-1.093723910E1,2.848572847E0,1.133271405E1
1.296678717E1,-1.065496008E0,-1.070575835E1,3.351013563E0,1.126844424E1
1.297673617E1,-1.339568455E0,-1.043310035E1,3.850239187E0,1.120126637E1
1.298668617E1,-1.628840446E0,-1.013747916E1,4.283471382E0,1.112518458E1
1.299663517E1,-1.931222625E0,-9.814614623E0,4.702483440E0,1.105303721E1
1.300658417E1,-2.265056393E0,-9.446406097E0,5.080950905E0,1.096271548E1
1.301653417E1,-2.597682272E0,-9.053134652E0,5.414833935E0,1.086405204E1
1.302648317E1,-2.951200837E0,-8.632198859E0,5.681457029E0,1.074725069E1
1.303643217E1,-3.307818719E0,-8.173334518E0,5.927334786E0,1.062442278E1
1.304638217E1,-3.688744353E0,-7.706739573E0,6.111274742E0,1.050468223E1
1.305633117E1,-4.067335195E0,-7.209936157E0,6.255612091E0,1.037588924E1
1.306628017E1,-4.453870063E0,-6.699588252E0,6.346844442E0,1.024713988E1
1.307623017E1,-4.670630148E0,-5.918601385E0,6.488838812E0,9.947344242E0
1.308617917E1,-5.322644395E-1,-1.099533820E-1,5.851732627E0,5.876918403E0
1.309612817E1,1.079480560E1,7.107195901E0,-4.875240596E0,1.381332807E1
1.310607717E1,2.906678266E1,1.264203341E1,-4.860329611E1,5.802567756E1
1.311602717E1,3.504498764E1,1.239887812E1,-7.060971790E1,7.979734080E1
1.312597617E1,2.204876732E1,1.641818633E1,-6.848146238E1,7.379305978E1
1.313592517E1,8.496185607E0,2.277116041E1,-6.225973490E1,6.683551082E1
1.314587517E1,-6.809569700E0,1.325486898E0,-1.135249666E1,1.330437279E1
1.315582417E1,-3.963160031E0,-1.487357123E0,7.316827353E0,8.453095951E0
1.316577317E1,-2.963279430E0,-1.304375233E0,7.196534339E0,7.891294331E0
1.317572317E1,-1.910127186E0,-1.892708039E0,8.790139756E0,9.192251439E0
1.318567217E1,-1.222386964E0,-2.044196825E0,9.283430164E0,9.584103826E0
1.319562117E1,-9.869575234E-1,-2.128993146E0,9.281988825E0,9.574028072E0
1.320557117E1,-7.189619422E-1,-2.631730901E0,8.851106919E0,9.262019623E0
1.321552017E1,-7.415180882E-1,-2.630103328E0,8.719542228E0,9.137708097E0
1.322546917E1,-7.950375800E-1,-2.161972904E0,8.566536967E0,8.870838021E0
1.323541917E1,-9.055723945E-1,-1.248619108E0,8.082971063E0,8.228823260E0
1.324536817E1,-1.026665088E0,-1.394148704E-1,7.460630851E0,7.532230108E0
1.325531717E1,-1.086724690E0,7.671845144E-1,6.288514373E0,6.427671091E0
1.326526717E1,-1.266946913E0,1.586026548E0,3.684574996E0,4.206747864E0
1.327521617E1,-2.007532005E0,1.982316326E0,-1.040590378E0,3.007090139E0
1.328516517E1,-2.074033266E0,1.869420625E0,-5.117605931E0,5.829771687E0
1.329511417E1,-1.140657069E0,1.217984084E0,-7.543561910E0,7.725924545E0
1.330506417E1,-7.817165995E-1,4.172514617E-1,-8.969337620E0,9.013001551E0
1.331501317E1,2.653068122E-1,-1.661310911E-1,-7.589509331E0,7.595962028E0
1.332496217E1,1.152765337E0,-4.103657806E-1,-3.208057326E0,3.433496731E0
1.333491217E1,1.302912844E0,-3.030328283E-1,3.077062154E-1,1.372622996E0
1.334486117E1,8.779475896E-1,-4.613803983E-2,2.069169406E0,2.248195436E0
1.335481017E1,2.180536352E-1,2.631501397E-1,2.627288479E0,2.649422604E0
1.336476017E1,-3.967204258E-2,5.565751156E-1,1.971347242E0,2.048794689E0
1.337470917E1,-6.650403813E-2,5.622849217E-1,4.351971513E-1,7.141314170E-1
1.338465817E1,-3.467460278E-1,3.907094881E-1,-8.020672488E-1,9.571826281E-1
1.339460817E1,-5.009091841E-1,4.311394760E-1,-1.270341514E0,1.431977242E0
1.340455717E1,-4.143893228E-1,5.378751352E-1,-5.306968009E-1,8.617814494E-1
1.341450617E1,-1.064557238E-1,4.224417427E-1,5.152133739E-1,6.747108031E-1
1.342445617E1,2.041126306E-1,2.892073792E-1,6.670199561E-1,7.551281322E-1
1.343440517E1,2.851802556E-1,1.750059950E-1,4.274548531E-2,3.373159543E-1
1.344435417E1,1.398710994E-1,1.923157999E-1,-5.533085686E-1,6.022455176E-1
1.345430317E1,-6.168476298E-2,3.702518347E-1,-5.670571268E-1,6.800332463E-1
1.346425304E1,-1.684946088E-1,5.027175817E-1,-1.467592657E-2,5.304062433E-1
1.347420204E1,-1.944623858E-1,4.427842060E-1,4.121784174E-1,6.354246772E-1
1.348415104E1,-1.022700676E-1,3.253507733E-1,2.814615726E-1,4.421910326E-1
1.349410104E1,-6.832179129E-3,2.966792437E-1,-1.397893846E-1,3.280340293E-1
1.350405004E1,3.473187625E-2,3.462437519E-1,-3.283761227E-1,4.784578529E-1
1.351399904E1,7.729946002E-3,4.008447593E-1,-1.616182101E-1,4.322692668E-1
1.352394904E1,-9.448150322E-3,3.519029796E-1,4.368922591E-2,3.547304936E-1
1.353389804E1,-2.630172618E-2,2.932916594E-1,4.188126683E-2,2.974320406E-1
1.354384704E1,-7.278942950E-2,3.269210431E-1,-5.932175696E-2,3.401392955E-1
1.355379704E1,-1.177826576E-1,4.019019359E-1,-7.492505193E-2,4.254546791E-1
1.356374604E1,-8.080457345E-2,4.431315306E-1,6.106247306E-3,4.504799871E-1
1.357369504E1,-5.402461812E-3,3.707833466E-1,1.624005675E-2,3.711781461E-1
1.358364504E1,3.845457919E-2,2.782771790E-1,-9.344435334E-2,2.960553836E-1
1.359359404E1,-7.601380348E-6,3.051153141E-1,-1.425948787E-1,3.367917077E-1
1.360354304E1,-5.300310954E-2,3.703354499E-1,-7.375560880E-2,3.813103262E-1
1.361349304E1,-7.503600284E-2,3.955135605E-1,1.851462364E-2,4.029940068E-1
1.362344204E1,-6.381629236E-2,3.699618128E-1,3.267657995E-2,3.768448235E-1
1.363339104E1,-3.313850999E-2,3.312795576E-1,-4.480662882E-2,3.359344283E-1
1.364334004E1,-2.605073445E-2,3.400091583E-1,-7.801296651E-2,3.498155105E-1
1.365329004E1,-1.735322043E-2,3.521728286E-1,-7.136643648E-2,3.597499183E-1
1.366323904E1,-1.672632582E-2,3.470679170E-1,-5.616835356E-2,3.519812394E-1
1.367318804E1,-3.433265761E-2,3.293251258E-1,-5.378210485E-2,3.354493772E-1
1.368313804E1,-5.690312929E-2,3.434888363E-1,-4.160644770E-2,3.506474629E-1
1.369308704E1,-5.830251418E-2,3.778190088E-1,-5.747812986E-3,3.823341784E-1
1.370303604E1,-3.730289698E-2,3.887880930E-1,-1.419353127E-2,3.908313495E-1
1.371298604E1,-1.501923122E-2,3.487101075E-1,-6.116830766E-2,3.543527596E-1
1.372293504E1,-1.486588798E-2,3.138200641E-1,-8.598447561E-2,3.257258929E-1
1.373288404E1,-3.281179681E-2,3.345890817E-1,-6.840072870E-2,3.430818085E-1
1.374283404E1,-3.815388612E-2,3.692554691E-1,-4.008558691E-2,3.733793979E-1
1.375278304E1,-5.172242314E-2,3.688444099E-1,-1.682653248E-2,3.728331261E-1
1.376273204E1,-4.215411253E-2,3.597867805E-1,-3.670998931E-2,3.641031721E-1
1.377268104E1,-3.235681035E-2,3.459899828E-1,-5.242847443E-2,3.514324633E-1
1.378263104E1,-3.300219677E-2,3.455625513E-1,-6.143552542E-2,3.525293543E-1
1.379258004E1,-2.371301763E-2,3.444591817E-1,-5.257465482E-2,3.492542475E-1
1.380252904E1,-2.864792146E-2,3.490942696E-1,-5.538599610E-2,3.546196850E-1
1.381247904E1,-3.227582641E-2,3.448418820E-1,-4.804540157E-2,3.496655733E-1
1.382242804E1,-5.284603871E-2,3.620593008E-1,-3.521544099E-2,3.675864095E-1
1.383237704E1,-4.507603928E-2,3.634480146E-1,-2.446007252E-2,3.670485033E-1
1.384232704E1,-2.825645037E-2,3.501327351E-1,-4.379739940E-2,3.539909199E-1
1.385227604E1,-1.987877905E-2,3.362476444E-1,-6.931991100E-2,3.438937253E-1
1.386222504E1,-2.678901851E-2,3.386581591E-1,-6.332651496E-2,3.455680074E-1
1.387217504E1,-3.284987681E-2,3.569377246E-1,-4.037619352E-2,3.607130309E-1
1.388212404E1,-4.396287560E-2,3.577750459E-1,-3.046516299E-2,3.617510803E-1
1.389207304E1,-4.087715372E-2,3.487612706E-1,-4.728760242E-2,3.543183356E-1
1.390202304E1,-4.187088802E-2,3.435671890E-1,-4.333605409E-2,3.488116945E-1
1.391197204E1,-3.567883283E-2,3.365040448E-1,-5.072225690E-2,3.421705695E-1
1.392192104E1,-2.738901593E-2,3.419510186E-1,-5.021004081E-2,3.467011761E-1
1.393187104E1,-2.533627778E-2,3.394332075E-1,-5.470245659E-2,3.447451060E-1
1.394182004E1,-3.686947212E-2,3.451324886E-1,-5.795526266E-2,3.519014139E-1
1.395176904E1,-3.803738035E-2,3.500494123E-1,-4.128894389E-2,3.545225102E-1
1.396171804E1,-4.201326773E-2,3.494717073E-1,-3.898104787E-2,3.541399596E-1
1.397166804E1,-3.290981077E-2,3.432873997E-1,-3.305723369E-2,3.464420228E-1
1.398161704E1,-3.183867395E-2,3.350141743E-1,-5.557661533E-2,3.410820404E-1
1.399156604E1,-2.939746141E-2,3.363444158E-1,-6.032747805E-2,3.429740244E-1
1.400151604E1,-3.697157912E-2,3.478909126E-1,-5.294244468E-2,3.538331346E-1
1.401146504E1,-4.319045842E-2,3.528917438E-1,-4.388510764E-2,3.582232561E-1
1.402141404E1,-4.011986621E-2,3.461487347E-1,-3.321744740E-2,3.500456385E-1
1.403136404E1,-3.666905880E-2,3.443694270E-1,-5.755063534E-2,3.510655177E-1
1.404131304E1,-3.549581498E-2,3.369469714E-1,-5.368562579E-2,3.430384247E-1
1.405126204E1,-3.524175346E-2,3.438478553E-1,-5.502405345E-2,3.500013932E-1
1.406121204E1,-3.385822915E-2,3.445346108E-1,-6.363057017E-2,3.519933624E-1
1.407116104E1,-4.052537061E-2,3.484841126E-1,-5.413820028E-2,3.549851083E-1
1.408111004E1,-4.225965478E-2,3.492237854E-1,-4.749927163E-2,3.549638172E-1
1.409105904E1,-5.060655512E-2,3.499140492E-1,-3.759408832E-2,3.555477193E-1
1.410100904E1,-4.782298811E-2,3.465080461E-1,-5.020068526E-2,3.533765315E-1
1.411095804E1,-3.656315111E-2,3.393016452E-1,-5.375462294E-2,3.454736313E-1
1.412090704E1,-4.123595349E-2,3.390695107E-1,-6.056662917E-2,3.468960270E-1
1.413085704E1,-3.697333328E-2,3.429839292E-1,-5.467789829E-2,3.492773620E-1
1.414080604E1,-3.623775356E-2,3.425600061E-1,-4.634970903E-2,3.475756437E-1
1.415075504E1,-3.868174352E-2,3.392358640E-1,-4.610763431E-2,3.445332533E-1
1.416070504E1,-3.981983095E-2,3.415873218E-1,-5.196420550E-2,3.478042495E-1
1.417065404E1,-3.874789014E-2,3.346171483E-1,-5.034920454E-2,3.405951810E-1
1.418060304E1,-3.921055108E-2,3.336929959E-1,-5.394875050E-2,3.402924485E-1
1.419055304E1,-2.771755636E-2,3.478876966E-1,-5.117424667E-2,3.527221512E-1
1.420050204E1,-2.935667709E-2,3.419156429E-1,-4.484697461E-2,3.460915666E-1
1.421045104E1,-4.373242222E-2,3.405067563E-1,-4.957094014E-2,3.468640280E-1
1.422040004E1,-3.692428976E-2,3.438639352E-1,-4.756125212E-2,3.490958060E-1
1.423035004E1,-3.584248178E-2,3.407058540E-1,-4.637192845E-2,3.457101650E-1
1.424029904E1,-3.709787898E-2,3.444273144E-1,-6.024620175E-2,3.516191581E-1
1.425024804E1,-4.076262139E-2,3.413791609E-1,-4.988142729E-2,3.474039142E-1
1.426019804E1,-3.518065006E-2,3.468670651E-1,-4.755774379E-2,3.518752307E-1
1.427014704E1,-3.320231773E-2,3.454093543E-1,-4.924466550E-2,3.504783203E-1
1.428009604E1,-4.219994009E-2,3.433473337E-1,-4.798575997E-2,3.492432671E-1
1.429004604E1,-4.812908985E-2,3.404728425E-1,-5.018548250E-2,3.475007171E-1
1.429999504E1,-3.204917371E-2,3.404003370E-1,-5.883585334E-2,3.469311122E-1
1.430994404E1,-3.866442114E-2,3.359432968E-1,-5.479308844E-2,3.425713337E-1
1.431989404E1,-4.148497179E-2,3.357661262E-1,-4.407748103E-2,3.411784265E-1
1.432984304E1,-3.440450527E-2,3.342970133E-1,-4.821497083E-2,3.395038240E-1
1.433979204E1,-3.651651956E-2,3.321665803E-1,-5.367802441E-2,3.384515084E-1
1.434974104E1,-3.794360563E-2,3.433239448E-1,-4.861784399E-2,3.488190692E-1
1.435969104E1,-3.489472121E-2,3.385903314E-1,-4.501303554E-2,3.433470947E-1
1.436964004E1,-3.064481869E-2,3.347799933E-1,-5.961236358E-2,3.414240512E-1
1.437958904E1,-2.867671899E-2,3.328097740E-1,-5.433466673E-2,3.384330892E-1
1.438953904E1,-2.854427956E-2,3.314906421E-1,-5.876568675E-2,3.378671746E-1
1.439948804E1,-3.995731361E-2,3.380015168E-1,-6.469008565E-2,3.464482926E-1
1.440943704E1,-3.704613112E-2,3.368256417E-1,-5.476034403E-2,3.432530029E-1
1.441938704E1,-4.054444715E-2,3.282042146E-1,-5.094445109E-2,3.346000534E-1
1.442933604E1,-4.627406068E-2,3.247002706E-1,-5.460480809E-2,3.324954729E-1
1.443928504E1,-3.855844036E-2,3.301571846E-1,-4.915169477E-2,3.360154892E-1
1.444923504E1,-3.706528075E-2,3.387736416E-1,-5.416392803E-2,3.450726682E-1
1.445918404E1,-3.899595827E-2,3.352799302E-1,-5.173967242E-2,3.414825180E-1
1.446913312E1,-3.534780733E-2,3.293414980E-1,-5.640575051E-2,3.360013370E-1
1.447908213E1,-3.456077211E-2,3.311345467E-1,-4.857808292E-2,3.364585638E-1
1.448903213E1,-3.979205668E-2,3.320224464E-1,-4.474114001E-2,3.373782481E-1
1.449898112E1,-2.806729294E-2,3.250528577E-1,-5.964335382E-2,3.316692070E-1
1.450893013E1,-3.321657032E-2,3.352851927E-1,-5.982110918E-2,3.421959470E-1
1.451888012E1,-3.155216038E-2,3.400129589E-1,-5.136194229E-2,3.453149290E-1
1.452882912E1,-3.984175801E-2,3.316765836E-1,-4.352199554E-2,3.368840837E-1
1.453877813E1,-3.675574377E-2,3.394954804E-1,-5.752841592E-2,3.462913290E-1
1.454872812E1,-3.475022189E-2,3.315906295E-1,-6.540929317E-2,3.397621214E-1
1.455867713E1,-3.416864321E-2,3.313123021E-1,-5.902764201E-2,3.382596639E-1
1.456862613E1,-3.536052503E-2,3.347071955E-1,-4.307760715E-2,3.393154191E-1
1.457857512E1,-3.749256603E-2,3.373422432E-1,-4.196078897E-2,3.420032008E-1
1.458852513E1,-3.083426848E-2,3.331407264E-1,-5.714016080E-2,3.394090359E-1
1.459847412E1,-3.153169513E-2,3.288541326E-1,-5.573098183E-2,3.350301936E-1
1.460842312E1,-3.210099466E-2,3.408353698E-1,-5.129119098E-2,3.461647143E-1
1.461837313E1,-3.944312409E-2,3.297557732E-1,-6.531398356E-2,3.384679401E-1
1.462832212E1,-3.649649285E-2,3.305433932E-1,-6.019708514E-2,3.379565325E-1
1.463827113E1,-2.847762130E-2,3.281223536E-1,-5.023459911E-2,3.331647772E-1
1.464822112E1,-4.918063849E-2,3.341327065E-1,-4.923940301E-2,3.413032663E-1
1.465817012E1,-5.403031915E-2,3.374697125E-1,-2.789940476E-2,3.429044459E-1
1.466811913E1,-5.357708685E-2,3.390157163E-1,-2.073071837E-2,3.438486918E-1
1.467806912E1,-1.437512387E-1,3.628796652E-1,7.819890797E-1,8.739868368E-1
1.468801813E1,1.864219527E-1,4.534840259E-1,4.722334152E-1,6.807387933E-1
1.469796713E1,-1.003298883E-1,3.415221253E-1,-3.013771892E-1,4.664028931E-1
1.470791612E1,-1.083099490E-1,2.570070550E-1,-7.985635972E-1,8.458649361E-1
1.471786613E1,1.696679257E-2,2.009959915E-1,-6.650143611E-1,6.949326307E-1
1.472781512E1,3.669990286E-2,2.387695894E-1,-2.267117536E-1,3.312944595E-1
1.473776412E1,-3.826089017E-2,3.426854289E-1,8.804386497E-2,3.558776771E-1
1.474771413E1,-4.927134342E-2,3.666309464E-1,-1.174062431E-1,3.881109919E-1
1.475766312E1,1.690203466E-2,2.818153292E-1,-1.967775178E-1,3.441321695E-1
1.476761213E1,-8.340760767E-2,3.425179061E-1,-3.403477120E-1,4.900121530E-1
1.477756212E1,-1.883671752E-1,3.586632380E-1,1.279019952E-2,4.053209841E-1
1.478751112E1,4.047428057E-2,3.529461229E-1,5.010783148E-1,6.142382360E-1
1.479746013E1,1.004892249E-1,3.555861408E-1,3.268055606E-1,4.932965257E-1
1.480740912E1,-4.331726991E-2,3.179578462E-1,-2.136923432E-1,3.855359846E-1
1.481735913E1,-6.199839301E-2,3.086014241E-1,-3.628185618E-1,4.803290002E-1
1.482730813E1,-5.199972734E-2,3.386455876E-1,-7.837666333E-2,3.514650864E-1
1.483725712E1,-8.748954892E-2,3.593388838E-1,1.531584585E-1,4.002953509E-1
1.484720713E1,-2.568762235E-2,3.150175738E-1,6.933277488E-2,3.235783668E-1
1.485715612E1,6.236786395E-3,2.729135281E-1,-1.586513329E-1,3.157387159E-1
1.486710512E1,-3.320962675E-2,3.326615471E-1,-2.073674101E-1,3.934054231E-1
1.487705513E1,-7.547790617E-2,3.969358957E-1,-3.076103210E-2,4.052175474E-1
1.488700412E1,-4.143636681E-2,3.251002201E-1,7.876433372E-2,3.370622285E-1
1.489695313E1,-3.831351511E-2,2.603820679E-1,-1.248614430E-2,2.634817840E-1
1.490690213E1,-8.005817637E-2,3.163463536E-1,-1.225909692E-1,3.485869659E-1
1.491685212E1,-5.236093909E-2,3.809460998E-1,-9.533124983E-2,3.961687091E-1
1.492680113E1,1.629794419E-2,3.663359544E-1,-1.633302748E-2,3.670618779E-1
1.493675012E1,-2.003036812E-3,3.186963496E-1,-1.884733021E-2,3.192594513E-1
1.494670013E1,-6.537428297E-2,2.859843940E-1,-8.451974809E-2,3.052940521E-1
1.495664913E1,-6.685085110E-2,2.913199782E-1,-8.816958010E-2,3.116251608E-1
1.496659812E1,-2.124052249E-2,3.422737849E-1,-4.221572757E-2,3.455208695E-1
1.497654813E1,-1.189228646E-2,3.630015796E-1,-2.670306444E-2,3.641766425E-1
1.498649712E1,-2.125236310E-2,3.195137903E-1,-6.619048119E-2,3.269891511E-1
1.499644612E1,-3.717045754E-2,2.733441755E-1,-1.240533578E-1,3.024696957E-1
1.500639613E1,-6.131748475E-2,3.028895715E-1,-1.161759889E-1,3.301496431E-1
1.501634512E1,-6.606155008E-2,3.567196235E-1,-2.882034123E-2,3.639280564E-1
1.502629413E1,-1.849189259E-2,3.504467306E-1,1.621900678E-2,3.513088630E-1
1.503624313E1,2.317909375E-3,3.310181871E-1,-5.277696848E-2,3.352071319E-1
1.504619312E1,-2.893772408E-2,3.425252151E-1,-7.239554644E-2,3.512862508E-1
1.505614213E1,-3.823830530E-2,3.466565654E-1,-3.662345052E-2,3.506768020E-1
1.506609112E1,-3.835634597E-2,3.190436742E-1,-2.924952686E-2,3.226695060E-1
1.507604112E1,-1.102053970E-2,3.028802159E-1,-7.800419569E-2,3.129577161E-1
1.508599013E1,-1.340320699E-2,3.111098796E-1,-6.875156164E-2,3.188977585E-1
1.509593912E1,-2.357509643E-2,3.401348734E-1,-5.199285686E-2,3.448924099E-1
1.510588913E1,-2.750296354E-2,3.637900767E-1,-3.372557044E-2,3.663837428E-1
1.511583813E1,-1.843765967E-2,3.381526673E-1,-5.165781140E-2,3.425721868E-1
1.512578712E1,-1.729409046E-2,2.872871536E-1,-4.896341443E-2,2.919424775E-1
1.513573613E1,-2.774496518E-2,2.901631066E-1,-1.626110673E-2,2.919397800E-1
1.514568612E1,-5.723247372E-2,3.179666170E-1,-2.712523341E-2,3.242130532E-1
1.515563513E1,-1.073512249E-2,3.382427144E-1,4.819275141E-3,3.384473402E-1
1.516558413E1,-2.177415401E-2,3.426205248E-1,1.095850074E-1,3.603773184E-1
1.517553412E1,-4.094688177E-2,3.028296375E-1,-2.395955086E-2,3.065232399E-1
1.518548313E1,-4.518063135E-2,2.824263632E-1,-1.308817363E-1,3.145408860E-1
1.519543212E1,-7.853351489E-2,2.855049223E-1,-1.390596521E-1,3.271363025E-1
1.520538212E1,-4.978794493E-2,2.922935396E-1,-4.291388512E-2,2.995929811E-1
1.521533113E1,-1.131947860E-3,3.213305202E-1,2.053191304E-2,3.219878010E-1
1.522528012E1,-6.195782796E-3,3.312696174E-1,-3.547388792E-2,3.332211636E-1
1.523522913E1,-5.055458799E-2,3.037549594E-1,-2.368718755E-1,3.884985549E-1
1.524517913E1,-5.910029367E-2,2.757865575E-1,-2.985471368E-1,4.107084889E-1
1.525512812E1,-1.256775682E-1,3.156239301E-1,-6.699213445E-2,3.462676168E-1
1.526507713E1,-1.797306184E-1,3.267090815E-1,1.958209133E-1,4.211742504E-1
1.527502712E1,-4.314521559E-2,2.327960739E-1,1.730343139E-1,2.932514202E-1
1.528497612E1,3.364648685E-2,2.734617046E-1,-1.132009256E-1,2.978721865E-1
1.529492513E1,1.822796389E-2,3.133984798E-1,-2.014775097E-1,3.730201774E-1
1.530487512E1,-4.344495848E-2,3.556820351E-1,-1.753579974E-1,3.989330793E-1
1.531482413E1,-1.119608042E-1,3.924309084E-1,-1.296853960E-1,4.282003520E-1
1.532477312E1,-2.197178990E-2,3.764414048E-1,-2.039450347E-2,3.776331905E-1
1.533472212E1,-1.563165396E-2,3.466828778E-1,5.305646539E-2,3.510674507E-1
1.534467213E1,-1.164663032E-2,3.458440948E-1,1.243702769E-2,3.462635723E-1
1.535462112E1,-1.394012757E-2,3.262313640E-1,6.382820606E-2,3.327089868E-1
1.536457013E1,-4.406213209E-2,3.036643276E-1,8.263285160E-2,3.177761531E-1
1.537452013E1,-8.097845502E-2,2.703232116E-1,2.719656944E-2,2.834992104E-1
1.538446912E1,-1.204936460E-1,2.644175237E-1,-4.815883756E-2,2.945413710E-1
1.539441813E1,-1.231737904E-1,2.530473205E-1,-1.201111650E-1,3.059925180E-1
1.540436812E1,-8.871147081E-2,2.602507979E-1,-1.481386238E-1,3.123223571E-1
1.541431712E1,-3.969952449E-2,3.151383188E-1,-1.137710291E-1,3.373900700E-1
1.542426613E1,-1.300917774E-2,3.722319943E-1,-8.775150418E-2,3.826567950E-1
1.543421512E1,3.770065382E-3,3.564173225E-1,-4.800213218E-2,3.596550095E-1
1.544416513E1,-4.530020691E-2,3.446489239E-1,-3.048562825E-2,3.489475075E-1
1.545411413E1,-1.983485185E-2,3.682816154E-1,-2.096928477E-2,3.694109913E-1
1.546406312E1,-6.591734312E-2,3.672402263E-1,-2.861451924E-2,3.742048512E-1
1.547401317E1,-1.768616820E-1,3.760832629E-1,-1.870968676E-1,4.557673892E-1
1.548396217E1,-1.814124238E-1,3.522561514E-1,-5.720716989E-1,6.958885632E-1
1.549391117E1,-1.513396090E-1,2.247175607E-1,-6.645138395E-1,7.176212805E-1
1.550386117E1,7.699452773E-2,1.660968849E-1,-3.866097128E-1,4.277655930E-1
1.551381017E1,4.196100824E-2,2.249830243E-1,-3.508294308E-1,4.188787139E-1
1.552375917E1,-2.798507378E-1,2.938529921E-1,-4.023901784E-1,5.714751719E-1
1.553370817E1,-1.792412795E-1,3.750681862E-1,-4.499292111E-1,6.125682620E-1
1.554365817E1,-4.191868901E-2,4.294630793E-1,-5.218885553E-1,6.771730776E-1
1.555360717E1,4.173472099E-2,4.173868248E-1,-8.847299212E-1,9.791325661E-1
1.556355617E1,1.937385736E-1,2.772834447E-1,-1.282666276E0,1.326519324E0
1.557350617E1,2.915162254E-1,1.314992023E-1,-1.557029328E0,1.589532661E0
1.558345517E1,1.948176042E-1,1.339535710E-1,-1.902191053E0,1.916827655E0
1.559340417E1,-5.836376376E-2,1.277467516E-1,-2.176919557E0,2.181445465E0
1.560335417E1,-9.768870100E-2,4.444439381E-2,-2.020944495E0,2.023792241E0
1.561330317E1,-6.101628006E-2,-6.187523603E-3,-1.545830741E0,1.547046849E0
1.562325217E1,6.927927285E-3,-2.317543924E-3,-1.417658020E0,1.417676842E0
1.563320117E1,-1.930041634E-2,-9.351247340E-2,-1.711980543E0,1.714641207E0
1.564315117E1,-1.248706524E-1,-2.906349769E-1,-1.935836517E0,1.961510741E0
1.565310017E1,-2.610952089E-1,-3.203209984E-1,-1.826009434E0,1.872187679E0
1.566304917E1,-3.835244295E-1,-2.796653080E-1,-1.493333854E0,1.566955543E0
1.567299917E1,-3.355893941E-1,-3.082883057E-1,-9.855996537E-1,1.085849252E0
1.568294817E1,1.871299043E-2,-3.426351428E-1,-6.543180496E-1,7.388376865E-1
1.569289717E1,5.746452047E-1,-3.428035426E-1,-7.633750534E-1,1.015122087E0
1.570284617E1,9.904588361E-1,-2.665242755E-1,-1.051522917E0,1.468926254E0
1.571279617E1,7.698433895E-1,-9.037631929E-2,-1.183772317E0,1.414971244E0
