"Time (s)","Linear Acceleration x (m/s^2)","Linear Acceleration y (m/s^2)","Linear Acceleration z (m/s^2)","Absolute acceleration (m/s^2)"
2.035708399E-3,-6.537669495E-2,-8.766730428E-2,8.450454533E-2,1.382052338E-1
1.198570826E-2,-4.434775030E-2,-3.366651356E-2,-1.067689884E-1,1.204150072E-1
2.193470835E-2,2.556949032E-2,6.336218297E-2,-1.764631212E-1,1.892294856E-1
3.188370843E-2,5.480209680E-2,5.756934643E-2,-2.539322966E-1,2.660810229E-1
4.183270829E-2,-3.407921735E-3,1.445314765E-2,-1.130120605E-1,1.139834779E-1
5.178270838E-2,-5.834004600E-3,-8.574123144E-2,-6.764643788E-3,8.620530601E-2
6.173170847E-2,2.590042446E-3,-1.223559111E-1,1.459523499E-1,1.904724803E-1
7.168070832E-2,1.481558366E-2,-1.437532121E-1,1.286042458E-1,1.934516465E-1
8.162970841E-2,4.947676342E-3,-8.232470334E-2,5.731967032E-2,1.004359542E-1
9.157970827E-2,1.791623421E-4,-2.006647468E-2,-1.070087242E-1,1.088740674E-1
1.015287084E-1,4.305231795E-3,4.742559671E-2,-1.861703762E-1,1.921643339E-1
1.114777084E-1,8.750650585E-3,3.769699931E-2,-2.032448307E-1,2.068963480E-1
1.214267083E-1,1.619276740E-2,-1.175641179E-2,-8.814999193E-2,9.039269888E-2
1.313767084E-1,1.891027914E-2,-8.058983445E-2,3.228072345E-2,8.885024018E-2
1.413257085E-1,-5.791118927E-3,-1.233744961E-1,1.199275625E-1,1.721552311E-1
1.512747083E-1,-1.548737392E-2,-1.180745798E-1,1.079928106E-1,1.607604189E-1
1.612237084E-1,-9.626417309E-3,-6.054148614E-2,-6.342767179E-3,6.162929620E-2
1.711737083E-1,-6.567154080E-5,-4.432774186E-3,-1.180529451E-1,1.181361573E-1
1.811227084E-1,2.221443107E-2,4.391142011E-2,-1.870231926E-1,1.933891630E-1
1.910717085E-1,2.134277567E-2,2.210364461E-2,-1.583712512E-1,1.613243267E-1
2.010207083E-1,8.829350453E-3,-2.682527125E-2,-5.003491670E-2,5.745472562E-2
2.109707084E-1,-3.166851997E-3,-8.888410985E-2,5.199870408E-2,1.030256238E-1
2.209197085E-1,-3.954563309E-3,-1.135698849E-1,1.079051024E-1,1.567075890E-1
2.308687083E-1,-2.929820493E-3,-9.311866343E-2,6.477896333E-2,1.134723905E-1
2.408177084E-1,7.496989276E-3,-5.140638113E-2,-2.446094960E-2,5.742089275E-2
2.507677083E-1,1.855710732E-2,-6.498010755E-3,-1.171738163E-1,1.188120095E-1
2.607167084E-1,7.689801212E-3,2.868819416E-2,-1.517416781E-1,1.546210930E-1
2.706657085E-1,8.359691128E-4,1.973435283E-3,-1.182698768E-1,1.182892939E-1
2.806147083E-1,5.490809586E-3,-4.533112407E-2,-4.255545080E-2,6.241815595E-2
2.905647084E-1,8.437769730E-3,-8.640255153E-2,4.532673866E-2,9.793421316E-2
3.005137083E-1,-1.739181206E-3,-1.044885743E-1,8.639202654E-2,1.355893401E-1
3.104627084E-1,3.565211836E-3,-8.165753603E-2,4.150119781E-2,9.166795158E-2
3.204117084E-1,4.970937297E-3,-3.463481247E-2,-5.565292150E-2,6.573833071E-2
3.303617083E-1,1.732515380E-2,1.239609718E-2,-1.212943491E-1,1.231508965E-1
3.403107084E-1,1.909130529E-2,1.388596773E-2,-1.334998271E-1,1.355710215E-1
3.502597085E-1,1.614271889E-2,-1.202596843E-2,-8.592717290E-2,8.825355705E-2
3.602087083E-1,-2.002013549E-3,-5.760735333E-2,-1.624151856E-2,5.988657730E-2
3.701587084E-1,-7.164520249E-3,-8.397888064E-2,4.820386112E-2,9.709477314E-2
3.801077083E-1,1.184737254E-3,-9.351218104E-2,5.884287000E-2,1.104916963E-1
3.900567084E-1,1.266771862E-2,-7.110623538E-2,1.319131851E-2,7.342056040E-2
4.000057084E-1,1.279191714E-2,-2.963953614E-2,-4.811732233E-2,5.794317867E-2
4.099557083E-1,-2.290719822E-3,-3.342268467E-3,-1.011688176E-1,1.012499274E-1
4.199047084E-1,-1.046224024E-2,8.592483401E-3,-1.342713672E-1,1.349521741E-1
4.298537085E-1,4.278151877E-4,-2.497988999E-2,-8.544068456E-2,8.901847284E-2
4.398027083E-1,1.316284988E-2,-5.492289662E-2,-8.548044562E-3,5.712139929E-2
4.497527084E-1,-8.598147891E-4,-7.765920997E-2,5.773657680E-2,9.677398656E-2
4.597017083E-1,-1.730799587E-2,-8.172185540E-2,4.169474065E-2,9.336208957E-2
4.696507084E-1,-8.233007547E-3,-4.171637535E-2,-6.064732075E-3,4.295136041E-2
4.795997085E-1,-3.103793431E-3,-1.477299035E-2,-8.587951809E-2,8.719613756E-2
4.895497083E-1,-7.239108793E-3,6.200972199E-3,-1.315758008E-1,1.319206129E-1
4.994987084E-1,1.104149831E-2,-5.470654964E-3,-1.114374053E-1,1.121166271E-1
5.094477085E-1,1.667309789E-2,-4.126730919E-2,-5.188351393E-2,6.835848169E-2
5.193967083E-1,1.884833520E-2,-6.834518015E-2,2.026937306E-2,7.373717430E-2
5.293467084E-1,-6.163020115E-3,-9.558209538E-2,5.765120745E-2,1.117925825E-1
5.392957083E-1,-1.862367421E-2,-8.104825616E-2,2.670131028E-2,8.734197753E-2
5.492447084E-1,-6.110961623E-3,-4.223151505E-2,-3.768764377E-2,5.693156601E-2
5.591937085E-1,8.973319866E-3,-5.843707323E-3,-9.911673725E-2,9.969351527E-2
5.691437083E-1,2.124037631E-2,1.568223238E-3,-1.219787657E-1,1.238241988E-1
5.790927084E-1,5.723674949E-3,-2.015593708E-2,-9.326601326E-2,9.559064538E-2
5.890417083E-1,-6.855494902E-3,-4.865818977E-2,-1.822343230E-2,5.240907104E-2
5.989907084E-1,-2.958106399E-3,-8.018111408E-2,1.803456724E-2,8.223750400E-2
6.089407085E-1,-8.363912087E-3,-7.898652792E-2,4.896663040E-2,9.330893586E-2
6.188897083E-1,-2.499648146E-3,-6.623258114E-2,5.564795136E-3,6.651293100E-2
6.288387084E-1,8.076101169E-4,-3.377585649E-2,-5.851718009E-2,6.757011974E-2
6.387877085E-1,1.561418541E-2,-1.029226899E-2,-1.056436917E-1,1.072861743E-1
6.487377083E-1,1.765098989E-2,-5.064858198E-3,-1.024227530E-1,1.040559011E-1
6.586867084E-1,1.187282620E-2,-2.830695570E-2,-5.630722493E-2,6.413073617E-2
6.686357083E-1,2.249734495E-3,-5.870370626E-2,-5.432063341E-4,5.874931070E-2
6.785847084E-1,6.498997472E-4,-7.218095362E-2,3.314786553E-2,7.943106083E-2
6.885347085E-1,-2.024178151E-3,-7.765745580E-2,2.099793613E-2,8.047167862E-2
6.984837083E-1,2.324268222E-3,-5.084329426E-2,-2.552660465E-2,5.693900543E-2
7.084327084E-1,-1.118882988E-3,-2.434312820E-2,-6.960350096E-2,7.374609912E-2
7.183817085E-1,5.480485596E-4,-1.159093559E-2,-1.058772880E-1,1.065112682E-1
7.283318751E-1,1.657925008E-2,-7.677978873E-3,-8.849497765E-2,9.036140748E-2
7.382808751E-1,-1.681056228E-3,-4.046331704E-2,-3.903338045E-2,5.624687338E-2
7.482298750E-1,-1.244853940E-3,-6.247925341E-2,3.227370679E-3,6.257493659E-2
7.581788751E-1,-1.812746488E-3,-7.381875873E-2,1.510306567E-2,7.536974050E-2
7.681288749E-1,3.243742883E-3,-6.025029480E-2,3.345192075E-3,6.043020935E-2
7.780778750E-1,1.721100518E-2,-4.430318356E-2,-4.041712403E-2,6.239018102E-2
7.880268751E-1,7.214587033E-3,-2.534007847E-2,-8.239253104E-2,8.650259542E-2
7.979758750E-1,2.997995373E-3,-1.066532135E-2,-8.536057770E-2,8.607650830E-2
8.079258751E-1,-6.636735946E-3,-2.736263037E-2,-7.060980678E-2,7.601647596E-2
8.178748752E-1,-1.233954364E-2,-3.979907334E-2,-2.173146933E-2,4.699454580E-2
8.278238750E-1,5.520027392E-3,-5.810144305E-2,9.956054091E-3,5.920617704E-2
8.377728751E-1,-3.204255905E-3,-7.155939460E-2,8.259192109E-3,7.210567568E-2
8.477228750E-1,8.899115045E-3,-5.760501444E-2,-1.685752273E-2,6.067707978E-2
8.576718750E-1,7.575707417E-3,-3.978971779E-2,-4.667686075E-2,6.180082778E-2
8.676208751E-1,8.091980014E-3,-2.087222099E-2,-7.806266785E-2,8.120905036E-2
8.775698750E-1,-6.013897844E-3,-1.765449822E-2,-8.176220119E-2,8.386242197E-2
8.875198751E-1,3.975211289E-3,-3.041896999E-2,-5.349091351E-2,6.166355381E-2
8.974688749E-1,6.162563302E-3,-4.518962145E-2,-2.465595424E-2,5.184587884E-2
9.074178750E-1,1.931042969E-4,-6.119695902E-2,4.966040254E-3,6.139842537E-2
9.173668751E-1,3.302690126E-3,-5.762606442E-2,1.681659222E-3,5.774512136E-2
9.273168750E-1,2.083691843E-3,-5.140988946E-2,-2.635515511E-2,5.780927873E-2
9.372658751E-1,-2.210320607E-3,-2.986348450E-2,-5.540529191E-2,6.297983484E-2
9.472148751E-1,2.247523516E-4,-1.746855676E-2,-8.649318337E-2,8.823985358E-2
9.571638750E-1,1.666975401E-2,-2.945417941E-2,-8.135581970E-2,8.811469107E-2
9.671138751E-1,3.063557278E-3,-3.248186767E-2,-5.069945276E-2,6.029006237E-2
9.770628749E-1,-1.953920200E-3,-4.484931350E-2,-1.364769369E-2,4.692055273E-2
9.870118750E-1,-4.659134522E-3,-6.963741481E-2,6.871355474E-3,7.013053973E-2
9.969608751E-1,4.715249520E-3,-5.542575717E-2,-7.724171877E-4,5.563132898E-2
1.006910875E0,1.702288929E-3,-4.869444251E-2,-3.670706570E-2,6.100373096E-2
1.016859875E0,5.116807055E-3,-3.126740098E-2,-5.944922626E-2,6.736499522E-2
1.026808875E0,7.798084337E-3,-1.715280712E-2,-8.886832237E-2,9.084386403E-2
1.036757875E0,5.336095914E-3,-2.492668033E-2,-7.295804858E-2,7.728318164E-2
1.046707875E0,-3.794897776E-3,-4.370442867E-2,-3.730318934E-2,5.758477463E-2
1.056656875E0,2.972395532E-4,-5.683727503E-2,-1.282996058E-2,5.826810511E-2
1.066605875E0,1.616499312E-3,-6.496782839E-2,-6.200972199E-4,6.499089411E-2
1.076554875E0,-4.280527309E-3,-5.840842187E-2,-7.633540034E-3,5.906045710E-2
1.086504875E0,1.548598520E-4,-3.986865520E-2,-3.950846672E-2,5.612889267E-2
1.096453875E0,8.855260927E-3,-2.189665318E-2,-6.766631842E-2,7.167014521E-2
1.106402875E0,9.853892270E-3,-3.047510326E-2,-8.117134005E-2,8.726177603E-2
1.116351875E0,2.824972607E-3,-3.675559759E-2,-6.065316796E-2,7.097718794E-2
1.126301875E0,-5.647916961E-3,-4.503525496E-2,-2.473723054E-2,5.169142801E-2
1.136250875E0,-3.631504644E-3,-5.436565697E-2,-4.857282043E-3,5.470288542E-2
1.146199875E0,-3.549479172E-3,-6.251784503E-2,-9.524529576E-3,6.333874339E-2
1.156148875E0,7.934306189E-3,-4.527323663E-2,-2.547836512E-2,5.255250954E-2
1.166098875E0,1.364323519E-2,-2.609436929E-2,-4.469991714E-2,5.352697047E-2
1.176047875E0,-3.976216279E-3,-2.156453133E-2,-6.048652232E-2,6.433862517E-2
1.185996875E0,-3.209372219E-3,-2.490972340E-2,-6.396123022E-2,6.871559765E-2
1.195945875E0,4.656028189E-3,-3.322563350E-2,-5.746906668E-2,6.654558547E-2
1.205895875E0,1.152893683E-2,-4.870730639E-2,-2.289769650E-2,5.504200745E-2
1.215844875E0,3.655441683E-3,-6.008306444E-2,-1.646517456E-2,6.240543934E-2
1.225793875E0,-3.015354294E-3,-6.400420725E-2,-1.389941633E-2,6.556542291E-2
1.235742875E0,2.660994753E-3,-4.915227950E-2,-2.806429625E-2,5.666244079E-2
1.245692875E0,-1.069327835E-3,-3.573058069E-2,-5.402476430E-2,6.478034436E-2
1.255641875E0,4.725756235E-3,-2.931793928E-2,-7.239028394E-2,7.824466464E-2
1.265590875E0,5.777377971E-3,-3.081307232E-2,-6.697342336E-2,7.394770422E-2
1.275539875E0,7.161962092E-3,-3.637611330E-2,-4.070392996E-2,5.505747210E-2
1.285489875E0,6.542175505E-3,-5.441068053E-2,-2.497755110E-2,6.022624242E-2
1.295438875E0,-5.676367320E-3,-5.341782331E-2,-2.279244661E-3,5.376690385E-2
1.305387875E0,3.045357820E-3,-4.983581901E-2,-1.216688633E-2,5.138984514E-2
1.315336875E0,7.659870777E-3,-4.703032494E-2,-3.443191409E-2,5.878844948E-2
1.325286875E0,1.248749647E-2,-2.950154185E-2,-4.586380541E-2,5.594432220E-2
1.335235875E0,8.072008118E-3,-3.257074535E-2,-6.604488552E-2,7.408061602E-2
1.345184875E0,1.340108737E-3,-3.992771208E-2,-6.402584195E-2,7.546738714E-2
1.355133875E0,8.483414557E-3,-3.744147599E-2,-3.424831152E-2,5.144685888E-2
1.365083875E0,1.100707283E-2,-4.536620736E-2,-1.061386585E-2,4.787381926E-2
1.375032875E0,1.095965557E-2,-5.547078073E-2,-1.257385254E-2,5.792428966E-2
1.384981875E0,-1.539937332E-3,-4.571177781E-2,-3.600598454E-2,5.820969816E-2
1.394931875E0,6.222040448E-3,-4.226835251E-2,-4.094805121E-2,5.917829255E-2
1.404880875E0,6.038200334E-3,-3.808642387E-2,-5.499774098E-2,6.716983743E-2
1.414829875E0,7.165835872E-3,-3.407815754E-2,-6.915385008E-2,7.742690105E-2
1.424778875E0,9.463828169E-3,-3.447401404E-2,-5.293250442E-2,6.387387347E-2
1.434728875E0,-9.745663963E-4,-5.076260269E-2,-4.280746579E-2,6.640986929E-2
1.444677875E0,3.759851027E-3,-4.837459981E-2,-1.540332019E-2,5.090678403E-2
1.454626875E0,8.839619625E-3,-5.814003468E-2,-1.623713315E-2,6.100858136E-2
1.464575875E0,5.296700299E-3,-4.742676616E-2,-2.793916583E-2,5.529873570E-2
1.474525875E0,1.093210056E-2,-4.280103385E-2,-3.946432024E-2,5.923573156E-2
1.484474875E0,7.753481045E-3,-3.159776866E-2,-4.840442061E-2,5.832258043E-2
1.494423875E0,6.288589071E-3,-2.290763676E-2,-6.443397760E-2,6.867345662E-2
1.504372875E0,6.953782942E-3,-3.132938147E-2,-5.564970553E-2,6.423997950E-2
1.514322875E0,-3.198682778E-3,-4.526154220E-2,-5.126020074E-2,6.845762889E-2
1.524271875E0,-7.692688275E-3,-5.618004799E-2,-2.238548040E-2,6.096298039E-2
1.534220875E0,-2.861609068E-3,-5.788977385E-2,-1.942620456E-2,6.112930677E-2
1.544169875E0,-8.436070383E-4,-4.231396079E-2,-2.216123968E-2,4.777346015E-2
1.554119875E0,3.959442079E-3,-2.998218298E-2,-3.995080858E-2,5.010664212E-2
1.564068875E0,1.037793070E-2,-2.692175031E-2,-5.746438891E-2,6.430115145E-2
1.574017875E0,1.809731517E-3,-2.532662988E-2,-5.180486888E-2,5.769278766E-2
1.583966875E0,5.358370151E-3,-4.257299244E-2,-4.378044248E-2,6.130170438E-2
1.593916875E0,1.850534119E-3,-4.551765025E-2,-2.545409918E-2,5.218421337E-2
1.603865875E0,-2.936014887E-3,-4.689408481E-2,-2.061085045E-2,5.130772388E-2
1.613814875E0,7.065537851E-3,-5.181276262E-2,-1.962676406E-2,5.585422153E-2
1.623763875E0,-6.606348697E-3,-3.874248147E-2,-4.234524339E-2,5.777320617E-2
1.633713875E0,4.216701295E-3,-4.254083276E-2,-4.464319915E-2,6.181034098E-2
1.643662875E0,5.388154406E-3,-2.644988000E-2,-5.390928179E-2,6.028962617E-2
1.653611875E0,7.380300779E-3,-3.115571916E-2,-5.854933977E-2,6.673209770E-2
1.663560875E0,1.385786455E-2,-3.975697339E-2,-3.831358820E-2,5.692616607E-2
1.673510875E0,6.147780810E-3,-4.393013120E-2,-3.085868061E-2,5.403618977E-2
1.683459875E0,3.961799238E-3,-5.220978856E-2,-2.388616830E-2,5.755090712E-2
1.693408875E0,3.881856836E-3,-4.770918667E-2,-3.127032459E-2,5.717576852E-2
1.703357875E0,1.373595010E-2,-5.044509888E-2,-2.895248830E-2,5.976312329E-2
1.713307875E0,8.099435214E-3,-3.911494911E-2,-3.679915935E-2,5.431167667E-2
1.723256708E0,-3.238827568E-3,-2.792454779E-2,-5.769038379E-2,6.417515684E-2
1.733205708E0,1.820768137E-3,-3.293561161E-2,-4.795301557E-2,5.820276119E-2
1.743154708E0,7.198470645E-3,-4.479084134E-2,-4.176256835E-2,6.166157282E-2
1.753104708E0,-7.737894561E-3,-3.459680557E-2,-3.415475607E-2,4.922764803E-2
1.763053708E0,3.711136412E-3,-4.333429992E-2,-3.375217527E-2,5.505309636E-2
1.773002708E0,2.065419294E-3,-4.798049748E-2,-3.613608509E-2,6.010167004E-2
1.782951708E0,3.874712270E-3,-4.066153765E-2,-2.951996058E-2,5.039644940E-2
1.792901708E0,-5.839358456E-3,-3.854718447E-2,-3.329550773E-2,5.126962427E-2
1.802850708E0,7.794649098E-3,-3.644920349E-2,-4.317847162E-2,5.704105014E-2
1.812799708E0,1.204893703E-2,-3.575981677E-2,-4.289137334E-2,5.712802539E-2
1.822748708E0,1.914566612E-2,-3.915821850E-2,-2.934776008E-2,5.254725140E-2
1.832698708E0,3.968852442E-3,-4.557144463E-2,-1.995596230E-2,4.990740212E-2
1.842647708E0,4.782967586E-3,-4.448210835E-2,-1.811701298E-2,4.826759681E-2
1.852596708E0,-3.850574233E-4,-4.650466025E-2,-3.983678788E-2,6.123562168E-2
1.862545708E0,5.788378045E-4,-3.447167516E-2,-6.778560162E-2,7.604945251E-2
1.872495708E0,2.422221875E-2,-3.533121586E-2,-4.240868568E-2,6.027858091E-2
1.882444708E0,1.418883523E-2,-4.485048294E-2,-2.844904304E-2,5.497487531E-2
1.892393708E0,3.101052549E-3,-4.525803387E-2,-2.525938690E-2,5.192246896E-2
1.902342708E0,4.066555761E-4,-4.503876328E-2,-2.721060276E-2,5.262197706E-2
1.912292708E0,-1.912551150E-3,-3.993765235E-2,-3.818465710E-2,5.528781027E-2
1.922241708E0,-5.248789676E-3,-3.322212517E-2,-5.730475992E-2,6.644618050E-2
1.932190708E0,-8.020424712E-3,-2.478166938E-2,-7.012858093E-2,7.480959974E-2
1.942139708E0,-7.236112095E-4,-3.435297668E-2,-7.892074674E-2,8.607633174E-2
1.952089708E0,4.261849109E-2,-4.492591202E-2,-3.390888065E-2,7.060088909E-2
1.962038708E0,3.981412992E-2,-5.790439188E-2,2.676358312E-2,7.519556451E-2
1.971987708E0,-7.617076468E-3,-7.024727941E-2,1.893065304E-2,7.315100643E-2
1.981936708E0,-2.156383697E-2,-5.957143307E-2,-9.234800041E-3,6.402371619E-2
1.991886708E0,8.532110900E-3,-2.774971604E-2,-5.286058366E-2,6.030824954E-2
2.001835708E0,2.547522224E-3,-2.249423862E-2,-1.052808720E-1,1.076872446E-1
2.011784708E0,1.173791997E-2,-1.017532468E-2,-9.156535059E-2,9.287372840E-2
2.021733708E0,6.139485072E-3,-2.148033142E-2,-6.621445477E-2,6.988169957E-2
2.031683708E0,1.424034555E-3,-5.707467198E-2,-3.478216231E-2,6.685315902E-2
2.041632708E0,3.174292579E-2,-7.669675827E-2,1.227330565E-3,8.301513360E-2
2.051581708E0,1.541315082E-2,-8.308893442E-2,4.345095187E-2,9.502274181E-2
2.061530708E0,4.285406079E-3,-5.896507680E-2,3.581419587E-4,5.912168175E-2
2.071480708E0,-3.621436469E-4,-2.964830697E-2,-5.477203846E-2,6.228265771E-2
2.081429708E0,1.058181580E-3,-4.161463380E-3,-1.071186519E-1,1.072046786E-1
2.091378708E0,-6.667196285E-3,-7.645819187E-3,-1.036962765E-1,1.041913040E-1
2.101327708E0,-1.358783282E-3,-2.364029288E-2,-9.093005061E-2,9.396267261E-2
2.111277708E0,2.833304890E-3,-5.569005132E-2,-2.034480214E-2,5.935756402E-2
2.121226708E0,2.085162783E-2,-7.985600889E-2,2.380898505E-2,8.589901226E-2
2.131175708E0,1.303514304E-2,-7.918708742E-2,2.347832501E-2,8.361663419E-2
2.141124708E0,-1.185168486E-2,-5.910014749E-2,5.376222432E-3,6.051606096E-2
2.151074708E0,-9.524091035E-3,-3.568380296E-2,-5.470479548E-2,6.600497521E-2
2.161023708E0,1.051888514E-2,-1.035541892E-2,-1.124214917E-1,1.133863901E-1
2.170972708E0,1.355055682E-2,-5.306932926E-3,-1.031577480E-1,1.041791826E-1
2.180921708E0,1.325519934E-2,-3.692692101E-2,-7.246892899E-2,8.240778770E-2
2.190871708E0,2.019911511E-2,-5.448260128E-2,-3.320049047E-3,5.820120978E-2
2.200820708E0,3.474890627E-3,-8.282931805E-2,1.953437805E-2,8.517254674E-2
2.210769708E0,1.506955381E-3,-7.358487010E-2,2.163557500E-2,7.671441929E-2
2.220718708E0,-4.802446123E-3,-5.109472454E-2,-2.342394590E-2,5.641290283E-2
2.230668708E0,1.184386421E-2,-1.565299630E-2,-7.354043126E-2,7.611496859E-2
2.240617708E0,1.688206276E-2,-2.359351516E-3,-9.965789706E-2,1.011052275E-1
2.250566708E0,3.108672202E-3,-1.356261671E-2,-7.943471700E-2,8.064417325E-2
2.260515708E0,1.835409930E-2,-3.564462662E-2,-3.714063674E-2,5.465198318E-2
2.270465708E0,-5.072550941E-3,-6.864338815E-2,2.789121866E-4,6.883112161E-2
2.280414708E0,-4.479405731E-3,-7.118224919E-2,1.865904987E-2,7.372338718E-2
2.290363708E0,-2.261958830E-4,-5.864757299E-2,5.523279905E-3,5.890751738E-2
2.300312708E0,1.023984505E-2,-3.887462854E-2,-3.737130940E-2,5.488812201E-2
2.310262708E0,1.794265632E-2,-1.916132569E-2,-8.582016885E-2,8.974517647E-2
2.320211708E0,5.456749555E-3,-1.166227162E-2,-9.494416416E-2,9.581325066E-2
2.330160708E0,5.102682374E-3,-2.797132552E-2,-7.604187012E-2,8.118373254E-2
2.340109708E0,4.146991521E-3,-4.792611837E-2,-3.548587471E-2,5.977756824E-2
2.350059708E0,-5.085359998E-3,-6.536660850E-2,1.377545536E-2,6.699565332E-2
2.360008708E0,-4.945465364E-4,-6.729151189E-2,1.954928845E-2,7.007543670E-2
2.369957708E0,3.476772700E-3,-5.459135950E-2,-1.548927426E-2,5.685263492E-2
2.379906708E0,-1.201365273E-3,-2.893202305E-2,-5.038428783E-2,5.811266382E-2
2.389856708E0,1.271793159E-2,-1.719432235E-2,-7.971479863E-2,8.253386956E-2
2.399805708E0,1.653132118E-2,-1.179968119E-2,-8.523690909E-2,8.762332867E-2
2.409754708E0,1.493176052E-2,-2.873438716E-2,-5.310295075E-2,6.219763546E-2
2.419703708E0,3.685335573E-3,-4.967092752E-2,-1.987965614E-2,5.362819657E-2
2.429653708E0,-8.537483029E-4,-6.747686863E-2,1.154561967E-2,6.846282217E-2
2.439602708E0,-2.266526967E-3,-6.635361850E-2,2.674224079E-3,6.644615344E-2
2.449551708E0,7.476633657E-3,-4.194500148E-2,-2.508689404E-2,4.944325487E-2
2.459500708E0,2.490621507E-3,-3.349343598E-2,-6.355631053E-2,7.188475539E-2
2.469450708E0,3.360157292E-3,-1.323517263E-2,-8.446098357E-2,8.555768930E-2
2.479399708E0,7.083609402E-3,-1.438122690E-2,-7.509696007E-2,7.678900065E-2
2.489348708E0,3.843064215E-3,-3.240877748E-2,-4.317964107E-2,5.412558917E-2
2.499297708E0,6.548260264E-3,-6.037717938E-2,-1.055422425E-2,6.164150511E-2
2.509247708E0,1.470989523E-2,-6.806919158E-2,6.468482316E-3,6.994023965E-2
2.519196708E0,1.774185928E-2,-5.381952703E-2,-3.227370679E-3,5.676029406E-2
2.529145708E0,6.366046406E-3,-3.819225848E-2,-3.004270166E-2,4.900754103E-2
2.539095708E0,-3.447299078E-3,-2.644695640E-2,-7.031686127E-2,7.520496229E-2
2.549044708E0,2.894189022E-3,-1.821700037E-2,-8.273868620E-2,8.476983914E-2
2.558993708E0,3.871423211E-3,-2.039099514E-2,-5.918668628E-2,6.272036697E-2
2.568942708E0,1.760017393E-2,-4.329863191E-2,-4.340329707E-2,6.378388389E-2
2.578892708E0,1.379729105E-2,-5.658175170E-2,-1.383158863E-2,5.985960834E-2
2.588841708E0,1.263236124E-3,-6.401590168E-2,7.305511236E-3,6.444378891E-2
2.598790708E0,1.689023059E-3,-5.472175241E-2,-1.417715907E-2,5.655364555E-2
2.608739708E0,1.229064630E-2,-3.776365757E-2,-4.409502268E-2,5.934243713E-2
2.618689708E0,6.969168428E-3,-2.554297686E-2,-8.142481685E-2,8.562133948E-2
2.628638708E0,6.785383131E-3,-1.617807627E-2,-7.184824705E-2,7.395905746E-2
2.638587708E0,1.038618989E-2,-3.402319372E-2,-5.227293849E-2,6.322903407E-2
2.648536708E0,9.747765306E-3,-4.672510028E-2,-2.938752115E-2,5.605247830E-2
2.658486708E0,-1.230583079E-3,-5.452704012E-2,-4.664323926E-3,5.474000692E-2
2.668435708E0,-2.715209406E-3,-6.336569130E-2,-4.385411739E-3,6.357527061E-2
2.678384708E0,8.940337915E-3,-5.071290135E-2,-3.467428118E-2,6.208086485E-2
2.688333708E0,5.989522263E-3,-2.511262178E-2,-4.983231068E-2,5.612287713E-2
2.698283708E0,1.365392463E-2,-1.930867553E-2,-7.431811094E-2,7.798997514E-2
2.708232708E0,9.697369616E-3,-2.660366178E-2,-6.971869111E-2,7.524951619E-2
2.718181708E0,1.303671448E-2,-4.060189605E-2,-4.901194632E-2,6.496645880E-2
2.728131000E0,-3.359188847E-3,-5.303483069E-2,-1.214671344E-2,5.451165071E-2
2.738081000E0,-2.896893360E-3,-6.247925341E-2,-1.493671238E-3,6.256420823E-2
2.748030000E0,2.644823547E-3,-5.185661674E-2,-1.214612871E-2,5.332571831E-2
2.757979000E0,9.712152109E-3,-3.715730131E-2,-3.842790127E-2,5.432949967E-2
2.767928000E0,7.137312423E-3,-2.313567817E-2,-5.825522482E-2,6.308622712E-2
2.777878000E0,-7.929372601E-4,-2.537983954E-2,-6.975435913E-2,7.423230848E-2
2.787827000E0,5.432191249E-3,-3.144047856E-2,-6.253187835E-2,7.020148292E-2
2.797776000E0,9.277338535E-4,-3.917926848E-2,-3.130073011E-2,5.015587178E-2
2.807725000E0,4.393524751E-3,-5.315469861E-2,-1.770098358E-2,5.619652893E-2
2.817675000E0,7.492951043E-3,-5.643849492E-2,-1.070625186E-2,5.793161359E-2
2.827624000E0,4.161554743E-3,-5.132744372E-2,-1.795533746E-2,5.453640216E-2
2.837573000E0,3.834805023E-3,-3.184744477E-2,-4.181694746E-2,5.270315515E-2
2.847522000E0,1.298630051E-4,-2.316140592E-2,-5.933637500E-2,6.369672665E-2
2.857472000E0,2.982445434E-4,-3.517334104E-2,-6.149107397E-2,7.084070191E-2
2.867421000E0,-2.495116554E-3,-3.185446143E-2,-5.268048942E-2,6.161303665E-2
2.877370000E0,3.765259702E-3,-4.427745581E-2,-3.499792457E-2,5.656434387E-2
2.887319000E0,1.097630186E-2,-5.093626499E-2,-1.852631807E-2,5.530105564E-2
2.897269000E0,4.188707750E-3,-4.673562527E-2,-1.076209277E-2,4.814131887E-2
2.907218000E0,5.137491580E-3,-5.051058769E-2,-2.642385989E-2,5.723577256E-2
2.917167000E0,-1.941567957E-3,-3.842848599E-2,-4.820269167E-2,6.167671932E-2
2.927116000E0,4.592713807E-3,-2.979507208E-2,-4.886635065E-2,5.741741518E-2
2.937066000E0,9.452773277E-3,-3.212343335E-2,-4.838454008E-2,5.884159763E-2
2.947015000E0,1.444384692E-2,-4.637777567E-2,-5.368153274E-2,7.239633794E-2
2.956964000E0,1.315846447E-2,-5.640691996E-2,-1.939989209E-2,6.108389001E-2
2.966913000E0,7.001711838E-3,-5.204197347E-2,-1.824652880E-2,5.559070772E-2
2.976863000E0,3.329148777E-3,-5.044685304E-2,-1.159327447E-2,5.186879820E-2
2.986812000E0,2.354710288E-3,-3.931784749E-2,-2.953253210E-2,4.923015584E-2
2.996761000E0,5.391004924E-3,-2.752927601E-2,-6.344901413E-2,6.937363596E-2
3.006710000E0,2.881434783E-3,-2.077632666E-2,-7.321298718E-2,7.615838699E-2
3.016660000E0,5.020930991E-4,-2.596280694E-2,-6.642378509E-2,7.131927276E-2
3.026609000E0,2.018276118E-3,-4.108370662E-2,-3.943888485E-2,5.698570019E-2
3.036558000E0,1.070813393E-2,-5.756583810E-2,-1.782552928E-2,6.120653023E-2
3.046507000E0,2.856693752E-3,-5.795292377E-2,5.982286334E-3,5.833086510E-2
3.056457000E0,-9.078898653E-4,-5.781376004E-2,-1.018935800E-2,5.871182275E-2
3.066406000E0,9.491492808E-4,-4.583749294E-2,-3.148082435E-2,5.561491657E-2
3.076355000E0,7.883380596E-3,-2.702173769E-2,-6.358671606E-2,6.953842432E-2
3.086304000E0,4.272286389E-3,-2.205277383E-2,-6.840131342E-2,7.199525639E-2
3.096254000E0,1.438013054E-2,-3.212109447E-2,-6.557447702E-2,7.442153519E-2
3.106203000E0,4.445601515E-3,-4.295072258E-2,-4.147488534E-2,5.987231461E-2
3.116152000E0,7.852847166E-3,-6.309496522E-2,-8.653879166E-3,6.416799412E-2
3.126101000E0,-1.147203611E-2,-6.019357681E-2,4.932126403E-4,6.127901403E-2
3.136051000E0,-1.487787478E-3,-4.409619212E-2,-3.578612924E-2,5.680963578E-2
3.146000000E0,6.932349242E-3,-3.526806593E-2,-5.661917388E-2,6.706433323E-2
3.155949000E0,4.641117789E-3,-2.643643141E-2,-6.964560091E-2,7.463869376E-2
3.165898000E0,-4.638998173E-3,-2.724510133E-2,-6.845861614E-2,7.382681067E-2
3.175848000E0,3.705873918E-3,-3.242690384E-2,-5.446476728E-2,6.349526336E-2
3.185797000E0,5.276856311E-3,-4.052178919E-2,-1.295333683E-2,4.286781482E-2
3.195746000E0,1.045986481E-2,-5.622331738E-2,-1.642716765E-2,5.950060526E-2
3.205695000E0,1.211378630E-3,-5.975503564E-2,-9.080141187E-3,6.045312801E-2
3.215645000E0,3.192031570E-4,-4.186957240E-2,-2.989798307E-2,5.144951288E-2
3.225594000E0,9.482996073E-3,-3.078617513E-2,-5.807805419E-2,6.641367459E-2
3.235543000E0,3.417149372E-3,-2.445890307E-2,-6.518300593E-2,6.970465631E-2
3.245492000E0,7.131483480E-3,-3.226201236E-2,-4.745804876E-2,5.782699967E-2
3.255442000E0,1.939552495E-2,-4.006336749E-2,-4.231308371E-2,6.141381649E-2
3.265391000E0,8.535144143E-3,-5.182445705E-2,-1.668619931E-2,5.510945728E-2
3.275340000E0,2.890534513E-3,-5.542809606E-2,-4.982704818E-3,5.572662173E-2
3.285289000E0,5.906455256E-3,-5.293952107E-2,-2.017172456E-2,5.695943800E-2
3.295239000E0,1.052297819E-2,-4.324132919E-2,-4.948498607E-2,6.655305753E-2
3.305188000E0,3.865338452E-3,-2.681240737E-2,-5.466035664E-2,6.100492291E-2
3.315137000E0,2.192066330E-3,-1.436076164E-2,-9.177468091E-2,9.291732178E-2
3.325086000E0,2.442783974E-2,-4.088373184E-2,-6.858842432E-2,8.350192115E-2
3.335036000E0,2.112540543E-2,-7.654239178E-2,1.129038870E-2,8.020282645E-2
3.344985000E0,-5.388026498E-3,-9.003601134E-2,4.030895054E-2,9.879436047E-2
3.354934000E0,-1.298491180E-2,-6.099815369E-2,5.920013487E-3,6.264526516E-2
3.364883000E0,-1.374278404E-3,-3.397817016E-2,-5.088861018E-2,6.120502704E-2
3.374833000E0,1.557623332E-2,-1.061094224E-2,-1.036056447E-1,1.053059388E-1
3.384782000E0,1.126626894E-2,2.396773696E-3,-1.114534852E-1,1.120471004E-1
3.394731000E0,-5.676239412E-3,-2.589614868E-2,-7.648128837E-2,8.094577000E-2
3.404680000E0,8.475009184E-3,-5.375286877E-2,-1.816612959E-2,5.736902427E-2
3.414630000E0,1.161443409E-2,-7.164593339E-2,2.302341163E-2,7.614533691E-2
3.424579000E0,7.914553564E-3,-7.978701174E-2,3.627290994E-2,8.800188291E-2
3.434528000E0,-4.274259824E-3,-5.874931455E-2,-1.140850246E-2,5.999920987E-2
3.444477000E0,2.095934451E-3,-3.597908735E-2,-6.433983743E-2,7.374620227E-2
3.454427000E0,9.647741374E-3,-3.010146618E-3,-1.102159220E-1,1.106783148E-1
3.464376000E0,9.249454625E-3,-4.476628304E-3,-1.016857114E-1,1.022036033E-1
3.474325000E0,1.257153193E-2,-1.850877643E-2,-5.738808274E-2,6.159553767E-2
3.484274000E0,9.074604604E-3,-6.808614850E-2,-8.779009581E-3,6.924697160E-2
3.494224000E0,4.760985710E-3,-8.316436350E-2,2.838706255E-2,8.800456614E-2
3.504173000E0,7.103069667E-3,-7.260195315E-2,1.737441659E-2,7.498911622E-2
3.514122000E0,6.283947844E-3,-4.719989419E-2,-2.615810394E-2,5.432830214E-2
3.524071000E0,4.997067042E-3,-1.906660080E-2,-7.856055826E-2,8.099547678E-2
3.534021000E0,1.887828391E-3,-3.875534534E-3,-1.071315157E-1,1.072182136E-1
3.543970000E0,2.123690452E-3,-1.045774519E-2,-8.447998703E-2,8.515129302E-2
3.553919000E0,-2.433190886E-3,-3.628723562E-2,-4.292645663E-2,5.626157272E-2
3.563868000E0,5.262019001E-3,-5.780498922E-2,-8.390169740E-3,5.864725544E-2
3.573818000E0,8.442100324E-3,-6.764819205E-2,1.561615884E-2,6.993862568E-2
3.583767000E0,4.143994823E-3,-6.907959044E-2,4.963993728E-3,6.938158071E-2
3.593716000E0,3.797565568E-3,-4.144214094E-2,-4.469290048E-2,6.106822335E-2
3.603665000E0,1.179821938E-3,-1.499343038E-2,-6.499911100E-2,6.671641001E-2
3.613615000E0,5.216227993E-3,-9.497632384E-3,-8.794504702E-2,8.861007477E-2
3.623564000E0,9.950627144E-3,-2.399755776E-2,-6.711872667E-2,7.197097491E-2
3.633513000E0,1.259738758E-2,-3.683336556E-2,-2.536054373E-2,4.646017833E-2
3.643462000E0,1.270351455E-2,-5.936268747E-2,7.045894861E-4,6.071082598E-2
3.653412000E0,4.665000010E-3,-7.088345647E-2,9.350282550E-3,7.164952484E-2
3.663361000E0,2.366934624E-3,-5.784065723E-2,-1.065304220E-2,5.886111889E-2
3.673310000E0,1.656017354E-2,-3.781628251E-2,-5.268575191E-2,6.693354186E-2
3.683260000E0,2.109348329E-2,-1.551032424E-2,-8.576929808E-2,8.967651692E-2
3.693209000E0,8.707235008E-3,-1.709842801E-2,-8.165285826E-2,8.387706149E-2
3.703158000E0,-5.619832054E-3,-3.404892147E-2,-4.889704853E-2,5.984841619E-2
3.713107000E0,1.880537644E-3,-4.782028377E-2,-1.773226619E-2,5.103674388E-2
3.723057000E0,1.817698348E-3,-5.905103087E-2,8.473784924E-3,5.968361002E-2
3.733005375E0,4.681774210E-3,-5.493517578E-2,9.032194018E-3,5.586924983E-2
3.742954375E0,5.170546621E-3,-5.058484733E-2,-1.648914814E-2,5.345515259E-2
3.752903375E0,4.384132661E-3,-3.332035840E-2,-6.211000174E-2,7.061953851E-2
3.762853375E0,3.634866793E-3,-2.081667244E-2,-7.812026292E-2,8.092787892E-2
3.772802375E0,4.668983426E-3,-2.400925219E-2,-7.306388319E-2,7.704917016E-2
3.782751375E0,1.808105260E-3,-3.666788936E-2,-4.156902552E-2,5.545978035E-2
3.792700375E0,5.867224094E-3,-5.588183999E-2,-1.345619738E-2,5.777779511E-2
3.802650375E0,-3.280653432E-3,-6.063738048E-2,2.618967891E-3,6.078251057E-2
3.812599375E0,1.588597130E-3,-5.142509222E-2,-4.474874139E-3,5.164385974E-2
3.822548375E0,6.473233178E-3,-4.004641056E-2,-3.160303116E-2,5.142343167E-2
3.832497375E0,4.096577559E-3,-1.679495752E-2,-6.765228510E-2,6.982609988E-2
3.842447375E0,9.563249107E-3,-2.510151207E-2,-7.497007549E-2,7.963701313E-2
3.852396375E0,8.763423096E-3,-3.310751975E-2,-5.954044282E-2,6.868747906E-2
3.862345375E0,2.054748125E-3,-4.873361886E-2,-2.243635118E-2,5.368964007E-2
3.872294375E0,-1.915694028E-4,-6.273126841E-2,-4.095974565E-4,6.273289811E-2
3.882244375E0,6.746974234E-3,-5.868499517E-2,2.129555941E-3,5.910994272E-2
3.892193375E0,1.404071795E-2,-4.948030829E-2,-1.812052131E-2,5.453252206E-2
3.902142375E0,1.021271031E-2,-3.881440222E-2,-4.621434599E-2,6.120966466E-2
3.912091375E0,4.103594217E-3,-2.015535235E-2,-5.716676563E-2,6.075456202E-2
3.922041375E0,7.451380994E-3,-2.442908227E-2,-5.860430360E-2,6.392783071E-2
3.931990375E0,7.925261278E-3,-3.643750906E-2,-4.666662812E-2,5.973504845E-2
3.941939375E0,1.799261346E-3,-4.636374235E-2,-2.125462890E-2,5.103521525E-2
3.951888375E0,1.237680137E-2,-5.385051727E-2,-6.731899381E-3,5.566311069E-2
3.961838375E0,-3.787497394E-3,-5.723663986E-2,-9.109084904E-3,5.808057770E-2
3.971787375E0,7.103745751E-3,-4.060189605E-2,-3.866354406E-2,5.651412926E-2
3.981736375E0,-3.597682156E-4,-4.421489060E-2,-4.940341741E-2,6.630070615E-2
3.991685375E0,1.031898346E-2,-2.168966174E-2,-6.375131518E-2,6.812600849E-2
4.001635375E0,1.582402736E-2,-2.556578100E-2,-5.237526476E-2,6.039186501E-2
4.011584375E0,-5.934741162E-4,-3.796655595E-2,-3.128201902E-2,4.919732001E-2
4.021533375E0,1.156396531E-3,-5.767576575E-2,-1.669847846E-2,6.005556087E-2
4.031482375E0,-1.985348985E-3,-5.082750678E-2,-2.082076550E-2,5.496254481E-2
4.041432375E0,1.413728837E-2,-4.811615288E-2,-2.761259884E-2,5.724930310E-2
4.051381375E0,7.360310610E-3,-4.515746176E-2,-4.808691680E-2,6.637561369E-2
4.061330375E0,5.568266921E-3,-4.075333893E-2,-5.613502443E-2,6.959153108E-2
4.071279375E0,3.590062503E-3,-2.514419675E-2,-4.423594058E-2,5.100919150E-2
4.081229375E0,6.782112345E-3,-4.070714593E-2,-4.409911573E-2,6.039702630E-2
4.091178375E0,-1.250898499E-2,-4.495982587E-2,-4.336587489E-2,6.370604173E-2
4.101127375E0,1.730044931E-2,-5.417971551E-2,-2.670774221E-2,6.283351505E-2
4.111076375E0,9.521459788E-4,-5.373649657E-2,-3.555457950E-2,6.444102551E-2
4.121026375E0,2.683579624E-3,-4.106967330E-2,-2.871216774E-2,5.018274844E-2
4.130975375E0,6.101807076E-3,-3.444302380E-2,-4.453297913E-2,5.662808639E-2
4.140924375E0,-3.225981966E-3,-3.214039028E-2,-4.912830591E-2,5.879627615E-2
4.150873375E0,2.113457825E-3,-3.910851717E-2,-6.496315062E-2,7.585613856E-2
4.160823375E0,1.402372448E-2,-3.735201359E-2,-4.810036540E-2,6.249386305E-2
4.170772375E0,1.311132129E-2,-4.011014521E-2,-4.586088181E-2,6.232135248E-2
4.180721375E0,-1.154227579E-2,-4.633041322E-2,-2.218404382E-2,5.264848640E-2
4.190670375E0,-2.951838914E-3,-5.279100180E-2,-2.363619983E-2,5.791608728E-2
4.200620375E0,1.794521447E-2,-3.835305691E-2,-2.932846427E-2,5.150870327E-2
4.210569375E0,1.751666838E-2,-3.293268800E-2,-5.021588802E-2,6.255422464E-2
4.220518375E0,4.868318662E-3,-2.651302993E-2,-5.497552156E-2,6.122866366E-2
4.230467375E0,8.556669205E-3,-3.230060399E-2,-6.690121025E-2,7.478179951E-2
4.240417375E0,5.840893351E-3,-3.927399337E-2,-5.384145409E-2,6.689891456E-2
4.250366375E0,7.206784654E-3,-4.476745248E-2,-2.952288419E-2,5.410788517E-2
4.260315375E0,8.282544427E-3,-5.003988683E-2,-2.003080666E-2,5.453277943E-2
4.270264375E0,7.661186401E-3,-4.214088321E-2,-2.461093068E-2,4.939884334E-2
4.280214375E0,-1.048478857E-3,-3.964821517E-2,-3.768384308E-2,5.470970941E-2
4.290163375E0,-8.654061891E-4,-3.181470037E-2,-4.196342021E-2,5.266737817E-2
4.300112375E0,7.296703868E-3,-3.728126228E-2,-4.568985075E-2,5.941966733E-2
4.310061375E0,2.654763814E-3,-3.615391910E-2,-4.643040061E-2,5.890616044E-2
4.320011375E0,-8.200354502E-4,-3.917692959E-2,-3.829721600E-2,5.479216206E-2
4.329960375E0,6.648046654E-3,-3.856940389E-2,-3.472018182E-2,5.231908319E-2
4.339909375E0,-7.697859406E-4,-5.117132306E-2,-2.164346874E-2,5.556560639E-2
4.349858375E0,-7.167352494E-3,-4.461308599E-2,-2.892646819E-2,5.365108522E-2
4.359808375E0,8.458180167E-4,-3.524877012E-2,-3.883954525E-2,5.245666286E-2
4.369757375E0,7.276549246E-3,-3.522888958E-2,-5.354529262E-2,6.450675307E-2
4.379706375E0,1.496339031E-4,-3.714443743E-2,-5.299799323E-2,6.471876783E-2
4.389655375E0,1.096014893E-2,-3.757479250E-2,-4.524633944E-2,5.982659216E-2
4.399605375E0,4.120130874E-3,-3.441846550E-2,-3.343788743E-2,4.816324907E-2
4.409554375E0,1.252797017E-2,-4.489316761E-2,-2.835958064E-2,5.455833895E-2
4.419503375E0,8.663399164E-3,-5.257290065E-2,-2.139613152E-2,5.741740861E-2
4.429452375E0,4.158411864E-3,-5.065793753E-2,-3.286602974E-2,6.052846384E-2
4.439402375E0,-3.765990604E-3,-4.235956907E-2,-4.049810797E-2,5.872488847E-2
4.449351375E0,2.004352435E-3,-3.222575963E-2,-5.284391910E-2,6.192735097E-2
4.459300375E0,2.667006422E-3,-3.665151715E-2,-4.443211466E-2,5.765985992E-2
4.469249375E0,4.442385547E-3,-3.894654930E-2,-4.536182195E-2,5.995217579E-2
4.479199375E0,1.134931767E-2,-4.636315763E-2,-3.290286720E-2,5.797368426E-2
4.489148375E0,1.005308133E-2,-4.322203338E-2,-2.136543363E-2,4.925129814E-2
4.499097375E0,5.448581725E-3,-4.850148439E-2,-2.173527002E-2,5.342754902E-2
4.509046375E0,5.807454586E-3,-4.155206859E-2,-3.594751239E-2,5.524965683E-2
4.518996375E0,6.547821723E-3,-3.917985320E-2,-4.324132919E-2,5.871752223E-2
4.528945375E0,6.453480553E-3,-3.350805402E-2,-5.429198205E-2,6.412531802E-2
4.538894375E0,1.598985074E-2,-3.557679892E-2,-5.763541996E-2,6.959328691E-2
4.548843375E0,8.484090641E-3,-3.514819801E-2,-4.828396797E-2,6.032178031E-2
4.558793375E0,4.536562264E-3,-4.093811095E-2,-3.819430500E-2,5.617218404E-2
4.568742375E0,-1.384145580E-4,-4.376699388E-2,-3.253536969E-2,5.453548563E-2
4.578691375E0,8.063675836E-5,-5.346050799E-2,-2.930419832E-2,6.096530535E-2
4.588640375E0,7.956927605E-3,-4.483761907E-2,-4.027065128E-2,6.079021414E-2
4.598590375E0,-1.445632707E-3,-4.147371590E-2,-5.928784311E-2,7.236855191E-2
4.608539375E0,9.605330788E-4,-2.901973128E-2,-5.185720146E-2,5.943262379E-2
4.618488375E0,-4.982595183E-3,-3.318645716E-2,-5.399611294E-2,6.357473874E-2
4.628437375E0,1.192868538E-3,-4.127140224E-2,-4.860790372E-2,6.377679737E-2
4.638387375E0,2.855944578E-3,-4.062645435E-2,-3.088382363E-2,5.111238377E-2
4.648336375E0,7.858840562E-4,-3.432315588E-2,-4.183828980E-2,5.412152193E-2
4.658285375E0,1.596107148E-4,-4.563576400E-2,-3.300256222E-2,5.631889155E-2
4.668234375E0,-5.167842284E-4,-3.992303431E-2,-4.397164643E-2,5.939378271E-2
4.678184375E0,1.161931286E-2,-3.595511377E-2,-4.667627603E-2,6.005375410E-2
4.688133375E0,1.131297357E-2,-3.878165781E-2,-4.222391367E-2,5.843679697E-2
4.698082375E0,1.169960244E-2,-3.955407500E-2,-4.292557955E-2,5.953159603E-2
4.708031375E0,7.073303685E-3,-4.055336416E-2,-4.016277015E-2,5.751221675E-2
4.717981375E0,-7.654279377E-3,-4.476745248E-2,-4.162106574E-2,6.160378160E-2
4.727930833E0,5.416221041E-3,-4.462419569E-2,-3.173400879E-2,5.502455457E-2
4.737879833E0,8.194580376E-3,-5.153560460E-2,-2.808943927E-2,5.926285757E-2
4.747828833E0,1.138774484E-2,-4.327641249E-2,-3.382555783E-2,5.609542738E-2
4.757778833E0,1.231902357E-2,-3.145100355E-2,-4.130765498E-2,5.335959451E-2
4.767727833E0,4.914529938E-3,-3.452956259E-2,-5.447909296E-2,6.468705332E-2
4.777676833E0,4.649614524E-3,-3.196965158E-2,-5.960125387E-2,6.779370915E-2
4.787625833E0,9.305514805E-3,-3.195912659E-2,-5.854261547E-2,6.734401387E-2
4.797575833E0,1.272969911E-2,-3.772682011E-2,-4.800797939E-2,6.237086083E-2
4.807524833E0,4.405401908E-3,-4.314075708E-2,-1.904028833E-2,4.736100788E-2
4.817473833E0,-2.605409659E-3,-5.731148422E-2,-8.051031232E-3,5.793283600E-2
4.827423833E0,5.250233207E-3,-5.908026695E-2,-3.488448858E-3,5.941558859E-2
4.837372833E0,1.330053354E-2,-5.317165554E-2,-1.803953737E-2,5.770228811E-2
4.847321833E0,2.353668753E-3,-3.441437244E-2,-5.826808870E-2,6.771306335E-2
4.857270833E0,2.347364724E-3,-9.600543380E-3,-9.545111775E-2,9.596143202E-2
4.867220833E0,-5.943767801E-3,-1.088049889E-2,-8.877944469E-2,8.964096961E-2
4.877169833E0,8.747982793E-4,-3.720466375E-2,-5.415574193E-2,6.570994340E-2
4.887118833E0,8.206219990E-3,-7.071271777E-2,2.565173507E-3,7.123349364E-2
4.897067833E0,1.728254221E-3,-8.828418553E-2,5.353242874E-2,1.032608600E-1
4.907016833E0,5.530534107E-3,-7.595065355E-2,2.951148212E-2,8.167016689E-2
4.916966833E0,-8.305787109E-3,-3.997624397E-2,-2.877005517E-2,4.994799552E-2
4.926915833E0,4.950252771E-3,-4.169064760E-4,-1.061488912E-1,1.062650738E-1
4.936864833E0,7.668093424E-3,2.588270009E-2,-1.313120914E-1,1.340581186E-1
4.946814833E0,1.739287186E-2,-1.004551649E-3,-1.112333375E-1,1.125894155E-1
4.956763833E0,5.917784236E-3,-4.488264263E-2,-4.506799936E-2,6.387954560E-2
4.966712833E0,3.039455786E-4,-8.251356840E-2,3.128611207E-2,8.824625863E-2
4.976661833E0,6.030964404E-3,-8.980329216E-2,5.752315342E-2,1.068172130E-1
4.986611833E0,-1.072574867E-2,-7.723528683E-2,9.424249828E-3,7.854392212E-2
4.996560833E0,-9.546018094E-3,-3.350279152E-2,-3.678600311E-2,5.066333513E-2
5.006509833E0,-2.744171396E-4,-1.480573475E-2,-8.409290135E-2,8.538677382E-2
5.016458833E0,6.924126595E-3,-1.937767267E-3,-8.854438663E-2,8.883584228E-2
5.026408833E0,1.112016164E-2,-2.743279696E-2,-5.995764166E-2,6.686654722E-2
5.036357833E0,1.176585870E-2,-5.900542259E-2,-1.249666929E-2,6.145113562E-2
5.046306833E0,-4.664397016E-3,-7.777264595E-2,1.949052393E-2,8.031327151E-2
5.056255833E0,8.053516299E-3,-6.714006901E-2,3.064993501E-2,7.424329267E-2
5.066205833E0,1.268012568E-2,-4.325243890E-2,-2.498047471E-2,5.153235076E-2
5.076154833E0,1.451810656E-2,-2.210072100E-2,-7.224059522E-2,7.692802405E-2
5.086103833E0,5.655938610E-3,-1.304689229E-2,-9.288185120E-2,9.396408527E-2
5.096052833E0,3.790274821E-3,-6.113848686E-3,-9.575575769E-2,9.602557190E-2
5.106002833E0,6.746846326E-3,-2.672119081E-2,-5.417503774E-2,6.078220700E-2
5.115951833E0,4.992900901E-3,-5.952991784E-2,-1.076472402E-3,5.974863153E-2
5.125900833E0,1.426592711E-3,-7.707682729E-2,2.113826931E-2,7.993559220E-2
5.135849833E0,-2.099150419E-4,-7.595357716E-2,3.049673796E-2,8.184766932E-2
5.145799833E0,8.977303281E-3,-6.567124844E-2,-8.431684971E-3,6.681615192E-2
5.155748833E0,6.533422954E-3,-3.649832010E-2,-5.141690612E-2,6.339172833E-2
5.165697833E0,1.081943203E-2,-9.272514582E-3,-8.494133234E-2,8.612821591E-2
5.175646833E0,1.162477635E-2,-8.582543135E-3,-9.498217106E-2,9.607501387E-2
5.185596833E0,2.994724587E-3,-3.216962636E-2,-5.558480144E-2,6.429248312E-2
5.195545833E0,-4.491136707E-3,-5.508311033E-2,-1.065128803E-2,5.628293960E-2
5.205494833E0,2.420546282E-3,-6.615247428E-2,1.490279853E-2,6.785353567E-2
5.215443833E0,3.476736154E-3,-6.608055353E-2,1.215051413E-3,6.618310660E-2
5.225393833E0,1.038538590E-3,-3.898631036E-2,-4.016452432E-2,5.598392601E-2
5.235342833E0,1.438574022E-2,-1.380644560E-2,-9.383904040E-2,9.593400317E-2
5.245291833E0,2.049728656E-2,-2.960445285E-3,-1.112994111E-1,1.132098136E-1
5.255240833E0,2.171491440E-3,-1.672479093E-2,-9.551017463E-2,9.698776967E-2
5.265190833E0,-3.802553974E-3,-4.635964930E-2,-3.618783295E-2,5.893416457E-2
5.275139833E0,-5.212847572E-3,-6.929242909E-2,1.179324925E-2,7.048187878E-2
5.285088833E0,1.284474308E-2,-7.864037275E-2,3.284673393E-2,8.618702676E-2
5.295037833E0,1.269627862E-2,-6.255702138E-2,1.063023806E-2,6.471150111E-2
5.304987833E0,9.098048285E-3,-3.441261828E-2,-4.949317217E-2,6.096373406E-2
5.314936833E0,7.674342636E-3,-1.048581183E-2,-9.274385691E-2,9.364972386E-2
5.324885833E0,4.360963069E-3,-5.942525268E-3,-1.028332275E-1,1.030970625E-1
5.334834833E0,1.198456284E-2,-2.947405994E-2,-7.532090843E-2,8.176545237E-2
5.344784833E0,1.416080514E-2,-4.718001366E-2,-2.115814984E-2,5.361109396E-2
5.354733833E0,1.540620726E-2,-5.946910679E-2,2.699659467E-3,6.149157703E-2
5.364682833E0,1.039020985E-2,-5.981584668E-2,-9.336249232E-3,6.142521896E-2
5.374631833E0,1.169443130E-6,-3.931550860E-2,-3.252864540E-2,5.102765906E-2
5.384581833E0,2.428385206E-3,-2.708313346E-2,-6.972921610E-2,7.484354849E-2
5.394530833E0,-3.447664529E-4,-3.557095170E-2,-6.053154588E-2,7.021025221E-2
5.404479833E0,5.881385319E-3,-4.998843133E-2,-2.930741429E-2,5.824395671E-2
5.414428833E0,6.124611218E-3,-5.961294830E-2,-4.704377353E-3,6.011111073E-2
5.424378833E0,1.150165591E-3,-5.333245397E-2,8.122074902E-3,5.395962961E-2
5.434327833E0,1.034217132E-2,-4.378278136E-2,-2.825228423E-2,5.312329071E-2
5.444276833E0,2.154949302E-2,-2.296260059E-2,-7.665641248E-2,8.287259649E-2
5.454225833E0,1.626609514E-2,-9.659015536E-3,-9.664804280E-2,9.848211314E-2
5.464175833E0,1.457334448E-2,-1.750714839E-2,-9.509268343E-2,9.778292825E-2
5.474124833E0,1.057487223E-2,-2.853733599E-2,-7.563081086E-2,8.152439524E-2
5.484073833E0,-4.441873915E-4,-4.795886278E-2,-1.753024489E-2,5.106426644E-2
5.494022833E0,-1.357018154E-2,-7.790771663E-2,3.281808257E-2,8.562002500E-2
5.503972833E0,-1.250357632E-2,-7.726920068E-2,1.969312996E-2,8.071361820E-2
5.513921833E0,9.684012383E-3,-5.494160771E-2,-7.201138437E-3,5.625137108E-2
5.523870833E0,1.192883156E-2,-2.731409848E-2,-5.621045351E-2,6.362367548E-2
5.533819833E0,-9.600579925E-4,-2.641304255E-2,-7.331005096E-2,7.792903246E-2
5.543769833E0,1.037626790E-2,-2.091607511E-2,-6.784758210E-2,7.175265522E-2
5.553718833E0,1.019164206E-2,-3.506458282E-2,-4.028731585E-2,5.437336071E-2
5.563667833E0,7.953364458E-3,-4.517500341E-2,-3.696200430E-2,5.890863011E-2
5.573616833E0,4.028932583E-3,-3.206262231E-2,-4.879326046E-2,5.852372436E-2
5.583566833E0,-2.527276240E-4,-2.937290311E-2,-6.189920962E-2,6.851527902E-2
5.593515833E0,1.944692563E-3,-3.111478865E-2,-6.553383887E-2,7.257131623E-2
5.603464833E0,-6.905397233E-3,-3.973533869E-2,-3.837264508E-2,5.566903576E-2
5.613413833E0,7.903918941E-3,-6.091336906E-2,-4.533053935E-3,6.159106301E-2
5.623363833E0,9.229866453E-3,-7.291419446E-2,7.458123565E-3,7.387349861E-2
5.633312833E0,2.941149473E-3,-6.301485837E-2,3.362149000E-4,6.308435444E-2
5.643261833E0,1.782834325E-3,-4.390732706E-2,-3.899508119E-2,5.875072956E-2
5.653210833E0,1.048458757E-2,-2.662354231E-2,-8.030858338E-2,8.525378670E-2
5.663160833E0,6.070451383E-3,-1.667041183E-2,-7.999517262E-2,8.193888364E-2
5.673109833E0,1.780265205E-2,-2.123299420E-2,-6.124373674E-2,6.722030759E-2
5.683058833E0,1.192525014E-2,-4.305304885E-2,-4.300861001E-2,6.201223380E-2
5.693007833E0,1.493466586E-2,-5.297928214E-2,-2.447702944E-2,6.024096240E-2
5.702957833E0,-1.971425302E-4,-6.038478076E-2,-8.632829189E-3,6.099906846E-2
5.712906833E0,-6.434714645E-3,-4.776122689E-2,-3.090399653E-2,5.725030435E-2
5.722855833E0,3.015628383E-3,-3.578846812E-2,-5.439606249E-2,6.518312726E-2
5.732804208E0,1.650869977E-3,-4.001308143E-2,-4.460577697E-2,5.994537010E-2
5.742754208E0,-7.799491324E-3,-5.193964720E-2,-2.062342197E-2,5.642592090E-2
5.752703208E0,-1.445413437E-3,-6.359139383E-2,9.365485311E-3,6.429359925E-2
5.762652208E0,7.824908439E-3,-6.286458492E-2,-1.119624853E-2,6.433149470E-2
5.772601208E0,2.416197415E-2,-4.055862665E-2,-2.641011894E-2,5.409526387E-2
5.782551208E0,1.405405691E-2,-2.069797397E-2,-7.874094486E-2,8.261996756E-2
5.792500208E0,-3.444558196E-3,-1.336088777E-3,-1.066479510E-1,1.067119280E-1
5.802449208E0,7.770401426E-3,-1.067818522E-2,-1.071981740E-1,1.080085704E-1
5.812398208E0,1.979333661E-2,-4.336119711E-2,-5.597539544E-2,7.352016379E-2
5.822348208E0,5.965347681E-3,-7.882806838E-2,1.619795680E-2,8.069587066E-2
5.832297208E0,3.423965033E-3,-8.753223360E-2,3.581770420E-2,9.463891054E-2
5.842246208E0,3.931667805E-3,-6.513915181E-2,1.772320300E-2,6.762158705E-2
5.852195208E0,5.135298874E-3,-4.913766146E-2,-3.098381102E-2,5.831704394E-2
5.862145208E0,1.929069534E-3,-1.421165764E-2,-7.573869199E-2,7.708464170E-2
5.872094208E0,1.018572176E-2,3.616502881E-3,-1.230382812E-1,1.235121316E-1
5.882043208E0,3.480080031E-3,-1.033319950E-2,-1.070303589E-1,1.075843097E-1
5.891993208E0,-5.258108675E-4,-4.389153957E-2,-3.430035174E-2,5.570689233E-2
5.901942208E0,-7.594802231E-4,-8.716385901E-2,2.472495139E-2,9.060595096E-2
5.911891208E0,-1.782048605E-3,-9.152705133E-2,3.461054653E-2,9.786861986E-2
5.921840208E0,1.194684830E-2,-6.145482123E-2,-9.274268746E-3,6.328850051E-2
5.931790208E0,9.491967894E-3,-3.070665300E-2,-5.314885139E-2,6.211116162E-2
5.941739208E0,7.341910154E-3,-9.056167603E-3,-8.493080735E-2,8.572724103E-2
5.951688208E0,5.295457765E-3,-7.956891060E-3,-8.993310034E-2,9.043957389E-2
5.961637208E0,3.241933901E-3,-2.964070559E-2,-7.269667804E-2,7.857409599E-2
5.971587208E0,-2.808472496E-3,-5.096667051E-2,-2.536112845E-2,5.699715657E-2
5.981536208E0,5.792873092E-3,-6.179805279E-2,-2.637094259E-3,6.212496256E-2
5.991485208E0,1.432238929E-2,-6.262367964E-2,7.089748979E-3,6.463064774E-2
6.001434208E0,1.312400244E-2,-4.669878781E-2,-9.388874173E-3,4.940816917E-2
6.011384208E0,-7.627875544E-3,-3.702398479E-2,-3.985929966E-2,5.493381203E-2
6.021333208E0,-4.043294806E-3,-2.374729693E-2,-6.133349150E-2,6.589445746E-2
6.031282208E0,9.960695319E-3,-2.878993571E-2,-6.572591990E-2,7.244289059E-2
6.041231208E0,1.540628035E-2,-3.342151523E-2,-4.250925779E-2,5.622622299E-2
6.051181208E0,1.288812211E-2,-5.388618529E-2,-1.383977473E-2,5.710835334E-2
6.061130208E0,7.772283498E-3,-5.878966033E-2,-2.852564156E-3,5.936977072E-2
6.071079208E0,-6.739080492E-3,-4.810445845E-2,-5.857448280E-3,4.892610580E-2
6.081028208E0,2.362220306E-3,-3.677781701E-2,-4.995568693E-2,6.207864822E-2
6.090978208E0,2.086997347E-2,-1.152778566E-2,-8.157099724E-2,8.498395863E-2
6.100927208E0,1.395110937E-2,-9.130427241E-3,-8.930364758E-2,9.084679205E-2
6.110876208E0,3.074904531E-4,-3.748649955E-2,-5.287403226E-2,6.481508687E-2
6.120825208E0,-3.573507573E-3,-6.066135406E-2,-2.449690998E-3,6.081587638E-2
6.130775208E0,1.272909611E-2,-6.992860615E-2,2.461443901E-2,7.521908305E-2
6.140724208E0,1.647816634E-2,-6.189570129E-2,-8.105702698E-3,6.456245209E-2
6.150673208E0,1.669964790E-2,-3.405769229E-2,-5.991729587E-2,7.091464580E-2
6.160622208E0,5.522603821E-3,-1.834388494E-2,-9.101512760E-2,9.300941200E-2
6.170572208E0,-7.940409221E-3,-2.310468793E-2,-7.667453885E-2,8.047273831E-2
6.180521208E0,1.194324860E-2,-4.383365214E-2,-2.905919999E-2,5.393020815E-2
6.190470208E0,1.055784222E-2,-6.320430815E-2,1.671017289E-2,6.622297546E-2
6.200419208E0,-8.635021895E-3,-7.116529226E-2,1.238820344E-2,7.274977670E-2
6.210369208E0,3.174855374E-4,-5.524507821E-2,-1.740540683E-2,5.792294580E-2
6.220318208E0,1.240017196E-2,-2.692818224E-2,-7.691427469E-2,8.242995157E-2
6.230267208E0,1.450515132E-2,-5.635546446E-3,-1.140736225E-1,1.151301444E-1
6.240216208E0,1.355483260E-2,-9.969502687E-3,-9.812855780E-2,9.956072683E-2
6.250166208E0,3.176719174E-3,-4.036508381E-2,-4.503759384E-2,6.056249991E-2
6.260115208E0,8.484876361E-3,-6.815982342E-2,2.076404750E-2,7.175583826E-2
6.270064208E0,4.549572319E-3,-8.443964124E-2,5.132510483E-2,9.891924993E-2
6.280013208E0,5.561579168E-3,-6.646588504E-2,1.109509170E-2,6.761468847E-2
6.289963208E0,1.268387156E-2,-2.720884860E-2,-6.523241490E-2,7.180856490E-2
6.299912208E0,1.960196821E-2,5.900425315E-3,-1.182728004E-1,1.200312772E-1
6.309861208E0,1.990463471E-2,5.988718271E-3,-1.221152982E-1,1.238717292E-1
6.319810208E0,2.065930925E-2,-2.354205966E-2,-6.563441098E-2,7.272490314E-2
6.329760208E0,-8.553782143E-3,-5.774476290E-2,7.611320615E-3,5.886898192E-2
6.339709208E0,1.238330640E-3,-8.114239633E-2,3.628665090E-2,8.889512348E-2
6.349658208E0,2.394270357E-3,-7.284168899E-2,1.605177641E-2,7.462776770E-2
6.359607208E0,4.732316080E-3,-4.754020214E-2,-2.891214252E-2,5.584243566E-2
6.369557208E0,1.246631859E-2,-2.274625361E-2,-6.191733599E-2,6.713089935E-2
6.379506208E0,9.554313831E-3,-2.484891236E-2,-6.594489813E-2,7.111598236E-2
6.389455208E0,-3.263184875E-3,-4.375646889E-2,-3.981310666E-2,5.924829455E-2
6.399404208E0,-8.290182352E-3,-4.351088583E-2,-2.429518104E-2,5.051910659E-2
6.409354208E0,9.399929065E-3,-3.129254401E-2,-4.153248042E-2,5.284438387E-2
6.419303208E0,2.170374988E-2,-2.808359206E-2,-6.901468635E-2,7.760649350E-2
6.429252208E0,3.122661665E-2,-3.605919421E-2,-5.256062150E-2,7.097877152E-2
6.439201208E0,7.438900843E-3,-4.959023595E-2,-2.320613712E-2,5.525444369E-2
6.449151208E0,-9.470113926E-4,-6.082799971E-2,-9.869515300E-3,6.163075297E-2
6.459100208E0,7.932661660E-4,-6.405273914E-2,-1.071794629E-3,6.406661694E-2
6.469049208E0,1.177733386E-2,-5.465333998E-2,-1.993286580E-2,5.935496865E-2
6.478998208E0,1.273985865E-2,-3.358640671E-2,-5.596837878E-2,6.650421143E-2
6.488948208E0,1.218821039E-2,-1.094832659E-2,-8.537636518E-2,8.693412483E-2
6.498897208E0,1.809643809E-2,-1.799948394E-2,-7.166405976E-2,7.607364823E-2
6.508846208E0,1.775994910E-2,-4.923940301E-2,-2.782426804E-2,5.928005139E-2
6.518795208E0,3.344643898E-3,-8.259893775E-2,1.734722704E-2,8.446713826E-2
6.528745208E0,4.446003512E-3,-7.732007146E-2,4.488264263E-2,8.951319460E-2
6.538694208E0,1.260646904E-2,-6.113205492E-2,-5.534389615E-3,6.266323220E-2
6.548643208E0,6.974504013E-3,-2.632416487E-2,-6.621679366E-2,7.159796872E-2
6.558592208E0,8.824910223E-4,-1.081208646E-2,-1.002487582E-1,1.008339899E-1
6.568542208E0,-3.122139070E-3,-7.910113335E-3,-9.269006252E-2,9.307934967E-2
6.578491208E0,2.533008339E-2,-2.716090143E-2,-6.054908752E-2,7.103182168E-2
6.588440208E0,1.967721457E-2,-5.137188256E-2,-3.016578555E-2,6.273944300E-2
6.598389208E0,6.919174735E-3,-5.641627550E-2,-1.853859723E-2,5.978587381E-2
6.608339208E0,-7.630963605E-3,-5.682499588E-2,-4.911661148E-5,5.733510421E-2
6.618288208E0,-1.593457628E-3,-6.328499973E-2,7.748730183E-3,6.377752831E-2
6.628237208E0,6.483776439E-3,-4.004114807E-2,-2.322221696E-2,4.673975028E-2
6.638186208E0,1.435710713E-2,-2.232233047E-2,-6.840394467E-2,7.337242404E-2
6.648136208E0,-6.242542248E-3,-1.793165624E-2,-9.391593128E-2,9.581605178E-2
6.658085208E0,4.319813289E-4,-3.256080508E-2,-4.965367824E-2,5.937912426E-2
6.668034208E0,4.590155650E-3,-6.520230174E-2,7.986419499E-3,6.584977280E-2
6.677983208E0,6.787228659E-3,-8.107281446E-2,4.161755741E-2,9.138319759E-2
6.687933208E0,1.319016734E-2,-6.162497520E-2,7.579160929E-3,6.347489081E-2
6.697882208E0,-1.146127358E-3,-3.017689526E-2,-4.478031635E-2,5.401143720E-2
6.707831208E0,1.061934762E-2,-9.402322769E-3,-9.924011350E-2,1.002485628E-1
6.717780208E0,1.492129035E-2,3.280872703E-3,-1.205163771E-1,1.214808881E-1
6.727730208E0,1.460095430E-2,-1.105416119E-2,-9.983126700E-2,1.014971143E-1
6.737679708E0,1.018522840E-2,-4.286476851E-2,-3.998969257E-2,5.950044343E-2
6.747628708E0,-3.220737744E-3,-7.293816805E-2,2.662763536E-2,7.771345105E-2
6.757577708E0,1.069220027E-2,-8.793101370E-2,3.936404049E-2,9.693149128E-2
6.767527708E0,6.150887143E-3,-7.435202479E-2,1.632922679E-2,7.637211959E-2
6.777476708E0,4.993138444E-3,-4.155966997E-2,-3.871646136E-2,5.701843544E-2
6.787425708E0,1.150452470E-2,-1.421808958E-2,-8.640576750E-2,8.832024013E-2
6.797374708E0,1.835408103E-2,5.248460770E-3,-1.179763466E-1,1.195108237E-1
6.807324708E0,1.307793735E-2,-9.250295162E-3,-8.427182615E-2,8.578077342E-2
6.817273708E0,-8.864214476E-3,-5.334064007E-2,-1.999513865E-2,5.765070468E-2
6.827222708E0,-4.019120224E-3,-8.158093750E-2,3.556948990E-2,8.908867101E-2
6.837172708E0,2.429426741E-3,-7.132199764E-2,2.815288156E-2,7.671580152E-2
6.847121708E0,2.341846414E-3,-4.324425280E-2,-2.103418887E-2,4.814547483E-2
6.857070708E0,1.781728836E-2,-8.864378929E-4,-9.737163574E-2,9.899230769E-2
6.867019708E0,1.910663595E-2,1.588103771E-2,-1.284510487E-1,1.308317347E-1
6.876969708E0,1.422550824E-2,-2.013137877E-2,-8.611194491E-2,8.957066793E-2
6.886918708E0,9.627184756E-3,-6.190330267E-2,-1.598336399E-2,6.465423027E-2
6.896867708E0,-1.850168668E-3,-8.805322051E-2,3.764612854E-2,9.578112424E-2
6.906816708E0,4.144415092E-3,-8.851105750E-2,4.251568973E-2,9.828004553E-2
6.916766708E0,2.713254243E-3,-6.274296284E-2,-3.298414350E-3,6.288816003E-2
6.926715708E0,1.521831064E-2,-2.834730148E-2,-6.108469248E-2,6.903988800E-2
6.936664708E0,2.423603280E-2,-2.153821886E-2,-9.942020774E-2,1.045736959E-1
6.946613708E0,1.648448864E-2,-1.279312313E-2,-8.486414909E-2,8.739179691E-2
6.956563708E0,2.277940001E-2,-2.530207157E-2,-7.656958133E-2,8.379735483E-2
6.966512708E0,7.403324191E-3,-2.326840997E-2,-6.499297142E-2,6.942848440E-2
6.976461708E0,9.483964518E-3,-3.102298737E-2,-5.971468985E-2,6.795745369E-2
6.986410708E0,8.417176567E-3,-5.541523218E-2,-1.143598437E-2,5.720558153E-2
6.996360708E0,2.513608374E-3,-9.061605513E-2,4.698997915E-2,1.021060518E-1
7.006309708E0,-1.641148981E-3,-9.845951021E-2,6.362150699E-2,1.172376419E-1
7.016258708E0,1.125283862E-2,-7.063845813E-2,9.926818013E-3,7.221467898E-2
7.026207708E0,2.413405370E-2,-1.049926043E-2,-9.488276839E-2,9.846535815E-2
7.036157708E0,1.196334841E-2,2.339529455E-2,-1.717932424E-1,1.737911955E-1
7.046106708E0,6.893209442E-3,1.371932209E-2,-1.382369488E-1,1.390869878E-1
7.056055708E0,1.653406207E-2,-3.433718920E-2,-4.545011491E-2,5.931383241E-2
7.066004708E0,2.119981125E-2,-9.556747735E-2,5.594031215E-2,1.127470321E-1
7.075954708E0,6.143907029E-3,-1.014497763E-1,7.962036610E-2,1.291092847E-1
7.085903708E0,-2.204831533E-2,-7.361527562E-2,2.458754182E-2,8.068385357E-2
7.095852708E0,6.377558112E-3,-4.065919876E-2,-5.936999649E-2,7.224015625E-2
7.105801708E0,3.855237387E-2,-5.461884141E-3,-1.107746235E-1,1.174186310E-1
7.115751708E0,1.565021887E-2,2.621891499E-3,-1.162786075E-1,1.173563728E-1
7.125700708E0,6.482734904E-3,-2.763628006E-2,-7.351821184E-2,7.880810428E-2
7.135649708E0,-9.054596163E-4,-5.193672359E-2,-1.439233661E-2,5.390159986E-2
7.145598708E0,2.463541590E-3,-5.410428643E-2,-1.989632070E-2,5.769927577E-2
7.155548708E0,-2.528317776E-3,-4.017914236E-2,-4.589304149E-2,6.104856369E-2
7.165497708E0,-1.458854724E-2,-4.337289155E-2,-3.826944172E-2,5.965386493E-2
7.175446708E0,-2.371265218E-3,-7.010636151E-2,9.184221625E-3,7.074513941E-2
7.185395708E0,1.080812132E-2,-8.372861981E-2,2.151775360E-2,8.712239082E-2
7.195345708E0,3.398295756E-2,-4.653389633E-2,-3.079026818E-2,6.533211712E-2
7.205294708E0,7.518002708E-3,-1.394268572E-2,-8.613650322E-2,8.758091137E-2
7.215243708E0,2.554502338E-4,3.971428871E-3,-1.142849994E-1,1.143542679E-1
7.225192708E0,-2.848672103E-3,-1.356378615E-2,-8.362687826E-2,8.476759991E-2
7.235142708E0,8.015271854E-3,-5.052695990E-2,-1.937241018E-2,5.470382560E-2
7.245091708E0,3.011071209E-2,-8.804912746E-2,4.487328708E-2,1.033098046E-1
7.255040708E0,2.294418186E-2,-8.677268028E-2,5.228287876E-2,1.038721952E-1
7.264989708E0,-8.530283645E-3,-5.949074149E-2,-4.187191129E-3,6.024488884E-2
7.274939708E0,-5.492728204E-3,-1.949403226E-2,-6.615247428E-2,6.918335935E-2
7.284888708E0,9.038552865E-3,-1.845965981E-3,-1.028267956E-1,1.032397836E-1
7.294837708E0,2.358936729E-2,-1.134710670E-2,-1.025244945E-1,1.058134540E-1
7.304786708E0,2.255333204E-2,-3.284381032E-2,-5.919136405E-2,7.135114744E-2
7.314736708E0,1.378577935E-2,-6.241961181E-2,-1.140323997E-2,6.493296183E-2
7.324685708E0,-1.131052505E-3,-6.802943051E-2,3.821798623E-2,7.803779319E-2
7.334634708E0,-1.025069894E-2,-7.906137228E-2,3.411791861E-2,8.671683681E-2
7.344583708E0,-9.027735516E-3,-5.864289522E-2,1.223237514E-3,5.934631816E-2
7.354533708E0,6.600337029E-3,-2.068627954E-2,-7.643889606E-2,7.946314517E-2
7.364482708E0,2.904608030E-2,7.479758263E-3,-1.308492842E-1,1.342429020E-1
7.374431708E0,7.015326714E-2,2.393148422E-2,-1.530315739E-1,1.700378177E-1
7.384380708E0,5.044135300E-2,-7.528874874E-3,-1.010305309E-1,1.131732399E-1
7.394330708E0,-9.453357998E-3,-4.192512095E-2,-2.028106749E-2,4.752266241E-2
7.404279708E0,-3.224346573E-2,-7.126527965E-2,3.037745476E-2,8.391168526E-2
7.414228708E0,-1.773751041E-2,-8.031676948E-2,1.987760961E-2,8.461986823E-2
7.424177708E0,8.686111942E-3,-5.025214076E-2,-4.179589748E-3,5.116830232E-2
7.434127708E0,1.760145301E-2,-2.084766269E-2,-7.060600609E-2,7.569441382E-2
7.444076708E0,-4.847542774E-3,-3.052948236E-2,-6.751458317E-2,7.425474332E-2
7.454025708E0,-1.027843667E-2,-4.358865380E-2,-3.239474416E-2,5.527238415E-2
7.463974708E0,5.217251256E-3,-6.433048189E-2,2.388587594E-4,6.454213867E-2
7.473924708E0,1.434513861E-2,-6.133319914E-2,1.574245870E-2,6.492587562E-2
7.483873708E0,4.783424400E-3,-4.123807311E-2,-1.866694361E-2,4.551828870E-2
7.493822708E0,4.468990378E-3,-2.370227337E-2,-6.109814107E-2,6.568677554E-2
7.503771708E0,2.135847179E-2,-1.841697514E-2,-9.157002836E-2,9.581460946E-2
7.513721708E0,1.482758872E-2,-1.184938252E-2,-8.234399915E-2,8.450325111E-2
7.523670708E0,2.727415469E-3,-3.343847215E-2,-4.105447054E-2,5.301923959E-2
7.533619708E0,1.192214381E-2,-4.452537775E-2,-1.091148913E-2,4.736778834E-2
7.543568708E0,6.390129626E-3,-5.389144778E-2,-3.394601047E-3,5.437504223E-2
7.553518708E0,-3.423709217E-3,-5.621220767E-2,-1.792376250E-2,5.909987596E-2
7.563467708E0,1.998852398E-3,-5.519771576E-2,-1.490338326E-2,5.720921314E-2
7.573416708E0,8.851387147E-3,-4.957210958E-2,-2.559852540E-2,5.648916361E-2
7.583365708E0,1.451386733E-2,-3.567152381E-2,-4.475166500E-2,5.904084582E-2
7.593315708E0,1.659375848E-2,-2.718721390E-2,-3.927048504E-2,5.056350874E-2
7.603264708E0,2.746616263E-2,-3.533004642E-2,-3.302156568E-2,5.561498062E-2
7.613213708E0,1.865093686E-2,-4.546034753E-2,-1.965980083E-2,5.292455396E-2
7.623162708E0,-1.354068965E-3,-4.874999106E-2,-3.301484138E-2,5.889291029E-2
7.633112708E0,1.137458861E-2,-4.903065741E-2,-3.307711422E-2,6.022858223E-2
7.643061708E0,9.354923777E-3,-4.345533729E-2,-3.661263317E-2,5.758789669E-2
7.653010708E0,1.398522422E-2,-3.811215162E-2,-5.149408937E-2,6.557258449E-2
7.662959708E0,7.872307431E-3,-2.253399968E-2,-6.947398514E-2,7.346011827E-2
7.672909708E0,1.287586123E-2,-1.848948061E-2,-5.732931823E-2,6.159788490E-2
7.682858708E0,7.347190920E-3,-3.252923012E-2,-4.313549459E-2,5.452341625E-2
7.692807708E0,1.902892280E-2,-5.453873456E-2,-1.151316762E-2,5.889929116E-2
7.702756708E0,9.002976213E-3,-6.380364776E-2,1.462564051E-2,6.607471837E-2
7.712706708E0,7.151035108E-3,-6.566832483E-2,1.229494035E-2,6.719100942E-2
7.722655708E0,5.957892481E-3,-5.421889186E-2,-1.756152749E-2,5.730263489E-2
7.732604000E0,6.717043798E-3,-3.551891148E-2,-4.682245642E-2,5.915280361E-2
7.742553000E0,2.446211904E-2,-2.839700282E-2,-6.248510063E-2,7.286407096E-2
7.752503000E0,3.744299261E-2,-2.168264508E-2,-6.172262371E-2,7.537769611E-2
7.762452000E0,2.046401225E-2,-3.425006568E-2,-4.182220995E-2,5.780086541E-2
7.772401000E0,7.812044565E-3,-3.710701525E-2,-4.165088654E-2,5.632721341E-2
7.782351000E0,1.284624143E-2,-4.142226040E-2,-4.169444829E-2,6.016025760E-2
7.792300000E0,5.477561988E-3,-3.688365161E-2,-2.920859635E-2,4.736612231E-2
7.802249000E0,-9.775192402E-3,-4.606261075E-2,-2.089444041E-2,5.151597942E-2
7.812198000E0,-5.268158577E-3,-4.729578853E-2,-2.400779039E-2,5.330121112E-2
7.822148000E0,2.510527622E-2,-3.537916303E-2,-5.057461470E-2,6.663146196E-2
7.832097000E0,2.594906598E-2,-2.319999754E-2,-8.165461242E-2,8.876412362E-2
7.842046000E0,1.067500580E-3,-3.279352427E-2,-5.076260269E-2,6.044333398E-2
7.851995000E0,-1.906707589E-2,-3.890620351E-2,-1.638155937E-2,4.632063840E-2
7.861945000E0,1.325854322E-2,-6.155831695E-2,-1.569334209E-2,6.489604256E-2
7.871894000E0,2.757810026E-2,-5.109180093E-2,-1.420522571E-2,5.977216889E-2
7.881843000E0,9.943994209E-3,-4.149125755E-2,-3.687341899E-2,5.639198969E-2
7.891792000E0,8.987152185E-3,-2.597508609E-2,-6.579287052E-2,7.130340674E-2
7.901742000E0,1.585770367E-2,-2.835139453E-2,-6.130893320E-2,6.938338149E-2
7.911691000E0,1.771485245E-2,-3.841620684E-2,-3.872610927E-2,5.735270250E-2
7.921640000E0,1.044661721E-2,-4.197891533E-2,-2.796547830E-2,5.151144650E-2
7.931589000E0,2.312920969E-3,-5.405516982E-2,-1.056357980E-2,5.512622067E-2
7.941539000E0,-6.392194424E-3,-6.079700947E-2,1.938351989E-4,6.113243069E-2
7.951488000E0,-6.917585023E-3,-4.405526161E-2,-2.332512796E-2,5.032673894E-2
7.961437000E0,1.133639898E-2,-3.123641074E-2,-4.031889081E-2,5.224787320E-2
7.971386000E0,2.795767592E-2,-2.708547235E-2,-6.060346663E-2,7.202801276E-2
7.981336000E0,2.486546729E-2,-2.858762205E-2,-5.984274387E-2,7.082864951E-2
7.991285000E0,9.309278950E-3,-3.406412423E-2,-5.021998107E-2,6.139278242E-2
8.001234000E0,9.171101935E-3,-4.447976947E-2,-4.733876556E-2,6.560120218E-2
8.011183000E0,1.977979666E-2,-4.542117119E-2,-3.420971990E-2,6.020488421E-2
8.021133000E0,6.475224886E-3,-3.426819205E-2,-3.479619563E-2,4.926472119E-2
8.031082000E0,-9.410563689E-3,-4.715604007E-2,-4.313023210E-2,6.459464177E-2
8.041031000E0,-6.723932549E-4,-3.823143482E-2,-3.252455235E-2,5.019901619E-2
8.050980000E0,1.337523172E-2,-4.150061309E-2,-2.418583810E-2,4.986133247E-2
8.060930000E0,2.361553358E-2,-4.515161455E-2,-1.704784960E-2,5.373072583E-2
8.070879000E0,2.701729747E-2,-4.910491705E-2,-1.364009231E-2,5.768257414E-2
8.080828000E0,2.234725423E-2,-3.982480109E-2,-2.653641880E-2,5.281662689E-2
8.090777000E0,1.511722689E-2,-3.578612924E-2,-5.470245659E-2,6.709348964E-2
8.100727000E0,1.901112534E-2,-2.097980976E-2,-5.872007847E-2,6.518913191E-2
8.110676000E0,1.502314154E-2,-2.148617864E-2,-7.517355859E-2,7.961416059E-2
8.120625000E0,7.510127239E-3,-3.519731462E-2,-6.399309754E-2,7.341913579E-2
8.130574000E0,-1.078303311E-2,-5.056905985E-2,-2.853850543E-2,5.905886817E-2
8.140524000E0,-3.128260374E-3,-7.128749907E-2,6.411471963E-4,7.135898406E-2
8.150473000E0,3.979121614E-3,-6.829489410E-2,1.079103649E-2,6.925656963E-2
8.160422000E0,5.735150110E-3,-5.504627287E-2,-7.668038607E-3,5.587291759E-2
8.170371000E0,3.812402878E-3,-3.617964685E-2,-5.426040709E-2,6.532758253E-2
8.180321000E0,2.614856567E-2,-1.826085448E-2,-7.094251335E-2,7.778204480E-2
8.190270000E0,1.875309868E-2,-2.593766391E-2,-6.530228913E-2,7.272434314E-2
8.200219000E0,1.658716209E-2,-4.221572757E-2,-5.052520573E-2,6.789770257E-2
8.210168000E0,1.028167091E-2,-5.199402630E-2,-1.703586280E-2,5.567146621E-2
8.220118000E0,1.576226614E-3,-6.077128172E-2,2.297955751E-3,6.083513601E-2
8.230067000E0,8.302863501E-3,-4.640759647E-2,-7.900173068E-3,4.780183351E-2
8.240016000E0,2.026710726E-2,-3.208308756E-2,-5.107221276E-2,6.362743952E-2
8.249965000E0,1.556733459E-2,-1.856374025E-2,-8.315880865E-2,8.661605979E-2
8.259915000E0,1.265956907E-2,-1.746972620E-2,-7.434997827E-2,7.741689280E-2
8.269864000E0,8.576513194E-3,-4.741682589E-2,-3.610187888E-2,6.021011223E-2
8.279813000E0,-9.333526623E-3,-5.845227599E-2,2.146512866E-3,5.923167063E-2
8.289762000E0,-3.003714681E-3,-6.513271987E-2,3.386795014E-2,7.347333902E-2
8.299712000E0,3.280068710E-3,-5.733311892E-2,-1.337550581E-2,5.896396807E-2
8.309661000E0,1.797532763E-2,-2.291816175E-2,-6.604663968E-2,7.218388431E-2
8.319610000E0,1.209741410E-2,-1.280715644E-2,-1.041944593E-1,1.056733459E-1
8.329559000E0,3.263440691E-3,-2.005419552E-2,-7.002274632E-2,7.291094435E-2
8.339509000E0,1.848007025E-2,-4.101237059E-2,-2.745384693E-2,5.269953746E-2
8.349458000E0,3.486477250E-2,-6.038770437E-2,2.184519768E-3,6.976388269E-2
8.359407000E0,1.563582011E-2,-7.924672902E-2,3.269295216E-2,8.713984193E-2
8.369356000E0,-3.615388256E-3,-6.730437577E-2,1.653066337E-2,6.939893991E-2
8.379306000E0,-2.600530889E-3,-4.420378089E-2,-3.378930509E-2,5.569967814E-2
8.389255000E0,2.152696297E-2,-1.806789637E-2,-7.876638025E-2,8.363014810E-2
8.399204000E0,2.013514291E-2,-9.836186171E-3,-9.029124230E-2,9.303054861E-2
8.409153000E0,1.970666992E-2,-1.661778688E-2,-7.221106678E-2,7.667425804E-2
8.419103000E0,-2.350233514E-3,-3.408751309E-2,-4.097260952E-2,5.335013474E-2
8.429052000E0,-1.583276164E-2,-4.999427855E-2,-2.572482526E-2,5.841122207E-2
8.439001000E0,-8.679460734E-6,-5.953751922E-2,-7.204939127E-3,5.997188856E-2
8.448950000E0,2.588072665E-2,-5.631745756E-2,-5.423877239E-3,6.221644864E-2
8.458900000E0,1.766414613E-2,-4.428798079E-2,-3.189129889E-2,5.736289956E-2
8.468849000E0,7.278559227E-3,-2.853499711E-2,-6.937896788E-2,7.537018421E-2
8.478798000E0,6.597851962E-4,-2.437061012E-2,-7.498703241E-2,7.885059914E-2
8.488747000E0,1.874290260E-2,-2.913199782E-2,-5.345466077E-2,6.369749173E-2
8.498697000E0,9.409650061E-3,-5.310441256E-2,-2.403848827E-2,5.904632982E-2
8.508646000E0,1.015946411E-2,-7.079750240E-2,6.706756353E-3,7.183649238E-2
8.518595000E0,9.745444693E-3,-6.699973583E-2,2.653466463E-3,6.775676481E-2
8.528544000E0,-3.340240214E-3,-6.149458230E-2,-1.172249794E-2,6.269097076E-2
8.538494000E0,8.669282924E-3,-3.806595862E-2,-4.904527545E-2,6.268662310E-2
8.548443000E0,1.551129268E-2,-2.846015275E-2,-7.801238179E-2,8.447787999E-2
8.558392000E0,1.567194493E-2,-1.803515196E-2,-7.848600626E-2,8.204224365E-2
8.568341000E0,1.066660043E-2,-2.459923625E-2,-5.335174978E-2,5.971020008E-2
8.578291000E0,4.155433439E-3,-4.792670310E-2,-2.433114141E-2,5.390956259E-2
8.588240000E0,2.526307795E-3,-5.073512077E-2,4.093050957E-6,5.079797956E-2
8.598189000E0,7.365299016E-3,-5.522051990E-2,-9.881209731E-3,5.657907523E-2
8.608138000E0,4.907093011E-3,-4.500017166E-2,-2.915363252E-2,5.384263460E-2
8.618088000E0,8.792037908E-3,-3.377059400E-2,-5.176949322E-2,6.243263072E-2
8.628037000E0,2.128331680E-2,-2.348534167E-2,-7.037708759E-2,7.718468310E-2
8.637986000E0,1.286818676E-2,-3.145568132E-2,-4.723146915E-2,5.818815856E-2
8.647935000E0,4.428936951E-3,-5.255302012E-2,-4.438621402E-3,5.292576656E-2
8.657885000E0,1.820101188E-2,-6.316162348E-2,6.278155446E-3,6.603092268E-2
8.667834000E0,9.148115069E-3,-5.406043231E-2,-1.450167954E-2,5.671434616E-2
8.677783000E0,1.079123748E-2,-3.547096431E-2,-4.272326589E-2,5.656781385E-2
8.687732000E0,1.109828940E-2,-2.674691856E-2,-6.824402332E-2,7.413377367E-2
8.697682000E0,1.228194857E-2,-2.999563158E-2,-7.098695219E-2,7.803673209E-2
8.707631000E0,3.602378201E-3,-4.730514407E-2,-3.336245835E-2,5.799833973E-2
8.717580000E0,8.629594948E-3,-7.639913499E-2,9.698776603E-3,7.749428369E-2
8.727529000E0,1.412555739E-2,-7.131498098E-2,1.923617005E-2,7.520231461E-2
8.737479208E0,2.217373811E-3,-4.764662147E-2,-1.471393347E-2,4.991610083E-2
8.747428208E0,2.814959250E-3,-2.702173769E-2,-6.318442762E-2,6.877768677E-2
8.757377208E0,1.493159607E-3,-1.164940774E-2,-1.015713984E-1,1.022481648E-1
8.767326208E0,7.852225900E-3,-2.772749662E-3,-9.623230577E-2,9.659193685E-2
8.777276208E0,1.795603182E-2,-2.849932909E-2,-6.223454744E-2,7.076559709E-2
8.787225208E0,5.494994000E-3,-4.712446511E-2,-1.236656874E-2,4.902899339E-2
8.797174208E0,-9.894950688E-3,-5.835170388E-2,1.023876697E-2,6.006383058E-2
8.807124208E0,-2.543282993E-3,-5.843064129E-2,1.096060574E-3,5.849623474E-2
8.817073208E0,-4.207071662E-4,-5.697643876E-2,-2.056465745E-2,6.057554543E-2
8.827022208E0,1.463366216E-2,-3.844719708E-2,-5.047491968E-2,6.511565517E-2
8.836971208E0,2.142777957E-2,-1.891808152E-2,-7.532675564E-2,8.056775820E-2
8.846921208E0,1.685785163E-2,-1.039693415E-2,-8.246094346E-2,8.480619434E-2
8.856870208E0,9.670508970E-3,-3.252279818E-2,-5.865868270E-2,6.776497769E-2
8.866819208E0,1.082783740E-2,-4.432715714E-2,-2.528920770E-2,5.216975128E-2
8.876768208E0,1.131359484E-2,-5.817277908E-2,-1.930750608E-3,5.929416036E-2
8.886718208E0,7.910917327E-3,-6.395216703E-2,4.522821307E-3,6.459812841E-2
8.896667208E0,1.737247970E-2,-5.935742497E-2,-1.622134566E-2,6.393933848E-2
8.906616208E0,1.328668294E-2,-3.505054951E-2,-3.553908437E-2,5.165368799E-2
8.916565208E0,-6.262952685E-3,-3.207139313E-2,-7.563285738E-2,8.239009619E-2
8.926515208E0,-2.786161713E-3,-2.733164012E-2,-6.162555993E-2,6.747214896E-2
8.936464208E0,1.817011300E-2,-4.033818662E-2,-2.947230577E-2,5.315956277E-2
8.946413208E0,1.345281696E-2,-5.327164292E-2,-3.198426962E-3,5.503704352E-2
8.956362208E0,1.533090608E-2,-6.329552472E-2,-7.309019566E-3,6.553458551E-2
8.966312208E0,-5.395298973E-3,-4.331792772E-2,-3.518094242E-2,5.606470210E-2
8.976261208E0,8.595553190E-3,-2.985646784E-2,-5.420193493E-2,6.247513071E-2
8.986210208E0,1.844811156E-2,-2.624522746E-2,-6.531573772E-2,7.276874589E-2
8.996159208E0,1.896527952E-2,-2.070089757E-2,-6.918717921E-2,7.466642321E-2
9.006109208E0,9.917261470E-3,-2.849991381E-2,-6.610511184E-2,7.266693177E-2
9.016058208E0,1.173740834E-2,-4.647074640E-2,-2.890424877E-2,5.597099805E-2
9.026007208E0,-7.601380348E-6,-6.424920559E-2,-4.420202672E-3,6.440107661E-2
9.035956208E0,8.491253480E-4,-7.063611925E-2,1.548342705E-2,7.231817800E-2
9.045906208E0,1.587252270E-2,-5.645311296E-2,-1.638682187E-2,6.088857751E-2
9.055855208E0,-9.702540748E-4,-3.417756021E-2,-3.720174015E-2,5.052738351E-2
9.065804208E0,1.349974087E-2,-2.980033457E-2,-6.187582076E-2,6.999228628E-2
9.075753208E0,2.495229844E-2,-1.970394731E-2,-7.250138104E-2,7.916636274E-2
9.085703208E0,3.606562614E-2,-1.723291397E-2,-6.739266872E-2,7.835479890E-2
9.095652208E0,1.405822305E-2,-3.024647713E-2,-4.985628426E-2,5.998443210E-2
9.105601208E0,-5.341449771E-3,-3.156210065E-2,-2.727433741E-2,4.205456889E-2
9.115550208E0,4.868428297E-3,-5.558597088E-2,-3.010380507E-2,6.340142610E-2
9.125500208E0,9.843440372E-3,-4.587900817E-2,-3.153023332E-2,5.653257754E-2
9.135449208E0,-5.302931238E-3,-4.352725804E-2,-3.771190971E-2,5.783538196E-2
9.145398208E0,-1.829009056E-3,-4.772555888E-2,-2.602712631E-2,5.439196217E-2
9.155347208E0,1.005457968E-2,-5.185486257E-2,-1.419645488E-2,5.469516136E-2
9.165297208E0,3.270475622E-2,-6.176472366E-2,-1.492209435E-2,7.146433424E-2
9.175246208E0,2.422720715E-2,-4.235313714E-2,-2.953720987E-2,5.703676497E-2
9.185195208E0,4.438018408E-3,-3.259881198E-2,-5.371135354E-2,6.298641162E-2
9.195144208E0,1.504026292E-2,-1.321587682E-2,-7.045982569E-2,7.324927266E-2
9.205094208E0,2.704392057E-2,-1.502500534E-2,-7.277327657E-2,7.907638211E-2
9.215043208E0,2.427336361E-2,-3.231756091E-2,-5.024044633E-2,6.448041076E-2
9.224992208E0,-9.941362962E-4,-4.715662479E-2,-2.095057368E-2,5.161067822E-2
9.234941208E0,-1.393870231E-2,-7.117347836E-2,1.212654054E-2,7.353233595E-2
9.244891208E0,-4.989885930E-3,-6.786453903E-2,1.072847128E-2,6.888827705E-2
9.254840208E0,1.925988782E-2,-5.697760820E-2,5.645486712E-4,6.014740086E-2
9.264789208E0,2.860494442E-2,-4.492942035E-2,-3.629629880E-2,6.445399107E-2
9.274738208E0,1.495887699E-2,-3.434011281E-2,-5.990004659E-2,7.064720043E-2
9.284688208E0,3.130215537E-3,-3.082476676E-2,-6.275407255E-2,6.998598514E-2
9.294637208E0,8.809488192E-3,-2.790232837E-2,-5.005158126E-2,5.797678671E-2
9.304586208E0,1.223206451E-2,-3.440150857E-2,-5.170195788E-2,6.329438872E-2
9.314535208E0,1.016891101E-2,-3.446173489E-2,-4.437247306E-2,5.709583425E-2
9.324485208E0,5.247382689E-3,-4.377868831E-2,-3.199684113E-2,5.447849500E-2
9.334434208E0,-6.097549573E-4,-4.854066074E-2,-2.770761609E-2,5.589525504E-2
9.344383208E0,-3.658383563E-3,-4.588602483E-2,-3.152964860E-2,5.579453187E-2
9.354332208E0,-8.209216688E-3,-4.141407430E-2,-3.030027151E-2,5.196752104E-2
9.364282208E0,4.779422712E-3,-4.372255504E-2,-2.330758631E-2,4.977698545E-2
9.374231208E0,1.714114923E-2,-4.021013260E-2,-4.382780492E-2,6.189951732E-2
9.384180208E0,1.794305831E-2,-3.157437980E-2,-5.916592866E-2,6.942263259E-2
9.394129208E0,1.210549057E-2,-3.026401877E-2,-6.372178674E-2,7.157457537E-2
9.404079208E0,2.584790915E-2,-3.173985600E-2,-4.442889869E-2,6.041075985E-2
9.414028208E0,3.220697545E-2,-3.686435580E-2,-4.131233275E-2,6.405449893E-2
9.423977208E0,-3.232596628E-3,-5.619466603E-2,-1.175728887E-2,5.750238267E-2
9.433926208E0,-1.834271550E-3,-6.978417993E-2,1.854561388E-2,7.222974536E-2
9.443876208E0,9.781807065E-3,-6.726753831E-2,4.471073449E-3,6.812191980E-2
9.453825208E0,1.734744631E-2,-4.879676878E-2,-2.325993150E-2,5.677220227E-2
9.463774208E0,2.848182399E-2,-3.157087147E-2,-5.222528368E-2,6.734548596E-2
9.473723208E0,1.630063025E-2,-2.397475362E-2,-6.086220592E-2,6.741444554E-2
9.483673208E0,2.723587370E-2,-2.416186452E-2,-5.584968030E-2,6.666914806E-2
9.493622208E0,6.509705186E-3,-3.866062045E-2,-4.301036417E-2,5.819717572E-2
9.503571208E0,-8.525989596E-3,-4.958906651E-2,-2.339675635E-2,5.549032549E-2
9.513520208E0,4.351242073E-4,-4.348398864E-2,-2.647619247E-2,5.091203560E-2
9.523470208E0,2.536085436E-2,-2.970385551E-2,-6.301310420E-2,7.413597822E-2
9.533419208E0,3.674525533E-2,-5.665367246E-3,-1.003835365E-1,1.070474875E-1
9.543368208E0,-9.422513936E-3,1.479637921E-2,-1.640506518E-1,1.649858568E-1
9.553317208E0,2.150174685E-2,7.892454743E-2,-2.235916793E-1,2.380853804E-1
9.563267208E0,9.479007175E-2,9.778649569E-2,-2.885875744E-1,3.191083586E-1
9.573216208E0,5.251097498E-2,1.877190113E-2,-1.473969045E-1,1.575932557E-1
9.583165208E0,3.113348147E-2,-2.545877695E-2,1.478468478E-3,4.024461282E-2
9.593115208E0,-3.595876828E-1,5.466684705E-1,-8.201468396E-1,1.049185664E0
9.603064208E0,2.659148129E-1,3.003691877E0,-5.986180580E-1,3.074283519E0
9.613013208E0,2.122170615E0,8.921999731E0,3.048725962E0,9.664389133E0
9.622962208E0,1.377596114E0,1.659353731E1,6.110703469E0,1.773651455E1
9.632912208E0,1.875463284E0,1.771602028E1,6.735160958E0,1.904565909E1
9.642861208E0,3.456675965E0,1.560485968E1,5.472789198E0,1.689413141E1
9.652810208E0,5.109872403E0,1.419424697E1,5.446026492E0,1.603891043E1
9.662759208E0,5.302997750E0,1.253515099E1,5.453430237E0,1.466259516E1
9.672709208E0,3.934254028E0,1.167076879E1,6.221697071E0,1.379835908E1
9.682658208E0,2.083141035E0,9.427937667E0,5.537030218E0,1.113032744E1
9.692607208E0,-3.374442040E-1,6.525473957E0,4.677295974E0,8.035718797E0
9.702556208E0,-2.805601659E0,4.226689070E0,4.101336461E0,6.523592717E0
9.712506208E0,-3.871629471E0,2.417954065E0,4.048712398E0,6.101482500E0
9.722455208E0,-3.546404998E0,5.765588522E-1,4.267323711E0,5.578481888E0
9.732404083E0,-2.166471898E0,-1.546690866E0,4.194269183E0,4.967670189E0
9.742353083E0,-2.839321674E-1,-3.969268910E0,3.877893886E0,5.556417384E0
9.752303083E0,9.298316883E-1,-6.146713547E0,2.878646539E0,6.850786837E0
9.762252083E0,1.128060046E0,-7.706571173E0,1.704078908E0,7.972931935E0
9.772201083E0,9.290652645E-1,-8.524251072E0,4.090308613E-1,8.584481630E0
9.782150083E0,5.714209038E-1,-8.907938347E0,-7.187514424E-1,8.955137692E0
9.792100083E0,2.891914456E-1,-8.939370055E0,-1.136643759E0,9.015981793E0
9.802049083E0,2.193878236E-1,-9.065885675E0,-1.738385400E0,9.233655716E0
9.811998083E0,5.520052242E-1,-8.881500746E0,-2.263847188E0,9.182089597E0
9.821947083E0,1.164516559E0,-9.000606775E0,-2.426769035E0,9.394478649E0
9.831897083E0,1.458863056E0,-9.023638957E0,-2.499757197E0,9.476451208E0
9.841846083E0,1.448577365E0,-8.640347539E0,-2.147846616E0,9.020378433E0
9.851795083E0,1.222445363E0,-8.304764138E0,-2.165743043E0,8.669136231E0
9.861744083E0,7.578019260E-1,-7.741757963E0,-2.034537517E0,8.040424306E0
9.871694083E0,1.970609616E-1,-6.752393872E0,-1.912423680E0,7.020756395E0
9.881643083E0,-2.128925903E-1,-5.844486172E0,-1.965663748E0,6.169860277E0
9.891592083E0,-4.342795770E-1,-5.093499030E0,-2.096058558E0,5.525015167E0
9.901541083E0,-5.901783331E-1,-4.310116559E0,-2.225781230E0,4.886667300E0
9.911491083E0,-7.263643710E-1,-3.485002509E0,-2.268130859E0,4.221050258E0
9.921440083E0,-8.812672001E-1,-2.804489518E0,-2.224411227E0,3.686434408E0
9.931389083E0,-1.009249741E0,-2.280965497E0,-2.185636586E0,3.316382958E0
9.941338083E0,-1.102605363E0,-1.816293116E0,-2.140229594E0,3.015831889E0
9.951288083E0,-1.146656093E0,-1.416390343E0,-2.139589178E0,2.810484593E0
9.961237083E0,-1.049086821E0,-1.262230842E0,-2.079279242E0,2.649002080E0
9.971186083E0,-9.173070985E-1,-1.276172943E0,-1.952699009E0,2.506611879E0
9.981135083E0,-8.046468942E-1,-1.023745719E0,-1.397898231E0,1.910400845E0
9.991085083E0,-4.100205025E-1,-6.723724973E-1,-5.684116343E-1,9.712329142E-1
1.000103408E1,-4.357440121E-1,-1.032598404E0,-1.369735117E0,1.769832365E0
1.001098308E1,-2.605124608E-2,-3.405400854E-1,-3.514815415E-1,4.900872282E-1
1.002093208E1,2.572842715E0,1.576128674E-1,8.026072392E-1,2.699729585E0
1.003088208E1,2.977778186E0,-1.040477527E0,9.235197651E-1,3.286737770E0
1.004083108E1,2.317692297E0,-6.224162257E-1,9.229043457E-1,2.571157711E0
1.005078008E1,1.597170171E0,-1.175290346E-1,1.237538635E0,2.023923789E0
1.006072908E1,1.047243194E0,-8.150258482E-2,9.383766630E-1,1.408514018E0
1.007067908E1,1.117279243E0,-1.033822811E-1,8.915343261E-1,1.433120461E0
1.008062808E1,1.130030704E0,-1.048575336E-1,7.891583508E-1,1.382293528E0
1.009057708E1,9.487817833E-1,-6.355923414E-4,7.597182047E-1,1.215466588E0
1.010052608E1,7.502786060E-1,2.178111219E-1,8.425744200E-1,1.149039305E0
1.011047608E1,5.139440896E-1,2.527967674E-1,9.042599139E-1,1.070388119E0
1.012042508E1,2.190035154E-1,3.471024156E-2,5.844724739E-1,6.251203191E-1
1.013037408E1,7.566384763E-2,-2.779473960E-2,3.339906192E-1,3.435801203E-1
1.014032308E1,-1.518682703E-2,7.162780702E-2,2.814685893E-1,2.908362928E-1
1.015027308E1,-3.191185185E-1,1.824746436E-1,3.489027733E-1,5.068202538E-1
1.016022208E1,-6.724336007E-1,2.211703473E-1,4.913269132E-1,8.616759284E-1
1.017017108E1,-8.135826091E-1,2.038736987E-1,6.720397907E-1,1.074764452E0
1.018012008E1,-6.830094597E-1,1.741844612E-1,8.718809572E-1,1.121168387E0
1.019007008E1,-3.928143395E-1,3.660298526E-2,9.608089212E-1,1.038651369E0
1.020001908E1,-3.582486704E-2,-1.148042321E-1,9.613910115E-1,9.688839506E-1
1.020996808E1,3.135174707E-1,-1.575976646E-1,9.247517735E-1,9.890885051E-1
1.021991708E1,5.247411194E-1,-1.259759223E-1,7.468628088E-1,9.214267364E-1
1.022986708E1,5.819321510E-1,-1.101147652E-2,5.300144309E-1,7.871985632E-1
1.023981608E1,5.244364795E-1,1.831073123E-1,2.600566703E-1,6.133444225E-1
1.024976508E1,4.603074342E-1,3.340145928E-1,-3.546862543E-2,5.698304182E-1
1.025971408E1,4.248898257E-1,3.806812209E-1,-2.610474810E-1,6.273717744E-1
1.026966408E1,2.576448400E-1,3.515381134E-1,-3.307237798E-1,5.471180195E-1
1.027961308E1,4.565125912E-2,2.745969415E-1,-3.295347485E-1,4.313706854E-1
1.028956208E1,-1.319656639E-1,2.182256895E-1,-2.531113476E-1,3.593087005E-1
1.029951208E1,-1.952563646E-1,1.505073309E-1,-1.934013355E-1,3.133394025E-1
1.030946108E1,-1.244091609E-1,8.368827403E-2,-2.088178119E-1,2.570724511E-1
1.031941008E1,2.977139086E-2,4.556325853E-2,-3.380067793E-1,3.423608171E-1
1.032935908E1,1.782576317E-1,2.310468793E-2,-5.719433525E-1,5.995238180E-1
1.033930908E1,2.673500486E-1,4.917099059E-2,-7.848559695E-1,8.305978135E-1
1.034925808E1,2.139667238E-1,7.355797291E-2,-8.723262227E-1,9.011911967E-1
1.035920708E1,9.130938873E-2,4.321618617E-2,-8.479509348E-1,8.539472062E-1
1.036915608E1,-6.444026336E-2,-9.999908209E-3,-7.521761736E-1,7.549977099E-1
1.037910508E1,-1.189924465E-1,-5.869552016E-2,-6.384685868E-1,6.521092721E-1
1.038905508E1,-1.091675162E-2,-8.991497397E-2,-6.249466082E-1,6.314761604E-1
1.039900408E1,1.270311986E-1,-4.571353197E-2,-6.142891806E-1,6.289497992E-1
1.040895308E1,1.879366739E-1,2.644052446E-2,-6.102806219E-1,6.391101096E-1
1.041890308E1,1.774922311E-1,6.342591763E-2,-5.284643340E-1,5.610712000E-1
1.042885208E1,1.418103285E-1,4.486685514E-2,-3.658164293E-1,3.948985488E-1
1.043880108E1,1.113220690E-1,-5.673319459E-2,-2.370513850E-1,2.679638363E-1
1.044875008E1,6.206103131E-2,-1.666895002E-1,-1.332744169E-1,2.222589285E-1
1.045870008E1,1.821495384E-2,-2.237600791E-1,-9.138408691E-2,2.423868992E-1
1.046864908E1,-6.749060959E-2,-1.980299914E-1,-8.849643946E-2,2.271617918E-1
1.047859808E1,-1.076821773E-1,-1.146767628E-1,-1.361746359E-1,2.080618723E-1
1.048854708E1,-1.507602230E-2,-5.941706657E-2,-1.911273533E-1,2.007170631E-1
1.049849708E1,1.097051677E-1,-2.875075936E-2,-2.486928990E-1,2.733312789E-1
1.050844608E1,2.303297183E-1,3.029442430E-3,-2.539135855E-1,3.428309577E-1
1.051839508E1,2.751343006E-1,1.678209364E-2,-1.739798087E-1,3.259593469E-1
1.052834408E1,2.496753775E-1,-2.367713034E-2,-5.602977455E-2,2.569780851E-1
1.053829408E1,1.766531557E-1,-8.668848038E-2,8.740739554E-2,2.153167036E-1
1.054824308E1,6.703277260E-2,-1.479725629E-1,2.120466444E-1,2.671199195E-1
1.055819208E1,-4.351176292E-2,-1.734126288E-1,2.259618482E-1,2.881388037E-1
1.056814108E1,-1.007660906E-1,-1.168074882E-1,1.497550866E-1,2.149985588E-1
1.057809108E1,-6.629426926E-2,-6.488421321E-2,5.773511499E-2,1.092622294E-1
1.058804008E1,-6.675766110E-3,-9.279531240E-3,1.945251703E-2,2.256271198E-2
1.059798908E1,5.121430010E-2,3.514527440E-2,3.239123583E-2,7.005203070E-2
1.060793808E1,1.267935093E-1,2.582773626E-2,6.585134268E-3,1.295647712E-1
1.061788808E1,2.221371844E-1,-2.755792737E-3,2.233022422E-2,2.232737379E-1
1.062783708E1,2.256636402E-1,-2.113242209E-2,7.857196033E-2,2.398837442E-1
1.063778608E1,1.406063868E-1,-4.432247937E-2,1.611454627E-1,2.184090161E-1
1.064773508E1,5.447119921E-3,-5.965914130E-2,2.254022697E-1,2.332275014E-1
1.065768508E1,-1.157133280E-1,-5.520005465E-2,2.717668891E-1,3.004893714E-1
1.066763408E1,-1.283722575E-1,-6.195709705E-3,2.291596904E-1,2.627393900E-1
1.067758308E1,-4.240576208E-2,6.642203093E-2,9.979589134E-2,1.271587778E-1
1.068753208E1,-2.627153993E-2,1.334480792E-1,3.842643946E-2,1.413335590E-1
1.069748208E1,-2.272739634E-2,2.022739005E-1,8.135523498E-3,2.037092342E-1
1.070743108E1,-1.427802354E-2,2.207230353E-1,-3.207490146E-3,2.212076135E-1
1.071738008E1,-5.368036330E-3,2.162253571E-1,7.540978611E-2,2.290608144E-1
1.072732908E1,3.598288804E-2,1.997870797E-1,1.337167588E-1,2.430839711E-1
1.073728021E1,8.387713909E-2,1.436567330E-1,9.656062692E-2,1.923449664E-1
1.074722921E1,9.577198371E-2,8.116987824E-2,1.078460455E-1,1.655040529E-1
1.075717821E1,6.019766986E-2,1.996882617E-2,1.173521563E-1,1.333943105E-1
1.076712721E1,-3.417025119E-2,-4.887979925E-2,7.388658643E-2,9.495298044E-2
1.077707721E1,-1.222687876E-1,-6.305052638E-2,9.644105136E-3,1.379058884E-1
1.078702621E1,-2.172145598E-1,-4.559483349E-2,-2.036292851E-2,2.228804672E-1
1.079697521E1,-2.745992804E-1,-1.560037136E-2,1.360705554E-2,2.753784456E-1
1.080692421E1,-2.918652311E-1,-1.175056458E-2,3.771892637E-2,2.945269195E-1
1.081687421E1,-2.274701375E-1,6.281079054E-3,1.189139476E-1,2.567540503E-1
1.082682321E1,-1.287217748E-1,-4.942183614E-2,2.179228038E-1,2.578801303E-1
1.083677221E1,-5.666463599E-2,-1.782295650E-1,2.446384397E-1,3.079360729E-1
1.084672121E1,-5.053982377E-2,-3.118957454E-1,2.056682092E-1,3.770048303E-1
1.085667121E1,-1.207667841E-1,-3.833995914E-1,1.568799189E-1,4.314987506E-1
1.086662021E1,-2.065781821E-1,-4.078777903E-1,8.521936744E-2,4.650819044E-1
1.087656921E1,-2.713811190E-1,-3.516731840E-1,4.622428626E-2,4.466076855E-1
1.088651821E1,-2.846029893E-1,-2.396399474E-1,7.988056719E-2,3.805352427E-1
1.089646821E1,-2.367044990E-1,-1.395502335E-1,1.268138283E-1,3.026301944E-1
1.090641721E1,-9.314322174E-2,-7.533435702E-2,1.402630091E-1,1.844576830E-1
1.091636621E1,8.418309465E-2,-6.574609280E-2,1.370753995E-1,1.737786157E-1
1.092631521E1,1.844549493E-1,-4.420728922E-2,1.409073722E-1,2.362896534E-1
1.093626521E1,1.932627565E-1,-1.919231594E-2,1.031021994E-1,2.198838365E-1
1.094621421E1,1.720828258E-1,-3.402787149E-2,3.376299262E-2,1.786346401E-1
1.095616321E1,1.134684357E-1,-2.041906178E-2,-1.252912134E-2,1.159698360E-1
1.096611221E1,6.210956320E-2,-3.774728537E-2,-9.627615988E-2,1.206298237E-1
1.097606221E1,-4.653360397E-3,-6.997070611E-2,-1.575017703E-1,1.724075437E-1
1.098601121E1,-1.348996505E-2,-2.685392261E-2,-1.228377217E-1,1.264603424E-1
1.099596021E1,4.717562824E-2,5.296817243E-2,-1.355700338E-1,1.530045792E-1
1.100590921E1,1.427298032E-1,8.520270288E-2,-1.823249549E-1,2.467259339E-1
1.101585921E1,2.103319484E-1,8.999215722E-2,-2.149483252E-1,3.139122479E-1
1.102580821E1,2.237349361E-1,9.182818294E-2,-2.680799273E-1,3.610492823E-1
1.103575721E1,1.946223803E-1,4.590473592E-2,-3.072720596E-1,3.666077390E-1
1.104570721E1,1.290911727E-1,-1.075419903E-2,-2.693584210E-1,2.988881774E-1
1.105565621E1,6.857658371E-2,-6.859193265E-2,-2.322236314E-1,2.516652858E-1
1.106560521E1,1.753258377E-2,-7.253587961E-2,-1.237975422E-1,1.445499110E-1
1.107555421E1,9.985582530E-4,-6.061925411E-2,-6.312157005E-2,8.752156131E-2
1.108550421E1,6.734603718E-2,-5.172037661E-2,-4.636403471E-2,9.674766041E-2
1.109545321E1,1.718248174E-1,-7.548638463E-2,-5.725564331E-2,1.962146040E-1
1.110540221E1,2.192831585E-1,-7.546708882E-2,-9.227198660E-2,2.495886708E-1
1.111535121E1,2.089150219E-1,-1.825676143E-2,-1.458836451E-1,2.554620003E-1
1.112530121E1,1.158596545E-1,6.254181862E-2,-1.935498548E-1,2.340864902E-1
1.113525021E1,9.192817032E-2,1.075010598E-1,-2.209963927E-1,2.623864934E-1
1.114519921E1,9.847544387E-2,9.794904828E-2,-1.693514451E-1,2.190236085E-1
1.115514821E1,1.118879333E-1,6.460822463E-2,-7.875234693E-2,1.513111511E-1
1.116509721E1,1.043945803E-1,2.485359013E-2,-6.224653423E-3,1.074926772E-1
1.117504721E1,7.184196129E-2,-2.152593970E-2,7.071798027E-2,1.030808722E-1
1.118499621E1,3.509645015E-3,-5.355523288E-2,9.605455041E-2,1.100316192E-1
1.119494521E1,-4.879267573E-2,-9.095343947E-2,7.836087584E-2,1.295904326E-1
1.120489521E1,-2.333623767E-2,-1.068087494E-1,7.360767424E-3,1.095758634E-1
1.121484421E1,3.581814274E-2,-3.979147196E-2,-6.572007269E-2,8.476690713E-2
1.122479321E1,7.542294234E-2,1.192071855E-2,-6.971167445E-2,1.033945904E-1
1.123474221E1,8.745768160E-2,3.853782892E-2,-1.331726754E-1,1.639175762E-1
1.124469221E1,9.213340759E-2,7.320655525E-2,-1.090561268E-1,1.604400303E-1
1.125464121E1,3.248318329E-2,8.171366930E-2,-4.412864417E-2,9.838505061E-2
1.126459021E1,-3.016783208E-2,7.384565592E-2,-8.836897016E-3,8.025814438E-2
1.127453921E1,-4.199177921E-2,3.356594145E-2,4.168012261E-2,6.802363242E-2
1.128448921E1,-1.138745248E-3,-4.577785134E-3,9.973332614E-2,9.984482560E-2
1.129443821E1,5.708344281E-4,9.116978645E-3,1.403673819E-1,1.406643062E-1
1.130438721E1,1.624780431E-2,3.289994359E-2,1.693154848E-1,1.732458681E-1
1.131433621E1,6.346480161E-2,5.999126315E-2,1.167458001E-1,1.457954544E-1
1.132428621E1,1.048503707E-1,5.934923887E-2,9.046841294E-2,1.506667387E-1
1.133423521E1,1.088967901E-1,2.747606635E-2,6.481872439E-2,1.296723261E-1
1.134418421E1,9.465414226E-2,2.563360870E-2,-3.078266680E-3,9.811199859E-2
1.135413321E1,5.575130090E-2,3.857291222E-2,-3.396910697E-2,7.582860501E-2
1.136408321E1,5.644419596E-2,7.763055861E-2,-4.548724473E-2,1.062145956E-1
1.137403221E1,1.310725017E-1,1.261332124E-1,-8.210367858E-2,1.995760557E-1
1.138398121E1,1.565472123E-1,1.287931108E-1,-1.167981327E-1,2.339583272E-1
1.139393021E1,1.788454230E-1,1.123659432E-1,-1.168203521E-1,2.413685671E-1
1.140388021E1,1.954487380E-1,4.073638201E-2,-3.392700702E-2,2.025109968E-1
1.141382921E1,1.564033708E-1,-2.300119221E-2,1.604885280E-2,1.588981904E-1
1.142377821E1,7.346529454E-2,-4.970776498E-2,4.935517788E-2,1.015083493E-1
1.143372721E1,6.586888433E-4,-3.733154833E-2,1.152416039E-1,1.211391994E-1
1.144367721E1,-7.790683955E-3,-2.300528526E-2,1.764701378E-1,1.781337909E-1
1.145362621E1,7.582961619E-3,-3.288006306E-2,1.592161739E-1,1.627525419E-1
1.146357521E1,-2.215217650E-2,-4.851259410E-2,1.491408366E-1,1.583893300E-1
1.147352421E1,-3.706608474E-2,-5.421830714E-2,1.360951138E-1,1.511138626E-1
1.148347421E1,-8.694034919E-2,-6.444040954E-2,3.923364758E-2,1.151106850E-1
1.149342321E1,-7.446458369E-2,-4.410554767E-2,-1.059851691E-1,1.368324875E-1
1.150337221E1,-1.399253324E-2,-5.104034543E-3,-2.052650437E-1,2.058047140E-1
1.151332121E1,7.198185593E-2,4.759633541E-2,-2.633267257E-1,2.771060504E-1
1.152327121E1,1.066888815E-1,3.806478918E-2,-2.610164908E-1,2.845365601E-1
1.153322021E1,5.007241197E-2,-3.044879079E-2,-2.041546574E-1,2.123993866E-1
1.154316921E1,-7.292033404E-2,-1.185213071E-1,-9.497456968E-2,1.684780230E-1
1.155311821E1,-1.408122819E-1,-1.863051546E-1,1.239902079E-3,2.335363927E-1
1.156306821E1,-1.688687575E-1,-2.291289926E-1,8.496793717E-2,2.970459608E-1
1.157301721E1,-1.610198937E-1,-2.472617930E-1,1.586220968E-1,3.350026419E-1
1.158296621E1,-1.265421521E-1,-1.988831002E-1,1.675809082E-1,2.892244191E-1
1.159291521E1,-4.470430255E-2,-6.921056807E-2,2.028600839E-1,2.189538559E-1
1.160286521E1,5.262092091E-2,-1.203123093E-2,1.960524631E-1,2.033476828E-1
1.161281421E1,9.135909006E-2,-4.301445723E-2,-8.089008898E-2,1.293828944E-1
1.162276321E1,5.729386948E-2,2.675218105E-2,-7.111383677E-3,6.363048365E-2
1.163271221E1,1.252649009E-2,3.238012612E-2,-7.654297650E-2,8.404887134E-2
1.164266221E1,-4.109503560E-2,3.951431394E-2,-5.185924798E-2,7.706857049E-2
1.165261121E1,-1.085805289E-1,6.276518226E-2,2.941821903E-2,1.288201497E-1
1.166256021E1,-9.715901636E-2,4.356877327E-2,6.919536531E-2,1.269886256E-1
1.167250921E1,-5.989156812E-3,2.832917511E-2,1.516320428E-1,1.543719164E-1
1.168245921E1,6.633293398E-2,4.162223518E-2,1.743215784E-1,1.911033262E-1
1.169240821E1,9.757972352E-2,6.779905021E-2,2.040859526E-1,2.361558590E-1
1.170235721E1,9.682148583E-2,5.955155253E-2,1.751208928E-1,2.087776679E-1
1.171230621E1,4.812463135E-2,5.013402700E-2,1.245901322E-1,1.426607930E-1
1.172225621E1,2.086359635E-3,3.400974512E-2,1.101820081E-2,3.581084206E-2
1.173220521E1,-5.792105645E-3,3.400272846E-2,-4.318695009E-2,5.527066752E-2
1.174215371E1,-4.387801789E-2,6.599869251E-2,-8.754685163E-2,1.180913168E-1
1.175210271E1,-9.079008289E-2,1.059158796E-1,-6.773590028E-2,1.550779317E-1
1.176205271E1,1.826472826E-2,1.308361280E-1,6.784231961E-3,1.322789420E-1
1.177200171E1,1.236531159E-1,1.302689481E-1,9.082830906E-2,2.012706477E-1
1.178195071E1,1.496147534E-1,8.996350586E-2,1.087643507E-1,2.056883342E-1
1.179189971E1,1.478040900E-1,6.930119991E-2,9.012225777E-2,1.864691038E-1
1.180184971E1,8.855125710E-2,7.506421566E-2,7.482915759E-2,1.381135925E-1
1.181179871E1,3.621692285E-3,5.922527790E-2,-2.630896211E-2,6.490694635E-2
1.182174771E1,-1.845381260E-2,5.806694448E-2,-8.726677001E-2,1.064321492E-1
1.183169771E1,-9.028978050E-3,5.208348870E-2,-1.670768782E-1,1.752395375E-1
1.184164671E1,1.907661416E-2,8.135932803E-2,-1.791285744E-1,1.976620946E-1
1.185159571E1,7.974710450E-2,6.157176554E-2,-1.610861135E-1,1.899984709E-1
1.186154471E1,1.184921441E-1,4.008792579E-2,-1.388941759E-1,1.869198280E-1
1.187149471E1,6.540607721E-2,2.082953632E-2,-8.015041620E-2,1.055268389E-1
1.188144371E1,-3.188384369E-2,1.607633471E-2,-5.352131903E-2,6.433940952E-2
1.189139271E1,-7.041370578E-2,3.184861422E-2,-2.453257799E-2,8.108188190E-2
1.190134171E1,-2.446489647E-2,4.661809623E-2,4.480926007E-2,6.913499724E-2
1.191129171E1,-4.808677062E-3,3.734031916E-2,1.039637867E-1,1.105707545E-1
1.192124071E1,2.152579352E-3,3.171705186E-2,1.378966409E-1,1.415135631E-1
1.193118971E1,3.586185068E-2,3.097854853E-3,1.661875167E-1,1.700410532E-1
1.194113871E1,6.402240671E-2,-2.312106013E-2,1.589931026E-1,1.729516079E-1
1.195108871E1,5.501886405E-2,-3.413429081E-2,1.232131130E-1,1.391894264E-1
1.196103771E1,4.685366593E-2,-4.313958764E-2,5.184492230E-2,8.212299314E-2
1.197098671E1,3.744936973E-2,-5.288104892E-2,1.650171965E-2,6.686678831E-2
1.198093571E1,2.619340651E-2,-6.087126911E-2,-5.143707901E-2,8.388789570E-2
1.199088571E1,-1.252765954E-4,-7.445493579E-2,-1.175761047E-1,1.391678611E-1
1.200083471E1,6.619048119E-4,-9.997276962E-2,-1.136853674E-1,1.513913985E-1
1.201078371E1,3.307185173E-3,-1.103457302E-1,-1.102004269E-1,1.559847804E-1
1.202073271E1,1.518953137E-2,-9.208429098E-2,-1.186628097E-1,1.509672180E-1
1.203068271E1,1.880369537E-2,-7.520688772E-2,-8.093657434E-2,1.120731189E-1
1.204063171E1,3.475087970E-2,-1.025320959E-1,-4.323635906E-2,1.165754566E-1
1.205058071E1,6.353796490E-2,-1.110304391E-1,-4.107932121E-2,1.343590043E-1
1.206052971E1,1.021944923E-1,-1.198340070E-1,7.618044913E-3,1.576766885E-1
1.207047971E1,6.851635739E-2,-9.978156567E-2,5.046497941E-2,1.311394915E-1
1.208042871E1,2.528964624E-2,-5.739626884E-2,5.565438330E-2,8.385289658E-2
1.209037771E1,1.303739056E-2,-4.035572827E-2,3.614222467E-2,5.572090057E-2
1.210032671E1,1.271915585E-2,-4.275776446E-2,1.162835777E-2,4.610013071E-2
1.211027671E1,4.525459863E-2,-3.056573510E-2,-8.892445564E-3,5.532918261E-2
1.212022571E1,6.181047812E-2,1.736915410E-2,-5.311610699E-2,8.332792774E-2
1.213017471E1,3.957468644E-2,6.113848686E-3,-7.520162523E-2,8.519870533E-2
1.214012371E1,1.832934000E-2,1.696861982E-2,-7.503147125E-2,7.907983587E-2
1.215007371E1,6.329472072E-2,3.878750503E-2,-7.307089984E-2,1.041635667E-1
1.216002271E1,1.045477773E-1,3.805660307E-2,-7.772908419E-2,1.357216022E-1
1.216997171E1,7.280806750E-2,2.392680645E-2,-5.518836021E-2,9.444184382E-2
1.217992071E1,4.685030378E-2,2.767136335E-2,-4.902978033E-2,7.324325685E-2
1.218987071E1,-1.136194400E-2,8.466768265E-3,1.207157671E-3,1.422101143E-2
1.219981971E1,-4.922449261E-2,5.382946730E-3,2.439516842E-2,5.520100570E-2
1.220976871E1,-5.187744744E-2,7.057589293E-3,4.205171317E-2,6.715225759E-2
1.221971771E1,-5.123958930E-2,1.008059978E-3,3.893280834E-2,6.436051011E-2
1.222966771E1,-3.351894446E-2,9.277777076E-3,2.728223115E-2,4.420313249E-2
1.223961671E1,-3.274024151E-2,1.716099322E-2,-8.608855605E-3,3.795438706E-2
1.224956571E1,1.533446923E-2,-3.813554049E-3,-5.134323120E-2,5.371979646E-2
1.225951471E1,8.138081655E-2,2.223579168E-2,-1.340994591E-1,1.584295826E-1
1.226946471E1,6.329121239E-2,3.241345525E-2,-1.785602251E-1,1.921982404E-1
1.227941371E1,-7.894472033E-4,4.500017166E-2,-1.733298907E-1,1.790778872E-1
1.228936271E1,-3.736458510E-2,4.145909786E-2,-1.100405055E-1,1.233850958E-1
1.229931171E1,-4.645700544E-2,9.643228054E-3,-1.355033755E-2,4.934426866E-2
1.230926171E1,-3.591827631E-2,-1.365441799E-2,4.411110252E-2,5.850089802E-2
1.231921071E1,-1.329583749E-2,-3.149310350E-2,9.442434669E-2,1.004218707E-1
1.232915971E1,-1.904365048E-3,-4.595443726E-2,1.216068828E-1,1.300141179E-1
1.233910871E1,3.758305170E-2,-1.503553033E-2,1.283276725E-1,1.345605606E-1
1.234905871E1,7.347172648E-2,4.097144008E-3,6.224858075E-2,9.638343730E-2
1.235900771E1,5.087150708E-2,1.749311507E-2,3.188398987E-2,6.253405566E-2
1.236895671E1,4.740790889E-2,1.159210503E-2,1.263378650E-2,5.041328481E-2
1.237890571E1,9.009587221E-2,-2.081608772E-3,-1.430112004E-2,9.124758254E-2
1.238885571E1,9.711318880E-2,-1.987468600E-3,2.306638867E-2,9.983476227E-2
1.239880471E1,8.515811786E-2,-1.561206579E-2,5.292314887E-2,1.014716774E-1
1.240875371E1,1.040974686E-1,-5.525034070E-3,7.847986668E-2,1.304833263E-1
1.241870271E1,1.017528813E-1,-5.153151155E-3,7.694292605E-2,1.276730892E-1
1.242865271E1,9.105335377E-2,-2.119557202E-2,7.873451293E-2,1.222255662E-1
1.243860171E1,6.330955803E-2,-4.595502198E-2,5.032099172E-2,9.301702205E-2
1.244855071E1,5.716793507E-2,-3.389747858E-2,-3.324799910E-2,7.431447570E-2
1.245849971E1,8.722744748E-2,-3.993940651E-2,-8.268094495E-2,1.266488154E-1
1.246844971E1,8.062528320E-2,-5.374058962E-2,-9.100518733E-2,1.329301748E-1
1.247839871E1,5.120392129E-2,-5.442705274E-2,-1.216485442E-1,1.427673420E-1
1.248834771E1,4.599719502E-2,-7.114950478E-2,-7.552439153E-2,1.134985802E-1
1.249829671E1,1.470698990E-2,-1.266518605E-1,-5.945755854E-2,1.406847205E-1
1.250824671E1,-3.179693945E-2,-1.352425897E-1,-8.625520170E-2,1.635284784E-1
1.251819571E1,-6.396948941E-2,-1.059141254E-1,-8.896918684E-2,1.523988640E-1
1.252814471E1,-4.642053343E-2,-6.390655875E-2,-1.142019689E-1,1.388560545E-1
1.253809371E1,4.642067961E-2,-2.145518839E-2,-9.708979994E-2,1.097343786E-1
1.254804371E1,1.313575535E-1,-7.496130466E-4,-7.888712525E-2,1.532271102E-1
1.255799271E1,1.485316298E-1,1.752118170E-2,-4.123178735E-2,1.551408945E-1
1.256794171E1,1.356053364E-1,-5.260155201E-3,-8.867448717E-3,1.359967210E-1
1.257789071E1,4.201144047E-2,-2.305557132E-2,-3.127090931E-2,5.722228821E-2
1.258784071E1,-3.702661604E-2,-2.443668365E-2,-7.484289855E-2,8.700334055E-2
1.259778971E1,-8.061936289E-2,-3.339929581E-2,-8.156661183E-2,1.194491808E-1
1.260773871E1,-7.223350547E-2,-6.387849212E-2,-9.020733476E-2,1.320435697E-1
1.261768771E1,-2.670642659E-2,-5.662151277E-2,-6.355046332E-2,8.920700823E-2
1.262763771E1,4.377057530E-2,-4.462244153E-2,-1.087289751E-2,6.344482209E-2
1.263758671E1,1.160311241E-1,-9.430974126E-3,-2.312047541E-2,1.186874948E-1
1.264753571E1,1.554364606E-1,3.385479391E-2,-3.350016028E-3,1.591158790E-1
1.265748471E1,1.453132492E-1,3.708596528E-2,2.471369550E-2,1.519936708E-1
1.266743471E1,7.834245712E-2,2.806371152E-2,2.392914534E-2,8.658935551E-2
1.267738371E1,-1.634033650E-2,-1.099276543E-2,2.765031338E-2,3.394683076E-2
1.268733271E1,-8.436260417E-2,-5.089182615E-2,3.051544905E-2,1.031417451E-1
1.269728171E1,-1.296436615E-1,-6.779144883E-2,2.335085571E-2,1.481499982E-1
1.270723171E1,-1.400993601E-1,-8.637390018E-2,5.750648886E-2,1.743424148E-1
1.271718071E1,-1.009689159E-1,-7.254289627E-2,6.001582146E-2,1.380546725E-1
1.272712971E1,-1.919407010E-2,8.218261600E-3,5.855986476E-2,6.217081238E-2
1.273707888E1,1.281189269E-1,4.289517403E-2,3.543222651E-2,1.396778367E-1
1.274702788E1,2.251799293E-1,4.899148107E-2,-3.413209811E-2,2.329617262E-1
1.275697688E1,2.035552447E-1,5.698111653E-2,-6.034209609E-2,2.198243705E-1
1.276692588E1,1.277313296E-1,5.657941282E-2,-1.810648799E-2,1.408700373E-1
1.277687587E1,3.156129666E-2,3.919037819E-2,-2.497126535E-2,5.617441840E-2
1.278682488E1,-5.292461067E-3,1.984486520E-2,-2.908112705E-2,3.560253881E-2
1.279677388E1,3.434084371E-2,1.531970501E-4,4.930956960E-2,6.008952213E-2
1.280672287E1,5.488496281E-2,2.326022387E-3,4.261801600E-2,6.952743927E-2
1.281667288E1,8.561807446E-2,9.071370363E-3,3.771658748E-2,9.399619889E-2
1.282662187E1,1.192111324E-1,-1.139096081E-2,5.482510194E-2,1.317074025E-1
1.283657088E1,1.156341713E-1,-3.997098148E-2,4.561939180E-2,1.305759160E-1
1.284651988E1,5.874777965E-2,-4.929904461E-2,2.218550563E-2,7.983667123E-2
1.285646987E1,-2.213485412E-2,-4.501303554E-2,-4.233384132E-3,5.033931541E-2
1.286641888E1,-7.075138249E-2,-3.590950549E-2,-3.104023665E-2,8.519828049E-2
1.287636788E1,-7.963198744E-2,-4.799102247E-2,-5.598387390E-2,1.085291933E-1
1.288631687E1,-4.654003590E-2,-5.668056965E-2,-4.276258841E-2,8.489582372E-2
1.289626688E1,3.587032914E-2,-1.833043635E-2,-4.698135450E-2,6.188645313E-2
1.290621587E1,1.442752954E-1,9.996984601E-3,-7.160514906E-2,1.613771915E-1
1.291616488E1,1.864569629E-1,1.568691015E-2,-8.317021072E-2,2.047670924E-1
1.292611388E1,1.349418966E-1,2.887647450E-2,-5.816868603E-2,1.497556753E-1
1.293606387E1,7.597974345E-2,-1.453266978E-2,-8.753164887E-2,1.168157073E-1
1.294601288E1,1.231430925E-2,-5.629757702E-2,-5.119705081E-2,7.708564978E-2
1.295596188E1,-9.356853358E-2,-6.975845218E-2,-2.985939145E-2,1.204694791E-1
1.296591088E1,-1.255817469E-1,-7.498644769E-2,-3.085517228E-2,1.494850633E-1
1.297586088E1,-5.204920940E-2,-7.719435632E-2,-2.725679576E-2,9.701042090E-2
1.298580987E1,4.955588356E-3,-4.941949725E-2,-9.448808134E-3,5.055813030E-2
1.299575888E1,4.166689329E-2,-6.136652827E-2,-3.100778461E-2,8.039566838E-2
1.300570788E1,3.711556681E-2,-4.105739415E-2,1.056299508E-2,5.634582308E-2
1.301565787E1,4.045096479E-2,-4.881314099E-2,3.968680680E-2,7.479335478E-2
1.302560688E1,5.802630633E-2,-6.293124318E-2,6.240002364E-3,8.582733378E-2
1.303555587E1,4.854446143E-2,-7.798957765E-2,1.485119686E-2,9.305641840E-2
1.304550488E1,-7.001017481E-3,-8.426831782E-2,-1.731419027E-2,8.631306285E-2
1.305545488E1,-3.657762296E-2,-7.033264875E-2,-2.652121603E-2,8.359413187E-2
1.306540387E1,-2.750617951E-2,-7.391991556E-2,-8.813215792E-4,7.887661602E-2
1.307535288E1,-2.058234528E-2,-6.083092332E-2,-1.009989560E-2,6.500801535E-2
1.308530188E1,-4.977668904E-2,-2.776901186E-2,-1.216103911E-2,5.828145214E-2
1.309525187E1,-3.496854231E-2,1.049048960E-2,-1.055422425E-2,3.800317056E-2
1.310520088E1,4.031011999E-2,5.959014416E-2,-3.737540245E-3,7.204068476E-2
1.311514987E1,8.832818583E-2,6.708276629E-2,-4.151669294E-3,1.109919020E-1
1.312509888E1,1.033305332E-1,4.625907719E-2,2.473489165E-2,1.158832006E-1
1.313504888E1,6.344302073E-2,1.183301032E-2,3.653135687E-2,7.415913327E-2
1.314499787E1,1.229735233E-2,7.263411283E-3,5.605023980E-2,5.784126036E-2
1.315494688E1,-2.611563854E-2,9.479506016E-3,7.976303816E-2,8.446318646E-2
1.316489588E1,-2.780197553E-2,3.303501427E-2,3.000264823E-2,5.257776063E-2
1.317484588E1,5.426888555E-2,7.074546218E-2,-1.748492897E-2,9.086118588E-2
1.318479488E1,1.668687905E-1,9.165042758E-2,-5.596370101E-2,1.984362113E-1
1.319474387E1,1.909840234E-1,8.991029620E-2,-4.888213813E-2,2.166753839E-1
1.320469288E1,1.294629825E-1,9.991605163E-2,-3.629322901E-2,1.675144163E-1
1.321464288E1,3.985827640E-2,9.806950092E-2,-4.368016273E-3,1.059499352E-1
1.322459187E1,4.924525023E-3,8.185692608E-2,-9.471319914E-3,8.255006478E-2
1.323454088E1,4.560908608E-2,6.556015134E-2,1.302686557E-2,8.091984555E-2
1.324448988E1,8.542847849E-2,5.902179480E-2,3.694080815E-2,1.102098930E-1
1.325443988E1,5.329071946E-2,5.380023122E-2,3.308179200E-2,8.263637590E-2
1.326438888E1,-3.894026354E-3,3.075635433E-2,7.501743793E-2,8.117100940E-2
1.327433787E1,-5.639888003E-2,-1.082670450E-2,1.060208371E-1,1.205755742E-1
1.328428688E1,-1.194467752E-1,-6.159749329E-2,1.115128344E-1,1.746336036E-1
1.329423688E1,-9.687476858E-2,-8.248082399E-2,7.219498694E-2,1.462871261E-1
1.330418587E1,-2.264845893E-3,-7.873919070E-2,2.747782052E-2,8.342673612E-2
1.331413488E1,2.864675201E-2,-2.335377932E-2,-5.519903138E-2,6.643017744E-2
1.332408387E1,3.739272483E-2,7.087994814E-3,-9.878593102E-2,1.058636657E-1
1.333403388E1,5.657824337E-2,5.194666386E-3,-8.308966532E-2,1.006577104E-1
1.334398288E1,3.322468333E-2,-2.115405679E-2,-7.969521046E-2,8.889713308E-2
1.335393187E1,3.765665352E-2,-4.076795697E-2,-2.467291117E-2,6.073551198E-2
1.336388088E1,-6.115968302E-3,-7.147285581E-2,4.692039728E-2,8.571638039E-2
1.337383088E1,-3.519738771E-2,-1.036383891E-1,1.099106973E-1,1.551132915E-1
1.338377988E1,-2.818833031E-2,-8.652709723E-2,1.016614455E-1,1.364425521E-1
1.339372888E1,4.640277252E-3,-6.827208996E-2,9.922944233E-2,1.205366860E-1
1.340367887E1,5.573668286E-2,-5.197531521E-2,5.805992782E-2,9.580692264E-2
1.341362788E1,1.014563544E-1,-4.644151032E-2,-3.414496198E-2,1.166879778E-1
1.342357688E1,1.079449365E-1,-3.427579343E-2,-1.238856889E-1,1.678529215E-1
1.343352587E1,6.688001409E-2,-1.981329024E-2,-1.673847342E-1,1.813371225E-1
1.344347588E1,7.654736191E-3,-3.592763186E-2,-1.543135759E-1,1.586255636E-1
1.345342488E1,-9.712298289E-3,-5.242379665E-2,-1.478733064E-1,1.571912782E-1
1.346337388E1,-3.062259927E-3,-1.023093170E-1,-8.813361973E-2,1.350707544E-1
1.347332288E1,3.214046337E-2,-1.299034971E-1,-5.495622575E-2,1.446655270E-1
1.348327287E1,7.476432659E-2,-1.105521369E-1,-7.501977682E-4,1.334617634E-1
1.349322188E1,5.119763553E-2,-4.833308458E-2,6.131141827E-2,9.336152826E-2
1.350317088E1,3.718697593E-2,-1.663532853E-2,6.001055896E-2,7.253187245E-2
1.351311987E1,8.517441697E-2,1.115531802E-2,5.183732092E-2,1.003306048E-1
1.352306988E1,9.397352636E-2,1.369885683E-2,2.798009634E-2,9.900286928E-2
1.353301887E1,4.489119418E-2,3.269762993E-3,2.520559251E-2,5.158713559E-2
1.354296788E1,-1.789774239E-2,-9.053828716E-3,7.739813179E-3,2.149896986E-2
1.355291688E1,6.178314239E-4,2.271058559E-3,-4.747500569E-2,4.753331029E-2
1.356286687E1,7.093213454E-2,2.550906301E-2,-6.382265121E-2,9.876948321E-2
1.357281588E1,9.850351050E-2,3.793615043E-2,-6.019240737E-2,1.215122175E-1
1.358276488E1,7.409423567E-2,4.354655385E-2,-4.918034613E-2,9.902002100E-2
1.359271387E1,5.099780694E-2,5.757168531E-3,-3.679565102E-2,6.314935657E-2
1.360266388E1,7.313770428E-2,1.256157339E-2,-6.113760978E-2,9.614948904E-2
1.361261287E1,9.242094442E-2,1.094481826E-2,-8.225658327E-2,1.242077514E-1
1.362256188E1,6.687219344E-2,5.534974337E-3,-9.159283251E-2,1.135419445E-1
1.363251088E1,-9.619912282E-3,2.577628076E-2,-4.335476518E-2,5.134778501E-2
1.364246087E1,-6.772369422E-2,1.498056650E-3,2.177912414E-2,7.115527514E-2
1.365240988E1,-1.117712814E-1,-2.651887715E-2,8.411614403E-2,1.423783546E-1
1.366235888E1,-8.551428638E-2,-5.145198941E-2,4.482943296E-2,1.094060257E-1
1.367230788E1,-8.553380147E-3,-7.048584580E-2,4.741097867E-2,8.537690361E-2
1.368225788E1,2.992612280E-2,-4.108253717E-2,-7.229497433E-3,5.133822474E-2
1.369220687E1,4.836158976E-2,-2.747898996E-2,-4.940692574E-2,7.439746343E-2
1.370215588E1,3.346529625E-2,-1.958700299E-2,-3.457575560E-2,5.195247458E-2
1.371210488E1,-4.254558362E-2,-2.388002872E-3,-5.934806943E-2,7.306177241E-2
1.372205487E1,-5.702014670E-2,2.122246921E-2,-5.177899495E-2,7.989214384E-2
1.373200388E1,-1.879287802E-2,2.044712842E-2,-5.052959114E-2,5.765845043E-2
1.374195412E1,-1.489892475E-2,3.838112354E-2,-7.443213165E-3,4.183885784E-2
1.375190313E1,3.772082672E-2,5.323948324E-2,7.284461260E-3,6.565338315E-2
1.376185312E1,1.008303369E-1,1.928937972E-2,2.063716292E-2,1.047126043E-1
1.377180213E1,6.422779016E-2,-3.235264421E-3,5.212734282E-2,8.278246091E-2
1.378175113E1,-3.662008837E-2,-5.903933644E-3,5.208611995E-2,6.394412558E-2
1.379170012E1,-5.650149867E-2,-3.392963827E-2,2.459046543E-2,7.034437216E-2
1.380165013E1,-1.185354866E-2,-6.126303256E-2,-1.827254891E-3,6.242599326E-2
1.381159913E1,-9.556908533E-3,-2.473839998E-2,-3.033623189E-2,4.029404298E-2
1.382154813E1,3.503205769E-2,1.149854958E-2,-6.924038887E-2,7.844547890E-2
1.383149713E1,1.358877569E-1,2.512490094E-2,-7.025780439E-2,1.550254888E-1
1.384144712E1,1.256812958E-1,3.324726820E-3,-2.740151435E-2,1.286766681E-1
1.385139613E1,3.337590694E-2,-7.174533606E-3,1.109099865E-2,3.589478162E-2
1.386134513E1,-4.703756087E-2,-1.898298562E-2,2.793507278E-2,5.790728941E-2
1.387129412E1,-4.204981282E-2,-4.020019233E-2,1.595003486E-2,6.032118893E-2
1.388124413E1,-2.744558774E-2,-3.822149456E-2,1.384913027E-2,4.905039594E-2
1.389119312E1,-3.669836797E-2,-3.087622225E-2,1.947473645E-2,5.176269576E-2
1.390114213E1,-1.727640264E-2,-2.772749662E-3,2.363254532E-2,2.940509186E-2
1.391109113E1,2.788200930E-2,1.998636782E-2,2.935419202E-2,4.515008228E-2
1.392104112E1,3.372103885E-2,4.085391104E-2,1.541296810E-2,5.516982956E-2
1.393099013E1,3.912174650E-2,6.230208278E-2,-2.239030436E-2,7.689854548E-2
1.394093913E1,6.501818754E-2,7.120446861E-2,-1.959708944E-2,9.839454749E-2
1.395088812E1,5.259833604E-2,7.115593672E-2,-1.308197558E-2,8.944769628E-2
1.396083813E1,3.328015879E-2,5.011590064E-2,6.903807521E-3,6.055439723E-2
1.397078712E1,5.600053847E-2,1.807023525E-2,5.097529516E-2,7.785290250E-2
1.398073613E1,8.573231444E-2,7.327145934E-3,6.965013251E-2,1.107016611E-1
1.399068513E1,9.764689341E-2,3.171471298E-2,6.789304420E-2,1.230861660E-1
1.400063512E1,8.703821696E-2,3.882551193E-2,4.890377283E-2,1.071197955E-1
1.401058413E1,3.214309461E-2,3.114460945E-2,9.711348116E-3,4.579820424E-2
1.402053313E1,2.435584590E-3,2.225450277E-3,-3.044718280E-2,3.062540844E-2
1.403048213E1,-2.843866423E-3,-1.098516405E-2,-3.559857979E-2,3.736335489E-2
1.404043213E1,1.129572429E-2,-2.021733284E-2,-4.286476851E-2,4.872086117E-2
1.405038112E1,4.878003113E-2,-2.347130835E-2,-1.179120272E-2,5.540240260E-2
1.406033013E1,6.791840650E-2,-1.098165572E-2,1.533139944E-3,6.881756478E-2
1.407028013E1,7.876250647E-2,-1.429468811E-2,3.782388389E-2,8.853539815E-2
1.408022912E1,4.672926642E-2,-1.929288805E-2,6.999234080E-2,8.634099629E-2
1.409017813E1,-2.278250635E-2,-4.914467812E-2,4.938075945E-2,7.329871340E-2
1.410012713E1,-4.633552954E-2,-7.127288103E-2,3.854426086E-2,9.334058556E-2
1.411007713E1,-6.057642326E-2,-8.719952703E-2,-1.672303677E-3,1.061887808E-1
1.412002613E1,-8.314097464E-2,-9.167557061E-2,-5.409083784E-2,1.350653570E-1
1.412997512E1,-4.589464948E-2,-9.839636028E-2,-9.133350849E-2,1.418801337E-1
1.413992413E1,3.874898650E-2,-9.459742427E-2,-1.259830852E-1,1.622402366E-1
1.414987413E1,8.719550706E-2,-9.508800566E-2,-1.127802184E-1,1.713597471E-1
1.415982312E1,6.992663272E-2,-5.686826527E-2,-6.673032537E-2,1.121457528E-1
1.416977213E1,2.618412405E-2,-5.669928074E-2,3.107648939E-3,6.253058668E-2
1.417972112E1,-2.262141556E-3,-7.276392102E-2,4.545026109E-2,8.582209342E-2
1.418967113E1,-3.569754392E-2,-4.917391419E-2,4.586029708E-2,7.612854476E-2
1.419962013E1,-4.731384180E-2,-4.744079947E-2,1.268772706E-2,6.819242993E-2
1.420956912E1,-1.145104095E-2,-3.436233222E-2,-1.770668462E-2,4.031653377E-2
1.421951813E1,2.859105729E-2,-1.398829401E-2,-3.902285546E-2,5.035776181E-2
1.422946813E1,6.864017218E-2,8.569679260E-3,-3.732628584E-2,7.860129932E-2
1.423941713E1,1.028689686E-1,8.262232661E-2,-5.961075559E-2,1.447823047E-1
1.424936613E1,1.499654402E-1,1.104223287E-1,-4.759019583E-2,1.922174567E-1
1.425931512E1,1.682716106E-1,8.519451678E-2,-3.952425420E-2,1.927060126E-1
1.426926513E1,1.376980548E-1,4.792728782E-2,-4.534428030E-2,1.526888437E-1
1.427921413E1,7.862458527E-2,2.276028693E-2,-6.379604638E-2,1.037776065E-1
1.428916312E1,5.493020564E-3,3.649832010E-3,-5.047550440E-2,5.090452920E-2
1.429911213E1,-4.031874463E-2,-1.800006866E-2,-6.297875181E-2,7.691506237E-2
1.430906212E1,-3.259062588E-2,-1.069981992E-2,-3.278723851E-2,4.745142833E-2
1.431901113E1,1.941268288E-2,-2.689719200E-5,3.157774195E-2,3.706759726E-2
1.432896013E1,5.299360782E-2,1.229201674E-2,5.748368472E-2,7.914411004E-2
1.433890912E1,5.116927654E-2,3.304086149E-2,7.161377370E-2,9.401343507E-2
1.434885913E1,4.126679756E-2,4.214673042E-2,6.092681766E-2,8.480196092E-2
1.435880813E1,5.494950145E-2,3.762683272E-2,1.252649009E-2,6.776532450E-2
1.436875712E1,6.007071219E-2,2.601484716E-2,1.188738942E-3,6.547271062E-2
1.437870613E1,2.675495848E-2,4.822198749E-3,-2.187764972E-2,3.489574418E-2
1.438865612E1,1.977024011E-2,-9.969502687E-4,-3.306015730E-2,3.853349588E-2
1.439860513E1,1.027867422E-3,4.878332019E-3,-4.478967190E-4,5.005521571E-3
1.440855413E1,6.544276848E-3,-7.587347031E-3,2.931998581E-2,3.098478598E-2
1.441850312E1,4.104401864E-2,3.297829628E-4,5.086931437E-3,4.135936526E-2
1.442845313E1,6.858001895E-2,1.726682782E-3,4.803487659E-3,6.876971664E-2
1.443840213E1,6.018056676E-2,-2.604349852E-3,-1.227579072E-2,6.147502169E-2
1.444835113E1,9.162060678E-2,-1.513434827E-2,-3.618680969E-2,9.966378118E-2
1.445830013E1,1.381783305E-1,-2.862562895E-2,-3.856355667E-2,1.462867922E-1
1.446825012E1,1.540940861E-1,-4.139243960E-2,-7.403159738E-2,1.758948516E-1
1.447819913E1,1.365539740E-1,-9.408754706E-2,-8.448349535E-2,1.861099549E-1
1.448814813E1,9.672215626E-2,-1.231131256E-1,-8.692295372E-2,1.790743340E-1
1.449809712E1,6.432375759E-2,-1.716374141E-1,-6.158711448E-2,1.933647341E-1
1.450804713E1,5.409785450E-2,-2.194997978E-1,-4.768638253E-2,2.310427021E-1
1.451799613E1,3.697640307E-2,-2.286875278E-1,-5.551989734E-2,2.382177549E-1
1.452794513E1,8.487306610E-3,-1.857537621E-1,-3.871090651E-2,1.899342749E-1
1.453789413E1,-2.222680159E-2,-1.714456254E-1,-2.584761679E-2,1.748019808E-1
1.454784412E1,-4.190977201E-2,-1.567106420E-1,-3.195561826E-2,1.653354646E-1
1.455779313E1,-3.009708077E-3,-1.349057901E-1,-5.274802476E-2,1.448826582E-1
1.456774213E1,4.085551903E-2,-1.248286986E-1,-1.074408334E-1,1.696906306E-1
1.457769112E1,1.875874490E-2,-7.428653598E-2,-1.163478971E-1,1.393097738E-1
1.458764113E1,-1.675066486E-2,1.823688090E-2,-1.065353921E-1,1.093753097E-1
1.459759012E1,-9.725600705E-3,9.131362796E-2,-6.767216563E-2,1.140714161E-1
1.460753913E1,5.597722270E-2,1.130833966E-1,-5.951559216E-2,1.395113248E-1
1.461748813E1,9.120845117E-2,1.217589104E-1,-1.796410829E-3,1.521428307E-1
1.462743812E1,8.423345380E-2,1.170741212E-1,5.173616409E-3,1.443204452E-1
1.463738713E1,5.460290775E-2,1.081120938E-1,6.124666035E-3,1.212733025E-1
1.464733613E1,5.954760566E-2,1.113111055E-1,-1.428767145E-3,1.262462709E-1
1.465728613E1,9.797097534E-2,1.251982427E-1,-3.558162287E-2,1.629078386E-1
1.466723513E1,1.016842496E-1,1.342245895E-1,-5.282754689E-2,1.764842111E-1
1.467718412E1,8.576769009E-2,1.499085760E-1,-8.558014065E-2,1.927501966E-1
1.468713313E1,7.775612757E-2,1.697739065E-1,-1.033303870E-1,2.134159403E-1
1.469708313E1,6.431644857E-2,1.821688342E-1,-8.038021177E-2,2.092440397E-1
1.470703212E1,2.116319306E-2,1.877950251E-1,-1.892334402E-2,1.899287897E-1
1.471698113E1,2.882428810E-2,1.489905632E-1,7.784909829E-2,1.705564704E-1
1.472693013E1,5.777209863E-2,6.316454709E-2,1.640798879E-1,1.850664340E-1
1.473687908E1,5.415925026E-2,-1.204818785E-2,2.029363900E-1,2.103843189E-1
1.474682808E1,-1.563004598E-2,-7.712418973E-2,1.982299662E-1,2.132781247E-1
1.475677708E1,-7.966348931E-2,-1.187318069E-1,1.701516366E-1,2.222500685E-1
1.476672608E1,-7.486248672E-2,-1.863267893E-1,1.304823714E-1,2.394738265E-1
1.477667608E1,-6.059988521E-2,-2.311088598E-1,6.395903751E-2,2.473346107E-1
1.478662508E1,-5.295772053E-2,-2.072352630E-1,-3.042744845E-2,2.160481521E-1
1.479657408E1,-6.934344605E-2,-1.443589836E-1,-1.142722817E-1,1.967388727E-1
1.480652308E1,-4.829968236E-2,-1.151451248E-1,-1.746903916E-1,2.147277159E-1
1.481647308E1,1.395489179E-2,-7.179328322E-2,-1.653213979E-1,1.807766001E-1
1.482642208E1,3.673293963E-2,-6.973798692E-2,-1.398674449E-1,1.605478054E-1
1.483637108E1,3.220441729E-2,-8.084652722E-2,-4.896282971E-2,9.985311287E-2
1.484632008E1,5.040716507E-2,-9.507514179E-2,3.117793858E-2,1.120367294E-1
1.485627008E1,5.286723487E-2,-9.949329793E-2,9.884601116E-2,1.498812689E-1
1.486621908E1,3.890393771E-2,-1.065462095E-1,1.220144337E-1,1.665927164E-1
1.487616808E1,3.311848328E-2,-9.613641143E-2,9.618698984E-2,1.399677840E-1
1.488611708E1,8.171111114E-2,-6.613142431E-2,4.873391122E-2,1.158665830E-1
1.489606708E1,1.071420407E-1,-6.244767845E-2,-1.665842503E-2,1.251264663E-1
1.490601608E1,8.774309881E-2,-2.866188169E-2,-6.336919963E-2,1.119643261E-1
1.491596508E1,8.458582163E-2,-1.927885473E-2,-1.258035757E-1,1.528168024E-1
1.492591408E1,1.145685162E-1,-5.220101774E-2,-1.276011559E-1,1.792566489E-1
1.493586408E1,1.010625444E-1,-6.720965087E-2,-8.999917388E-2,1.510980687E-1
1.494581308E1,8.735469751E-2,-5.136662006E-2,-1.004412778E-1,1.426808435E-1
1.495576208E1,1.012481935E-1,-4.706306934E-2,-1.091088979E-1,1.561117574E-1
1.496571108E1,1.239239882E-1,-6.312946379E-2,-1.056980708E-1,1.746841900E-1
1.497566108E1,1.489593536E-1,-8.109678805E-2,-1.379574519E-1,2.186271635E-1
1.498561008E1,1.005053779E-1,-1.082652909E-1,-1.467863090E-1,2.082520701E-1
1.499555908E1,2.489254721E-2,-1.551090896E-1,-1.413143384E-1,2.113012325E-1
1.500550808E1,-3.623402596E-2,-2.013588113E-1,-1.696967232E-1,2.658105592E-1
1.501545808E1,-8.726750091E-2,-2.584960485E-1,-1.870363489E-1,3.307845516E-1
1.502540708E1,-1.081188912E-1,-2.883133399E-1,-1.468615919E-1,3.411489467E-1
1.503535608E1,-6.860947430E-2,-2.923707229E-1,-1.238441737E-1,3.248465467E-1
1.504530508E1,1.427341886E-2,-2.667388684E-1,-8.807953298E-2,2.812674146E-1
1.505525508E1,4.546487913E-2,-2.542702657E-1,-4.744854704E-2,2.626248044E-1
1.506520408E1,2.946119606E-2,-2.472167695E-1,-6.870010614E-2,2.582707838E-1
1.507515308E1,-1.563516229E-2,-2.646484888E-1,-5.290239125E-2,2.703367232E-1
1.508510208E1,-3.544304386E-2,-3.053591430E-1,-5.921957687E-2,3.130612941E-1
1.509505208E1,-8.968349732E-2,-3.068618774E-1,-1.044032049E-1,3.363143927E-1
1.510500108E1,-8.804130681E-2,-2.828064322E-1,-1.502734423E-1,3.321337942E-1
1.511495008E1,8.878192976E-3,-2.489405286E-1,-1.881647153E-1,3.121797066E-1
1.512489908E1,4.067111246E-2,-2.130321926E-1,-1.604274246E-1,2.697662192E-1
1.513484908E1,5.310938269E-2,-2.105851328E-1,-1.632975304E-1,2.717218948E-1
1.514479808E1,4.688005149E-2,-2.331898838E-1,-1.374231626E-1,2.747005402E-1
1.515474708E1,2.550043836E-3,-2.465197814E-1,-8.880604953E-2,2.620401110E-1
1.516469708E1,-5.108463809E-2,-2.588989216E-1,-5.954745948E-2,2.705257692E-1
1.517464608E1,-1.006615716E-1,-2.529341769E-1,-8.304858863E-2,2.846146833E-1
1.518459508E1,-1.105560107E-1,-2.061622989E-1,-9.403404504E-2,2.521268066E-1
1.519454408E1,-4.711035870E-2,-1.477228868E-1,-8.247088373E-2,1.756214219E-1
1.520449408E1,4.706116900E-2,-1.300344747E-1,-5.619349658E-2,1.492696463E-1
1.521444308E1,1.061621205E-1,-1.316904062E-1,-2.949335575E-2,1.717050289E-1
1.522439208E1,1.170501477E-1,-1.434462333E-1,1.112988263E-2,1.854762335E-1
1.523434108E1,7.277517691E-2,-1.954519540E-1,2.526333377E-2,2.100855272E-1
1.524429108E1,-4.498102203E-2,-2.250733638E-1,-1.921453536E-2,2.303269628E-1
1.525424008E1,-1.256754486E-1,-1.769320679E-1,-6.624544501E-2,2.269090875E-1
1.526418908E1,-1.117643378E-1,-1.210929126E-1,-7.156231821E-2,1.796550196E-1
1.527413808E1,-4.492393859E-2,-8.614293516E-2,-6.948743373E-2,1.194456738E-1
1.528408808E1,4.168114588E-3,-2.226268888E-2,-5.264452904E-2,5.731009452E-2
1.529403708E1,7.131037630E-2,3.049732268E-2,6.689799428E-3,7.784606525E-2
1.530398608E1,1.843765967E-1,3.774728537E-2,3.563790232E-2,1.915454177E-1
1.531393508E1,2.029641643E-1,3.429450452E-2,1.707825512E-2,2.065483765E-1
1.532388508E1,1.145517786E-1,1.033670783E-2,2.940944821E-2,1.187176194E-1
1.533383408E1,3.818597272E-3,-4.232097745E-2,-2.383325100E-3,4.255968816E-2
1.534378308E1,-1.070239270E-1,-8.840054512E-2,-1.801380962E-2,1.399759789E-1
1.535373208E1,-1.567771541E-1,-8.964951038E-2,-2.578739047E-2,1.824310836E-1
1.536368208E1,-1.486194111E-1,-5.542575717E-2,2.163440555E-2,1.600868247E-1
1.537363108E1,-3.977239542E-2,-2.387418151E-3,8.175079912E-2,9.094358889E-2
1.538358008E1,1.126734336E-1,2.035883546E-2,1.444580939E-1,1.843310222E-1
1.539352908E1,1.978704355E-1,7.340009809E-3,1.536288670E-1,2.506160684E-1
1.540347908E1,1.643618333E-1,-3.096393049E-2,1.408442223E-1,2.186565165E-1
1.541342808E1,5.224538349E-2,-1.018953341E-1,8.546641231E-2,1.428871822E-1
1.542337708E1,-8.917117160E-2,-1.757515150E-1,2.665102422E-2,1.988727482E-1
1.543332608E1,-2.184338870E-1,-2.181941146E-1,-1.532087445E-2,3.091225708E-1
1.544327608E1,-2.318086253E-1,-2.318988186E-1,-7.448183298E-3,3.279752678E-1
1.545322508E1,-1.829682582E-1,-2.164762026E-1,3.156940967E-2,2.851945957E-1
1.546317408E1,-1.213600938E-1,-1.984381270E-1,2.891623557E-2,2.343973364E-1
1.547312308E1,-6.895237695E-2,-1.811169201E-1,4.546736419E-2,1.990604186E-1
1.548307308E1,-6.004999112E-2,-1.862887824E-1,1.072379351E-2,1.960217121E-1
1.549302208E1,-7.929156985E-2,-2.245734268E-1,-4.430903077E-2,2.422471203E-1
1.550297108E1,-1.154785257E-1,-2.626048869E-1,-6.741371870E-2,2.946883540E-1
1.551292008E1,-7.285393160E-2,-2.771264470E-1,-9.935588837E-2,3.032793358E-1
1.552287008E1,-3.202538285E-2,-2.562027705E-1,-1.364082322E-1,2.920148807E-1
1.553281908E1,-1.320399966E-2,-2.564080077E-1,-1.522284588E-1,2.984843643E-1
1.554276808E1,-4.627077162E-2,-2.240717357E-1,-1.590062588E-1,2.786254070E-1
1.555271708E1,-8.005229261E-2,-1.870986217E-1,-1.806207839E-1,2.720994880E-1
1.556266708E1,-5.777491260E-2,-1.382287627E-1,-1.915398744E-1,2.431720684E-1
1.557261608E1,-4.136466533E-3,-1.336211568E-1,-1.806576213E-1,2.247418520E-1
1.558256508E1,3.899482537E-2,-7.279315710E-2,-2.046276972E-1,2.206624902E-1
1.559251408E1,9.837406777E-2,-9.054998159E-3,-9.713920891E-2,1.385477395E-1
1.560246408E1,2.141266086E-1,7.459293008E-3,-5.572952002E-2,2.213856928E-1
1.561241308E1,3.122095582E-1,1.928937972E-2,2.943663776E-2,3.141868934E-1
1.562236208E1,3.483684108E-1,1.230254173E-3,8.510330021E-2,3.586148838E-1
1.563231108E1,3.160211753E-1,-7.694935799E-3,9.640830696E-2,3.304892690E-1
1.564226108E1,2.115137072E-1,2.651069105E-2,1.031343591E-1,2.368070124E-1
1.565221008E1,1.116053301E-1,5.060940564E-2,7.380034000E-2,1.430508715E-1
1.566215908E1,4.224218622E-2,3.836124301E-2,-1.224114597E-3,5.707438759E-2
1.567210808E1,3.142428908E-2,5.709221363E-3,-7.078259200E-2,7.765472608E-2
1.568205808E1,1.234950218E-2,-1.240837634E-2,-9.969853520E-2,1.012238901E-1
1.569200708E1,-3.332185674E-2,4.110592604E-3,-1.065228206E-1,1.116886494E-1
1.570195608E1,3.736030933E-2,-3.576741815E-3,-9.894307494E-2,1.058221048E-1
1.571190508E1,1.295979435E-1,6.127297282E-3,-3.725261092E-3,1.297961799E-1
1.572185508E1,2.470743167E-1,3.436233222E-2,8.187680662E-2,2.625458042E-1
