"Time (s)","Linear Acceleration x (m/s^2)","Linear Acceleration y (m/s^2)","Linear Acceleration z (m/s^2)","Absolute acceleration (m/s^2)"
6.060219000E-2,-8.677124977E-2,-1.785607338E-1,-1.608681679E0,1.620885539E0
6.559364800E-2,-8.320435882E-2,-1.671996117E-1,-1.057914734E0,1.074272898E0
7.058505400E-2,-7.646360993E-2,-2.111983299E-1,-6.819171906E-1,7.179571526E-1
7.557651300E-2,-9.195825458E-2,-2.678771019E-1,-3.790798187E-1,4.731976028E-1
8.056797100E-2,-7.361873984E-2,-3.673186302E-1,-1.274623871E-1,3.957137287E-1
8.555937700E-2,-2.624955773E-2,-4.113364220E-1,9.704589844E-3,4.122873638E-1
9.048687700E-2,8.960455656E-3,-4.158344269E-1,5.339813232E-2,4.193446326E-1
9.547833600E-2,5.103287101E-2,-4.073786736E-1,2.449798584E-2,4.112929478E-1
1.004697420E-1,9.525567293E-2,-4.018278122E-1,-7.754325867E-3,4.130367580E-1
1.054612000E-1,1.417677999E-1,-3.532848358E-1,-1.354751587E-1,4.040566828E-1
1.104526590E-1,1.636016965E-1,-3.101682663E-1,-3.115386963E-1,4.690695341E-1
1.154441170E-1,1.866881251E-1,-2.686872482E-1,-4.716129303E-1,5.739895900E-1
1.203319290E-1,1.860122681E-1,-1.799335480E-1,-6.542062759E-1,7.035357113E-1
1.253233880E-1,1.854021549E-1,-1.678786278E-1,-7.662506104E-1,8.060379585E-1
1.303148460E-1,1.259129047E-1,-1.325635910E-1,-7.800636292E-1,8.012031145E-1
1.353063040E-1,1.447969675E-1,-5.870342255E-2,-7.413673401E-1,7.576528140E-1
1.402977110E-1,2.496371865E-1,-4.359197617E-2,-6.659593582E-1,7.125453333E-1
1.452892210E-1,2.765713334E-1,-5.284595490E-2,-5.960330963E-1,6.591963663E-1
1.501539090E-1,1.443401575E-1,-2.190160751E-2,-4.640417099E-1,4.864652814E-1
1.551453670E-1,8.894997835E-2,-7.801055908E-4,-2.258062363E-1,2.426956191E-1
1.601368250E-1,1.168436408E-1,-3.106784821E-2,7.885074615E-2,1.443436447E-1
1.651282320E-1,1.002053618E-1,-8.388757706E-2,2.526769638E-1,2.844712431E-1
1.701196900E-1,4.998952150E-2,-5.956506729E-2,3.979911804E-1,4.055168667E-1
1.751110960E-1,-8.596163988E-2,-2.803087234E-2,5.139465332E-1,5.218392208E-1
1.800327110E-1,-1.154456437E-1,2.387094498E-2,5.673484802E-1,5.794668383E-1
1.850241170E-1,-5.646800995E-2,4.235124588E-2,5.324707031E-1,5.371287684E-1
1.900155750E-1,-4.915964603E-2,4.246425629E-2,4.398155212E-1,4.445869730E-1
1.950070340E-1,-2.479299903E-1,4.117488861E-2,3.001518250E-1,3.914789516E-1
1.999984920E-1,-2.745825946E-1,6.422138214E-2,2.400302887E-1,3.703167923E-1
2.049899500E-1,-2.692252398E-2,2.743244171E-2,1.521968842E-1,1.569753251E-1
2.098442210E-1,1.527491212E-1,-2.051067352E-2,1.369762421E-2,1.547275239E-1
2.148356790E-1,2.133255005E-1,-2.567958832E-2,-1.371002197E-1,2.548797376E-1
2.198271380E-1,1.772299409E-1,-2.587080002E-2,-2.678222656E-1,3.221932901E-1
2.248185440E-1,1.687733531E-1,-1.860332489E-2,-3.443307877E-1,3.839195485E-1
2.298100020E-1,1.269591451E-1,3.147125244E-3,-3.892335892E-1,4.094280350E-1
2.348014090E-1,4.805654287E-2,3.694105148E-2,-4.315271378E-1,4.357634028E-1
2.397279710E-1,-3.053784370E-2,6.397581100E-2,-5.391550064E-1,5.437955362E-1
2.447194290E-1,-1.354730725E-1,3.048706055E-2,-6.240081787E-1,6.392719463E-1
2.497108880E-1,-1.962423623E-1,1.019477844E-2,-6.537885666E-1,6.826818352E-1
2.547023460E-1,-1.976970732E-1,-3.956985474E-2,-6.436729431E-1,6.745107589E-1
2.596938040E-1,-1.950713098E-1,-1.042881012E-1,-5.850543976E-1,6.254737981E-1
2.646852110E-1,-2.164647877E-1,-1.205368042E-1,-5.491685867E-1,6.024717936E-1
2.695394290E-1,-2.515599430E-1,-1.340522766E-1,-4.580421448E-1,5.394951568E-1
2.745308880E-1,-2.153024673E-1,-1.260609627E-1,-3.573598862E-1,4.358355275E-1
2.795223460E-1,-2.023264766E-1,-1.157379150E-1,-2.261514664E-1,3.247703094E-1
2.845137520E-1,-1.673771441E-1,-8.442592621E-2,-1.235790253E-1,2.245320041E-1
2.895052110E-1,-1.439705193E-1,-6.778860092E-2,-9.595298767E-2,1.858219058E-1
2.944966170E-1,-1.416069567E-1,-5.177545547E-2,-8.052253723E-2,1.709301231E-1
2.993933360E-1,-1.654765904E-1,-8.323001862E-2,-5.826187134E-2,1.941756515E-1
3.043847940E-1,-1.921564937E-1,-1.073317528E-1,-5.034732819E-2,2.257854660E-1
3.093762000E-1,-2.312331200E-1,-1.668291092E-1,-6.106948853E-2,2.915993653E-1
3.143676590E-1,-2.547014356E-1,-2.092437744E-1,-7.602310181E-2,3.382828556E-1
3.193591170E-1,-2.180577219E-1,-2.137651443E-1,-9.040737152E-2,3.184622424E-1
3.243505230E-1,-8.449560404E-2,-2.351150513E-1,-1.608114243E-1,2.971176679E-1
3.292737000E-1,4.587465525E-2,-2.327823639E-1,-2.158012390E-1,3.207215111E-1
3.342651590E-1,1.712602377E-1,-2.377882004E-1,-2.297649384E-1,3.723777976E-1
3.392566170E-1,2.147399187E-1,-1.930737495E-1,-2.248315811E-1,3.659780667E-1
3.442480750E-1,2.749416232E-1,-1.440644264E-1,-2.344188690E-1,3.889725714E-1
3.492394820E-1,2.976981997E-1,-9.769487381E-2,-2.277679443E-1,3.873586748E-1
3.542309400E-1,2.880258560E-1,-1.150293350E-1,-2.523860931E-1,3.998617032E-1
3.591210440E-1,2.439513803E-1,-1.526150703E-1,-3.219757080E-1,4.318240292E-1
3.641125020E-1,2.647876740E-1,-1.346278191E-1,-3.084630966E-1,4.282366681E-1
3.691039610E-1,2.406572104E-1,-1.184353828E-1,-3.570594788E-1,4.465806805E-1
3.740954190E-1,1.719897389E-1,-1.230273247E-1,-3.463945389E-1,4.058390931E-1
3.790868250E-1,1.399762630E-1,-1.081085205E-1,-2.276630402E-1,2.882902466E-1
3.840782840E-1,1.562961340E-1,-1.074438095E-1,-7.771205902E-2,2.049678458E-1
3.889337520E-1,1.518809199E-1,-1.211500168E-1,1.339607239E-1,2.359885928E-1
3.939251590E-1,1.175429225E-1,-1.114358902E-1,2.413120270E-1,2.906299892E-1
3.989166170E-1,9.097188711E-2,-1.237082481E-1,2.577533722E-1,3.000273584E-1
4.039080750E-1,9.765475988E-2,-1.176729202E-1,2.413501740E-1,2.857153737E-1
4.088995340E-1,5.872809887E-2,-1.317176819E-1,2.210998535E-1,2.639766705E-1
4.138909400E-1,-1.817762852E-3,-1.204776764E-1,1.898670197E-1,2.248725415E-1
4.187937520E-1,-3.139764071E-2,-1.078667641E-1,1.571912766E-1,1.932101138E-1
4.237852630E-1,-5.159038305E-2,-7.967185974E-2,1.206855774E-1,1.535388597E-1
4.287766690E-1,-3.169864416E-2,-9.473991394E-2,6.829643250E-2,1.210159412E-1
4.337681270E-1,-2.874910831E-3,-7.910346985E-2,2.380466461E-2,8.265764400E-2
4.387595340E-1,5.143773556E-2,-3.786611557E-2,-8.862686157E-2,1.092446975E-1
4.437509920E-1,1.001966596E-1,-2.063322067E-2,-1.974220276E-1,2.223523271E-1
4.486672420E-1,1.673113704E-1,-3.878688812E-2,-2.861881256E-1,3.337681240E-1
4.536587000E-1,1.912729144E-1,-3.268861771E-2,-3.007774353E-1,3.579398540E-1
4.586501590E-1,1.778283715E-1,-1.042613983E-1,-2.398204803E-1,3.162392001E-1
4.636416170E-1,2.179438472E-1,-1.365628242E-1,-1.421213150E-1,2.938492703E-1
4.686330230E-1,2.470972538E-1,-1.514053345E-1,-6.488800049E-2,2.969698314E-1
4.736244820E-1,2.747391462E-1,-1.633100510E-1,6.413459778E-3,3.196762482E-1
4.784813040E-1,3.215935826E-1,-1.464776993E-1,-2.035236359E-2,3.539666192E-1
4.834727110E-1,3.419803977E-1,-1.510581970E-1,-9.427547455E-2,3.855606780E-1
4.884641690E-1,2.669718862E-1,-1.746702194E-1,-1.128168106E-1,3.383951925E-1
4.934556790E-1,1.945351362E-1,-1.958489418E-1,-7.889556885E-2,2.870979589E-1
4.984471380E-1,1.411938071E-1,-1.814942360E-1,-4.754257202E-2,2.348108708E-1
5.034385440E-1,9.742492437E-2,-1.650376320E-1,-2.591419220E-2,1.933922988E-1
5.083572940E-1,3.968882561E-2,-1.323690414E-1,-2.335834503E-2,1.401512693E-1
5.133488040E-1,3.727376461E-3,-8.368158340E-2,-2.543926239E-2,8.754231438E-2
5.183402110E-1,-3.858828545E-2,-3.098583221E-2,7.217311859E-2,8.751078002E-2
5.233316690E-1,-1.203857660E-1,-2.901649475E-2,1.120748520E-1,1.670193464E-1
5.283230750E-1,-5.435439348E-1,-7.985162735E-2,2.207431793E-1,5.920674309E-1
5.333145860E-1,-1.048667192E0,-4.297924042E-2,2.955007553E-1,1.090353517E0
5.382131790E-1,-1.276507735E0,4.602766037E-2,-1.010894775E-2,1.277377287E0
5.432014090E-1,-1.375167847E0,1.745743752E-1,-1.466560364E-1,1.393940749E0
5.481896380E-1,-1.254220486E0,3.157629967E-1,-9.888362885E-2,1.297132711E0
5.531778670E-1,-1.027642846E0,3.982219696E-1,-2.053785324E-1,1.121075777E0
5.581660960E-1,-8.022321463E-1,3.892793655E-1,-2.678127289E-1,9.310416203E-1
5.631543250E-1,-6.173871160E-1,3.186631203E-1,-3.035001755E-1,7.581724023E-1
5.680304190E-1,-4.429962039E-1,2.513132095E-1,-3.699054718E-1,6.294712257E-1
5.730185960E-1,-2.261439264E-1,1.944398880E-1,-4.099121094E-1,5.069278873E-1
5.780068770E-1,-7.598352432E-2,1.863570213E-1,-4.738807678E-1,5.148450422E-1
5.829951070E-1,4.880613089E-2,2.053661346E-1,-5.427036285E-1,5.823096394E-1
5.879833360E-1,1.459080577E-1,1.895055771E-1,-5.522356033E-1,6.018020328E-1
5.929715650E-1,1.413785815E-1,1.437826157E-1,-4.910621643E-1,5.308515735E-1
5.979106270E-1,7.146084309E-2,5.392503738E-2,-4.118566513E-1,4.214741546E-1
6.028988570E-1,1.474583149E-2,-6.303787231E-3,-2.196311951E-1,2.202158921E-1
6.078870860E-1,-6.983125210E-2,-8.260583878E-2,-6.472969055E-2,1.260557861E-1
6.128753150E-1,-1.447984576E-1,-1.846489906E-1,4.390907288E-2,2.387254694E-1
6.178635440E-1,-1.962816715E-1,-2.388625145E-1,1.282329559E-1,3.347020860E-1
6.228517730E-1,-2.128221095E-1,-2.316236496E-1,2.075948715E-1,3.768798164E-1
6.277244290E-1,-1.515407562E-1,-2.204055786E-1,3.295011520E-1,4.243986676E-1
6.327126590E-1,-7.948422432E-2,-1.696100235E-1,3.296689987E-1,3.791661255E-1
6.377009400E-1,2.690035105E-2,-1.459021568E-1,2.541589737E-1,2.942921205E-1
6.426891690E-1,1.058226824E-1,-1.227054596E-1,1.652288437E-1,2.314209167E-1
6.476773980E-1,1.485677361E-1,-4.268550873E-2,1.007852554E-1,1.845320910E-1
6.526656270E-1,1.986279488E-1,3.755569458E-3,1.174192429E-1,2.307692461E-1
6.576098460E-1,2.134860754E-1,5.020713806E-2,1.336355209E-1,2.568180554E-1
6.625980750E-1,2.052820921E-1,4.197740555E-2,1.233377457E-1,2.431358456E-1
6.675863040E-1,1.027587056E-1,-6.216049194E-3,1.437692642E-1,1.768264465E-1
6.725745340E-1,-1.530009508E-2,3.452777863E-3,4.499340057E-2,4.764893157E-2
6.775627630E-1,-9.191954136E-2,-3.174781799E-3,4.895877838E-2,1.041932978E-1
6.825509920E-1,-1.203433871E-1,6.407928467E-2,8.366966248E-2,1.599665527E-1
6.874219820E-1,-1.203174591E-1,8.316516876E-2,2.789688110E-2,1.488992016E-1
6.924102110E-1,-1.138498187E-1,8.767271042E-2,-1.539230347E-2,1.445171560E-1
6.973984400E-1,-8.225083351E-2,9.405279160E-2,-6.512355804E-2,1.408978532E-1
7.023866690E-1,-7.324844599E-2,1.096148491E-1,-1.142253876E-1,1.744367769E-1
7.073748980E-1,-9.590393305E-2,7.960176468E-2,-1.698246002E-1,2.106523206E-1
7.123631270E-1,-1.117386818E-1,5.442285538E-2,-2.319574356E-1,2.631570484E-1
7.173065130E-1,-1.581590772E-1,5.320119858E-2,-2.033109665E-1,2.630209313E-1
7.222947420E-1,-1.466272473E-1,4.252910614E-2,-1.322069168E-1,2.019577762E-1
7.272829710E-1,-8.418005705E-2,6.288480759E-2,-1.021938324E-1,1.465754427E-1
7.322712000E-1,-4.306972027E-3,4.272985458E-2,-2.504348755E-2,4.971485441E-2
7.372594290E-1,8.056163788E-2,3.721237183E-3,-3.231048584E-3,8.071223438E-2
7.422476590E-1,8.186417818E-2,-2.100038528E-2,-6.223201752E-2,1.049551516E-1
7.471505230E-1,2.589011192E-2,-7.648611069E-2,-1.135463715E-1,1.393312653E-1
7.521386480E-1,-3.246718645E-2,-5.547094345E-2,-1.287765503E-1,1.439254796E-1
7.571269290E-1,-6.024086475E-2,-6.080722809E-2,-8.678245544E-2,1.218920643E-1
7.621151590E-1,-4.576170444E-2,-3.060483932E-2,-6.876373291E-2,8.808655259E-2
7.671033880E-1,-4.157221317E-2,-5.506420135E-2,-4.621791840E-2,8.304463354E-2
7.720916170E-1,-6.880283356E-2,-9.590864182E-2,-4.284763336E-2,1.255715619E-1
7.770798460E-1,-7.684826851E-2,-9.840440750E-2,-6.088256836E-2,1.389092183E-1
7.819539610E-1,-4.656249285E-2,-6.270742416E-2,-9.550285339E-2,1.233737484E-1
7.869421900E-1,-2.344989777E-2,-7.447481155E-2,-1.157855988E-1,1.396520682E-1
7.919304190E-1,-8.381599188E-2,-9.084129333E-2,-9.315681458E-2,1.547754928E-1
7.969186480E-1,-7.041019201E-2,-6.206750870E-2,-9.199714661E-2,1.314284815E-1
8.019068770E-1,-7.650989294E-2,-3.595829010E-2,-1.216726303E-1,1.481586694E-1
8.068951070E-1,-1.069589853E-1,-6.717205048E-2,-8.686256409E-2,1.532886622E-1
8.118030230E-1,-1.613706350E-1,-3.885507584E-2,-4.986667633E-2,1.733115235E-1
8.167912520E-1,-2.037896514E-1,-2.744054794E-2,-2.025890350E-2,2.066243666E-1
8.217794820E-1,-2.006193995E-1,-3.742980957E-2,-1.469802856E-2,2.046097900E-1
8.267677110E-1,-1.233105063E-1,-1.397609711E-2,2.160263062E-2,1.259662094E-1
8.317559400E-1,-1.732707024E-2,1.393127441E-2,4.571628571E-2,5.083587856E-2
8.367441690E-1,7.204872370E-2,5.347347260E-2,6.761550903E-4,8.972674096E-2
8.416513040E-1,1.383580565E-1,3.109455109E-2,-6.184577942E-3,1.419439041E-1
8.466395340E-1,1.888364553E-1,4.173755646E-3,5.901336670E-3,1.889747414E-1
8.516277630E-1,2.160640955E-1,-2.472114563E-2,-8.205413818E-2,2.324386155E-1
8.566159920E-1,1.937813163E-1,-4.141235352E-2,-6.722164154E-2,2.092484902E-1
8.616042210E-1,1.699867845E-1,-3.893184662E-2,-2.692222595E-3,1.744088405E-1
8.665924500E-1,1.684027910E-1,-4.380083084E-2,5.423641205E-2,1.822624514E-1
8.714994290E-1,9.974855185E-2,-5.602693558E-2,1.823806763E-2,1.158508447E-1
8.764876590E-1,2.823126316E-2,-3.271770477E-2,-5.527877808E-2,7.016548818E-2
8.814758880E-1,-3.223139048E-2,2.030849457E-3,-9.706020355E-2,1.022920818E-1
8.864641170E-1,-7.924270630E-2,2.464818954E-2,-1.384153366E-1,1.613869423E-1
8.914523460E-1,-1.149094701E-1,6.930351257E-3,-1.509799957E-1,1.898609365E-1
8.964405750E-1,-1.146545410E-1,1.121330261E-2,-1.755762100E-1,2.099962082E-1
9.013472940E-1,-1.116201282E-1,4.243850708E-3,-1.789789200E-1,2.109751575E-1
9.063355230E-1,-7.451832294E-2,-4.489946365E-2,-1.423206329E-1,1.668055900E-1
9.113237520E-1,3.437721729E-2,-3.631258011E-2,-8.481979370E-2,9.846214474E-2
9.163119820E-1,1.266741157E-1,-8.820533752E-3,-6.470680237E-3,1.271455980E-1
9.213002110E-1,1.450793147E-1,2.308177948E-2,6.887245178E-2,1.622473134E-1
9.262884400E-1,9.232491255E-2,-1.445865631E-2,8.908748627E-2,1.291105047E-1
9.311973460E-1,2.299088240E-2,-1.866197586E-2,3.802680969E-2,4.819635123E-2
9.361855750E-1,-6.274372339E-2,-6.513118744E-3,-1.478767395E-2,6.479097809E-2
9.411738040E-1,-6.491696835E-2,-9.090900421E-3,-3.842926025E-2,7.598463854E-2
9.461620340E-1,-4.381877184E-2,2.415657043E-3,-8.786487579E-2,9.821484899E-2
9.511502630E-1,-6.863850355E-2,-7.871389389E-2,-1.654071808E-1,1.956186512E-1
9.561384920E-1,-6.719177961E-2,-9.251070023E-2,-1.687345505E-1,2.038242219E-1
9.610731790E-1,-4.169690609E-2,-5.159235001E-2,-1.031455994E-1,1.226353017E-1
9.660614090E-1,3.405708075E-2,-5.144405365E-2,-1.911544800E-2,6.458928516E-2
9.710496380E-1,1.074064970E-1,-3.010749817E-2,8.565521240E-2,1.406393702E-1
9.760378670E-1,1.236005425E-1,1.447105408E-2,1.350660324E-1,1.836554890E-1
9.810260960E-1,9.443265200E-2,2.509880066E-2,1.533670425E-1,1.818486329E-1
9.860143250E-1,3.450900316E-2,3.541183472E-2,1.550197601E-1,1.627144596E-1
9.909191170E-1,-5.351072550E-2,2.186059952E-2,8.303546906E-2,1.011739723E-1
9.959073460E-1,-1.099514961E-1,-1.524782181E-2,3.061294556E-2,1.151476444E-1
1.000895575E0,-1.301805079E-1,-3.033542633E-2,-3.343868256E-2,1.377873297E-1
1.005883804E0,-7.168960571E-2,-5.908775330E-2,-1.209754944E-1,1.525314145E-1
1.010872034E0,-3.728294373E-2,-6.827068329E-2,-1.390800476E-1,1.593554635E-1
1.015860263E0,-4.570484161E-4,-2.466773987E-2,-1.287937164E-1,1.311355317E-1
1.020770471E0,4.570692778E-2,1.169347763E-2,-1.282405853E-1,1.366437280E-1
1.025758700E0,6.525480747E-2,-4.511356354E-3,-1.656923294E-1,1.781361565E-1
1.030746929E0,6.495404243E-2,1.024293900E-2,-1.291093826E-1,1.448902278E-1
1.035735159E0,-1.728290319E-2,2.720022202E-2,-8.797454834E-2,9.369136554E-2
1.040723388E0,-5.691897869E-2,-8.392333984E-3,-1.141166687E-2,5.865515788E-2
1.045711617E0,-1.088633239E-1,-4.149341583E-2,1.359300613E-1,1.790248822E-1
1.050583440E0,-1.374082267E-1,-3.173160553E-2,1.705408096E-1,2.212963699E-1
1.055568909E0,-1.214799583E-1,-3.648424149E-2,1.551370621E-1,2.003895910E-1
1.060554377E0,-8.494400978E-2,-4.380846024E-2,1.519117355E-1,1.794765761E-1
1.065539898E0,-2.060365677E-2,1.042509079E-2,1.892709732E-1,1.906743152E-1
1.070525367E0,4.336774349E-2,4.021167755E-2,1.813039780E-1,1.907062469E-1
1.075510836E0,1.096915603E-1,6.010389328E-2,1.758251190E-1,2.157757838E-1
1.080468857E0,1.148835421E-1,4.410171509E-2,1.276035309E-1,1.772733782E-1
1.085454325E0,1.093862653E-1,-2.466201782E-3,3.580093384E-3,1.094726187E-1
1.090439794E0,1.146535873E-1,-3.904771805E-2,-4.827976227E-2,1.303882848E-1
1.095425315E0,1.304959655E-1,-3.719711304E-2,-1.069736481E-1,1.727894198E-1
1.100410784E0,4.193311930E-2,-6.605625153E-2,-2.460680008E-1,2.582078153E-1
1.105396252E0,-1.782923937E-2,-1.134400368E-1,-3.128366470E-1,3.332465926E-1
1.110301252E0,-3.962510824E-2,-9.838008881E-2,-3.435354233E-1,3.595349470E-1
1.115286721E0,-6.653773785E-2,-6.644821167E-2,-3.527622223E-1,3.650805676E-1
1.120272190E0,-1.390594542E-1,-5.354499817E-2,-3.073596954E-1,3.415766107E-1
1.125257659E0,-1.876940429E-1,-4.292249680E-2,-2.624158859E-1,3.254742565E-1
1.130243179E0,-1.817746162E-1,-4.169797897E-2,-1.989135742E-1,2.726670911E-1
1.135228648E0,-8.355021477E-2,-2.875232697E-2,-1.097097397E-1,1.408671774E-1
1.140166252E0,1.138418913E-2,-2.077960968E-2,-4.551887512E-3,2.412698946E-2
1.145151721E0,4.620689154E-2,-1.548147202E-2,8.797454834E-2,1.005697467E-1
1.150137190E0,3.128677607E-2,-4.818725586E-2,1.274127960E-1,1.397672872E-1
1.155122659E0,2.914249897E-3,-3.792190552E-2,1.403789520E-1,1.454400699E-1
1.160108179E0,-8.322119713E-3,-3.262424469E-2,1.319122314E-1,1.361412348E-1
1.165093648E0,-3.390908241E-4,-4.167938232E-2,1.401653290E-1,1.462313419E-1
1.170015054E0,-1.854324341E-2,-1.502513885E-2,1.245937347E-1,1.268589981E-1
1.175000523E0,-2.710384130E-2,-1.714611053E-2,9.730052948E-2,1.024499895E-1
1.179985992E0,-4.266941547E-2,-1.194477081E-2,4.637908936E-2,6.414340571E-2
1.184971513E0,-4.861187935E-2,-5.414772034E-2,-2.082729340E-2,7.568927653E-2
1.189956982E0,-4.979968071E-2,-7.667350769E-2,-9.714984894E-2,1.334051278E-1
1.194942450E0,-3.919208050E-2,-6.296396255E-2,-1.421737671E-1,1.603554171E-1
1.199826461E0,-4.981726408E-2,-7.041597366E-2,-1.466360092E-1,1.701243320E-1
1.204811929E0,-1.724934578E-2,-1.014895439E-1,-2.284431458E-2,1.054491828E-1
1.209797450E0,-5.623573065E-2,-9.192943573E-2,-1.172733307E-2,1.084020705E-1
1.214782919E0,-7.429867983E-2,-8.975887299E-2,-2.905654907E-2,1.200884347E-1
1.219768388E0,-6.234014034E-2,-9.505462646E-2,-2.224445343E-2,1.158295766E-1
1.224753857E0,-1.131893992E-1,-7.453918457E-2,-9.717941284E-4,1.355318211E-1
1.229678648E0,-1.071536243E-1,-5.214357376E-2,5.596923828E-2,1.316563979E-1
1.234664117E0,-1.062535644E-1,-3.274917603E-2,5.330848694E-2,1.233050009E-1
1.239649586E0,-1.078286171E-1,-6.815385818E-2,4.354953766E-2,1.347906572E-1
1.244635107E0,-8.765986562E-2,-5.571603775E-2,1.245021820E-2,1.046113609E-1
1.249620575E0,-7.439732552E-2,-4.347133636E-2,-3.262042999E-2,9.213474688E-2
1.254606044E0,-8.223652840E-2,-3.845119476E-2,-6.784152985E-2,1.133305526E-1
1.259559273E0,-1.136532724E-1,-1.436233521E-2,-6.720161438E-2,1.328134028E-1
1.264544742E0,-1.282456815E-1,1.201152802E-2,-9.037876129E-2,1.573516830E-1
1.269530211E0,-1.404869258E-1,6.426286697E-2,-1.157083511E-1,1.930148049E-1
1.274515679E0,-1.456538737E-1,6.877708435E-2,-1.646871567E-1,2.303631868E-1
1.279501200E0,-5.982238054E-2,-5.087375641E-3,-3.279018402E-2,6.840902552E-2
1.284486669E0,6.678444147E-2,-1.895380020E-2,3.379631042E-2,7.721139011E-2
1.289373179E0,1.174280643E-1,-3.747797012E-2,2.849960327E-2,1.265155165E-1
1.294358648E0,1.063759327E-1,-6.763315201E-2,-3.859996796E-2,1.318333791E-1
1.299344117E0,6.958562136E-2,-8.543205261E-2,-7.202529907E-2,1.316375251E-1
1.304329638E0,-2.368330956E-3,-7.202100754E-2,-4.589271545E-2,8.543287336E-2
1.309315107E0,-5.992877483E-2,-5.378627777E-2,-4.617881775E-2,9.282728553E-2
1.314300575E0,-7.251340151E-2,-5.206251144E-2,-1.392116547E-1,1.653740708E-1
1.319258909E0,-9.290280938E-2,-5.977153778E-2,-1.910791397E-1,2.207143093E-1
1.324244377E0,-1.045615971E-1,-4.826354980E-2,-1.498861313E-1,1.890194439E-1
1.329229846E0,-8.109131455E-2,-7.978916168E-2,-9.702205658E-2,1.495171933E-1
1.334215315E0,-8.422705531E-2,-8.253908157E-2,2.926826477E-3,1.179638213E-1
1.339200836E0,-7.035762072E-2,-8.070802689E-2,1.116275787E-1,1.546761026E-1
1.344186304E0,-6.557983160E-2,-5.764722824E-2,1.624488831E-1,1.844276466E-1
1.349089065E0,-1.130815744E-1,-6.063938141E-2,9.867286682E-2,1.618669568E-1
1.354074534E0,-1.102682650E-1,-2.794599533E-2,3.303623199E-2,1.184544704E-1
1.359060002E0,-8.144327998E-2,-4.293727875E-2,3.203868866E-2,9.748382087E-2
1.364045471E0,-5.550980568E-2,-2.450037003E-2,4.912376404E-3,6.087477392E-2
1.369030992E0,-4.203802347E-2,-1.511573792E-3,1.844596863E-2,4.593184115E-2
1.374016461E0,-4.069787264E-2,5.212736130E-2,9.128570557E-2,1.127238159E-1
1.378958023E0,-3.474622965E-2,5.533599854E-2,8.993911743E-2,1.111684220E-1
1.383943492E0,-3.351312876E-2,3.467655182E-2,1.124010086E-1,1.223093610E-1
1.388928961E0,8.783638477E-3,2.583694458E-2,2.369031906E-1,2.384697501E-1
1.393914482E0,2.515649796E-2,-1.907968521E-2,2.489595413E-1,2.509536551E-1
1.398899950E0,-1.785373688E-2,-4.014825821E-2,1.684122086E-1,1.740497358E-1
1.403885419E0,-3.442430496E-2,-3.755664825E-2,1.124420166E-1,1.234452984E-1
1.408805627E0,-7.477188110E-2,-1.378345490E-2,1.069307327E-1,1.312059428E-1
1.413791096E0,-5.560714006E-2,-2.127599716E-2,6.832122803E-2,9.062346429E-2
1.418776617E0,-3.918665648E-2,-2.162218094E-2,-8.106231689E-4,4.476348807E-2
1.423762086E0,-3.974080086E-2,-4.059791565E-2,-1.241912842E-1,1.365686533E-1
1.428747554E0,-5.945378542E-2,-3.036022186E-2,-1.708126068E-1,1.833942265E-1
1.433733023E0,-4.581570625E-2,-5.564689636E-4,-2.055130005E-1,2.105587376E-1
1.438651825E0,-2.507966757E-2,5.862236023E-3,-2.568922043E-1,2.581800925E-1
1.443637294E0,5.267417431E-2,-1.804590225E-2,-1.965332031E-1,2.042682627E-1
1.448622763E0,8.724409342E-2,-2.231836319E-2,-2.034387589E-1,2.224791446E-1
1.453608284E0,7.425248623E-2,-3.337287903E-2,-1.700859070E-1,1.885640382E-1
1.458593752E0,4.423201084E-3,-5.597877502E-2,-1.015071869E-1,1.160038661E-1
1.463579221E0,-1.729232073E-2,-8.086109161E-2,2.593612671E-2,8.666154373E-2
1.468500836E0,-2.477633953E-2,-7.286024094E-2,1.336412430E-1,1.542156397E-1
1.473486304E0,-6.841838360E-2,-6.557369232E-2,2.028303146E-1,2.238774684E-1
1.478471773E0,-1.530091763E-1,-8.538627625E-2,2.149810791E-1,2.773436290E-1
1.483457242E0,-1.946279407E-1,-6.788492203E-2,2.821636200E-1,3.494348385E-1
1.488442763E0,-1.911900938E-1,-3.228950500E-2,2.898378372E-1,3.487151215E-1
1.493428232E0,-8.575707674E-2,-1.667070389E-2,2.740640640E-1,2.876513511E-1
1.498315992E0,-1.614028215E-2,1.039886475E-2,2.537832260E-1,2.545084889E-1
1.503301461E0,4.180407524E-2,4.400825500E-2,2.029304504E-1,2.118137742E-1
1.508286982E0,5.752313137E-2,2.264833450E-2,1.215782166E-1,1.363932566E-1
1.513272450E0,5.277711153E-2,1.826334000E-2,6.449890137E-2,8.531753259E-2
1.518257919E0,4.185146093E-2,-2.630043030E-2,-5.164718628E-2,7.148908495E-2
1.523243388E0,4.325950146E-2,-4.389429092E-2,-1.671009064E-1,1.781033581E-1
1.528190159E0,4.211902618E-3,-7.279872894E-2,-2.794399261E-1,2.887976236E-1
1.533175627E0,-5.168610811E-2,-8.939313889E-2,-3.243923187E-1,3.404305561E-1
1.538161096E0,-1.339333057E-1,-8.658647537E-2,-2.954206467E-1,3.357211739E-1
1.543146565E0,-1.856863499E-1,-8.811521530E-2,-2.787322998E-1,3.463169165E-1
1.548132086E0,-1.096246541E-1,-8.670663834E-2,-2.386617661E-1,2.765773752E-1
1.553117554E0,-2.738481760E-2,-8.527612686E-2,-1.062774658E-1,1.389850560E-1
1.558010471E0,1.612907648E-2,-5.281114578E-2,-5.347442627E-2,7.686792889E-2
1.562993804E0,3.609937429E-2,-1.805925369E-2,5.879402161E-3,4.079054839E-2
1.567977138E0,3.017199039E-2,-1.211929321E-2,3.146266937E-2,4.524517473E-2
1.572960471E0,4.584711790E-2,5.057811737E-2,8.543777466E-2,1.093604934E-1
1.577943804E0,2.085161209E-2,7.455062866E-2,6.306076050E-2,9.984610896E-2
1.582927138E0,-4.045486450E-3,4.349327087E-2,1.960277557E-2,4.787796343E-2
1.587859950E0,-9.973287582E-3,1.502275467E-2,7.632160187E-2,7.842280622E-2
1.592843284E0,2.444922924E-2,3.412389755E-2,1.160392761E-1,1.233990227E-1
1.597826617E0,6.065946817E-2,6.453227997E-2,1.390399933E-1,1.648517697E-1
1.602809950E0,1.009328365E-1,7.060050964E-2,1.786842346E-1,2.170251717E-1
1.607793336E0,8.379715681E-2,6.915283203E-2,2.063064575E-1,2.331661041E-1
1.612776669E0,1.234745979E-2,1.756048203E-2,1.601905823E-1,1.616225632E-1
1.617744482E0,-3.459393978E-2,-3.125190735E-2,1.358423233E-1,1.436194944E-1
1.622727867E0,4.738092422E-2,-5.352783203E-2,1.568145752E-1,1.723397568E-1
1.627711200E0,8.397656679E-2,-6.616544724E-2,1.609792709E-1,1.932466192E-1
1.632694482E0,8.768260479E-2,-5.499792099E-2,8.907508850E-2,1.365554169E-1
1.637677867E0,2.788054943E-2,-6.520128250E-2,3.667259216E-2,7.983364762E-2
1.642661200E0,-1.678383350E-2,-8.462858200E-2,-4.393100739E-2,9.681749516E-2
1.647596044E0,-3.965747356E-2,-1.107831001E-1,-1.477489471E-1,1.888792256E-1
1.652579377E0,1.692891121E-3,-1.055707932E-1,-1.819467545E-1,2.103632090E-1
1.657562711E0,-4.084175825E-2,-1.263856888E-1,-2.040338516E-1,2.434567809E-1
1.662545992E0,-7.154422998E-2,-1.205568314E-1,-2.023353577E-1,2.461546737E-1
1.667529377E0,-7.625633478E-2,-1.168212891E-1,-2.126789093E-1,2.543512544E-1
1.672512711E0,-6.933081150E-2,-1.391949654E-1,-1.778097153E-1,2.362166265E-1
1.677444950E0,-3.663861752E-2,-1.184968948E-1,-9.339046478E-2,1.552600441E-1
1.682428284E0,-3.065502644E-2,-9.550762177E-2,4.552841187E-3,1.004099837E-1
1.687411617E0,-8.103311062E-3,-1.823377609E-2,8.038806915E-2,8.282738619E-2
1.692394898E0,2.228617668E-4,-2.010488510E-2,1.437559128E-1,1.451551533E-1
1.697378284E0,-2.225762606E-2,-5.435943604E-3,2.066421509E-1,2.079084652E-1
1.702361617E0,-6.353414059E-2,2.066946030E-2,2.501716614E-1,2.589395176E-1
1.707290992E0,-5.434137583E-2,2.513170242E-2,2.197017670E-1,2.277135350E-1
1.712274377E0,-3.311985731E-2,1.981115341E-2,2.086067200E-1,2.121465775E-1
1.717257711E0,-7.143557072E-3,1.034736633E-4,1.715545654E-1,1.717032616E-1
1.722241044E0,-2.402126789E-3,-1.010894775E-2,1.443796158E-1,1.447530120E-1
1.727224377E0,-1.859837770E-2,1.146793365E-3,1.007671356E-1,1.024755113E-1
1.732207711E0,-1.286524534E-2,4.570484161E-2,3.840923309E-2,6.107140306E-2
1.737141096E0,-4.970234632E-2,-7.627010345E-3,2.650642395E-2,5.684263389E-2
1.742124429E0,-4.352593422E-2,3.424644470E-3,2.194118500E-2,4.886359318E-2
1.747107711E0,-5.449360609E-2,-9.536743164E-7,2.702045441E-2,6.082481453E-2
1.752091044E0,-8.245909214E-2,-3.688573837E-2,3.458976746E-2,9.672906277E-2
1.757074429E0,-8.930033445E-2,-5.947637558E-2,2.089309692E-2,1.093092424E-1
1.762057763E0,-8.511340618E-2,-7.743358612E-2,-2.571582794E-2,1.179048599E-1
1.766988857E0,-6.014233828E-2,-4.313278198E-2,-5.756187439E-2,9.375983745E-2
1.771972190E0,-9.197115898E-3,-5.665254593E-2,-2.499294281E-2,6.259988092E-2
1.776955523E0,2.282911539E-2,-5.087709427E-2,-2.845859528E-2,6.260622074E-2
1.781938909E0,6.939399242E-2,-4.258966446E-2,-1.009254456E-1,1.296740192E-1
1.786922242E0,9.251284599E-2,-2.433013916E-2,-1.612510681E-1,1.874899712E-1
1.791905575E0,8.972936869E-2,-2.240467072E-2,-1.857118607E-1,2.074661998E-1
1.796838388E0,3.955292702E-2,-3.192377090E-2,-2.339725494E-1,2.394299795E-1
1.801821721E0,4.185968637E-2,-1.487684250E-2,-2.297487259E-1,2.340043394E-1
1.806805107E0,4.600340128E-2,-1.424980164E-2,-2.779750824E-1,2.821161396E-1
1.811788440E0,1.167309284E-2,-4.168462753E-2,-2.357397079E-1,2.396812032E-1
1.816771773E0,-7.024943829E-2,-3.549575806E-2,-1.939029694E-1,2.092684734E-1
1.821755107E0,-1.256164312E-1,-4.826116562E-2,-1.429500580E-1,1.963245960E-1
1.826686409E0,-8.359026909E-2,-4.932498932E-2,-3.759765625E-2,1.040858848E-1
1.831669794E0,-6.388366222E-3,-6.485986710E-2,2.899837494E-2,7.133385824E-2
1.836653075E0,1.463115215E-3,-5.673980713E-2,1.592903137E-1,1.691004153E-1
1.841636461E0,-1.640886068E-2,-5.127525330E-2,1.983060837E-1,2.054840751E-1
1.846619794E0,-1.428312063E-2,-7.220745087E-2,2.132987976E-1,2.256419743E-1
1.851603127E0,2.674895525E-2,-5.741691589E-2,2.020158768E-1,2.117135407E-1
1.856536773E0,6.362104416E-2,-4.266881943E-2,1.669597626E-1,1.836949311E-1
1.861520054E0,2.999937534E-2,-5.409526825E-2,1.296997070E-1,1.436950750E-1
1.866503440E0,-3.372508287E-2,-6.536674500E-2,6.892776489E-2,1.008029233E-1
1.871486721E0,-7.340347767E-2,-9.068584442E-2,-3.651428223E-2,1.222509130E-1
1.876470107E0,-9.687948227E-2,-8.733701706E-2,-6.497859955E-2,1.457244215E-1
1.881453440E0,-9.050202370E-2,-8.158397675E-2,-1.287813187E-1,1.772884361E-1
1.886382450E0,-8.286416531E-2,-4.494190216E-2,-1.112394333E-1,1.458096567E-1
1.891365784E0,9.289383888E-3,-4.675817490E-2,-9.845066071E-2,1.093853380E-1
1.896349117E0,1.882821321E-2,-3.659296036E-2,-1.546287537E-1,1.600112428E-1
1.901332450E0,2.293920517E-2,-1.239728928E-2,-1.128244400E-1,1.157983341E-1
1.906315836E0,-3.908157349E-3,-3.790855408E-4,-6.656074524E-2,6.667645916E-2
1.911299169E0,2.206975222E-2,4.513740540E-3,-1.838493347E-2,2.907668474E-2
1.916230627E0,9.313821793E-4,-1.213836670E-2,4.128932953E-2,4.304667411E-2
1.921204586E0,-1.677936316E-2,-2.336502075E-4,1.194562912E-1,1.206292134E-1
1.926187919E0,1.177346706E-2,-2.158403397E-2,1.564598083E-1,1.583797862E-1
1.931127763E0,-1.373487711E-2,-2.450466156E-3,1.337509155E-1,1.344766115E-1
1.936111044E0,-4.783320427E-2,2.359724045E-2,1.468420029E-1,1.562287393E-1
1.941094377E0,-4.555428028E-2,6.622314453E-3,8.617496490E-2,9.769939650E-2
1.946077711E0,6.609916687E-3,-4.239082336E-4,-3.115367889E-2,3.184999852E-2
1.951061044E0,4.625999928E-2,-4.723548889E-3,-1.357812881E-1,1.435230214E-1
1.956044429E0,1.088430882E-1,1.520109177E-2,-2.159786224E-1,2.423317073E-1
1.961027711E0,1.155453324E-1,3.776931763E-2,-2.933130264E-1,3.175055538E-1
1.965983492E0,6.228351593E-2,1.768493652E-2,-2.774791718E-1,2.849327712E-1
1.970966773E0,-5.456149578E-3,-1.153755188E-2,-1.668128967E-1,1.673004100E-1
1.975950107E0,-8.767604828E-3,-4.988193512E-2,-6.424903870E-2,8.181086309E-2
1.980923284E0,-2.636992931E-2,-1.221704483E-2,4.476928711E-2,5.337526042E-2
1.985906669E0,-5.815863609E-2,-4.424238205E-2,1.578960419E-1,1.739855608E-1
1.990889950E0,-8.012688160E-2,-6.720447540E-2,2.918357849E-1,3.100078774E-1
1.995873284E0,-8.060306311E-2,-1.047306061E-1,3.227853775E-1,3.487918485E-1
2.000856669E0,-3.813856840E-2,-9.520196915E-2,3.206195831E-1,3.366227598E-1
2.005840002E0,-2.437853813E-2,-6.952857971E-2,3.067989349E-1,3.155219850E-1
2.010754429E0,-3.921085596E-2,-4.408740997E-2,2.289619446E-1,2.364418808E-1
2.015737763E0,-1.601076126E-2,-1.646137238E-2,7.812786102E-2,8.143269567E-2
2.020721096E0,2.819168568E-2,-6.666183472E-4,-3.832530975E-2,4.758198072E-2
2.025704429E0,6.481051445E-2,3.902101517E-2,-7.792949677E-2,1.086096169E-1
2.030687815E0,8.716058731E-2,3.363037109E-2,-8.654975891E-2,1.273531727E-1
2.035671148E0,9.528684616E-2,3.827571869E-2,-5.261707306E-2,1.153827113E-1
2.040600784E0,6.815665960E-2,-4.457473755E-3,-5.710029602E-2,8.902608116E-2
2.045584117E0,1.058042049E-2,-1.339960098E-2,-4.977798462E-2,5.262454140E-2
2.050567450E0,-3.851771355E-3,1.104307175E-2,-5.916881561E-2,6.031363293E-2
2.055550784E0,-3.728133440E-2,-2.776145935E-3,-5.419158936E-2,6.583565324E-2
2.060534169E0,-5.880594254E-2,-4.754972458E-2,-6.814193726E-2,1.017960647E-1
2.065517502E0,-9.923297167E-2,-6.598567963E-2,-4.149627686E-2,1.261872956E-1
2.070453075E0,-1.298046112E-1,-6.286764145E-2,-3.409004211E-2,1.482015803E-1
2.075436409E0,-1.315626502E-1,-7.637834549E-2,-3.626441956E-2,1.563889085E-1
2.080419742E0,-1.044842601E-1,-1.086750031E-1,-1.712036133E-2,1.517244992E-1
2.085403127E0,-1.033729911E-1,-6.929588318E-2,4.451942444E-2,1.321736504E-1
2.090386461E0,-6.865197420E-2,-5.873775482E-2,8.423233032E-2,1.235245031E-1
2.095369794E0,-6.976109743E-2,-6.740951538E-2,6.429290771E-2,1.163796866E-1
2.100265315E0,-6.408059597E-2,-3.806161880E-2,2.557373047E-2,7.879736859E-2
2.105248648E0,-5.686599016E-2,-3.989171982E-2,-1.273727417E-2,7.062101883E-2
2.110231982E0,-5.991858244E-2,-1.476764679E-3,-5.461692810E-3,6.018510982E-2
2.115215315E0,-6.828856468E-2,4.112577438E-2,-1.469993591E-2,8.106013509E-2
2.120198700E0,-4.894655943E-2,2.629423141E-2,-3.326606750E-2,6.475942814E-2
2.125182034E0,-4.063606262E-3,3.770065308E-2,-6.826400757E-2,7.808858346E-2
2.130149325E0,-5.303680897E-3,2.545022964E-2,-9.827709198E-2,1.016574150E-1
2.135132659E0,1.944816113E-2,3.253650665E-2,-1.115226746E-1,1.177886335E-1
2.140115992E0,8.723843098E-2,3.969764709E-2,3.439712524E-2,1.018312783E-1
2.145099325E0,1.530573368E-1,8.247137070E-2,1.837606430E-1,2.529744043E-1
2.150082711E0,1.578366756E-1,7.978200912E-2,2.533740997E-1,3.089919410E-1
2.155066044E0,1.041536331E-1,4.367351532E-2,2.749242783E-1,2.972182935E-1
2.159999117E0,4.691487551E-2,9.976863861E-3,2.274904251E-1,2.324917996E-1
2.164982450E0,-4.592657089E-3,4.810810089E-3,1.876773834E-1,1.877951987E-1
2.169965784E0,-6.252771616E-2,-5.036878586E-2,1.862764359E-1,2.028438819E-1
2.174949117E0,-9.614527225E-2,-7.427072525E-2,9.702014923E-2,1.554765685E-1
2.179932502E0,-1.127715111E-1,-4.820537567E-2,-1.756572723E-2,1.238940141E-1
2.184915836E0,-1.007314324E-1,-5.328178406E-2,-1.050424576E-1,1.549828632E-1
2.189840002E0,-8.433616161E-2,-8.676195145E-2,-1.514186859E-1,1.938242576E-1
2.194823336E0,-1.039221883E-1,-8.891105652E-2,-2.331151962E-1,2.702733651E-1
2.199806669E0,-6.921410561E-2,-9.085893631E-2,-2.096681595E-1,2.387607083E-1
2.204790002E0,-1.852500439E-2,-7.362222672E-2,-1.318407059E-1,1.521360568E-1
2.209773388E0,-2.563929558E-2,-5.872058868E-2,-4.047966003E-2,7.578973472E-2
2.214756721E0,-7.121556997E-2,-5.333948135E-2,-3.779411316E-2,9.667032982E-2
2.219657971E0,-4.798090458E-2,-2.887582779E-2,-3.278732300E-2,6.489213499E-2
2.224641304E0,1.012575626E-2,-1.402807236E-2,-4.073143005E-3,1.777380792E-2
2.229624638E0,3.167641163E-2,-2.552366257E-2,7.199382782E-2,8.269198056E-2
2.234607971E0,7.918715477E-3,-3.227806091E-2,1.593599319E-1,1.627887195E-1
2.239591304E0,1.104235649E-3,-2.486467361E-2,2.175588608E-1,2.189779195E-1
2.244574638E0,2.541548014E-2,1.098680496E-2,2.039966583E-1,2.058671735E-1
2.249543700E0,-1.913529634E-2,3.695011139E-3,1.668214798E-1,1.679560026E-1
2.254527034E0,-4.879003763E-2,2.012729645E-2,1.751213074E-1,1.829017445E-1
2.259510367E0,-2.787899971E-2,4.122972488E-2,1.666584015E-1,1.739314567E-1
2.264493700E0,-1.376557350E-2,2.657651901E-2,1.510753632E-1,1.540115831E-1
2.269477086E0,1.033437252E-2,2.490520477E-3,1.261024475E-1,1.265497105E-1
2.274460419E0,-3.180271387E-2,-3.330850601E-2,1.559581757E-1,1.626155643E-1
2.279394534E0,-8.287274837E-2,-4.052305222E-2,1.619110107E-1,1.863469495E-1
2.284377867E0,-1.120176315E-1,-7.608413696E-3,1.418428421E-1,1.809011597E-1
2.289361200E0,-1.056336761E-1,3.901147842E-2,9.836006165E-2,1.495161218E-1
2.294344534E0,-8.786147833E-2,5.641031265E-2,3.184318542E-3,1.044600528E-1
2.299327919E0,-8.746868372E-2,1.391363144E-2,-3.869819641E-2,9.665355750E-2
2.304311252E0,-1.019809246E-1,-2.370023727E-2,-9.669113159E-2,1.425166136E-1
2.309200211E0,-6.675612926E-2,-4.439258575E-2,-1.470432281E-1,1.674777400E-1
2.314183596E0,-2.476853132E-2,-7.435846329E-2,-1.684942245E-1,1.858304736E-1
2.319166877E0,-6.815314293E-3,-9.676599503E-2,-2.278757095E-1,2.476639766E-1
2.324150211E0,9.439057112E-2,-6.622886658E-2,-2.965507507E-1,3.181794941E-1
2.329133596E0,1.427776814E-1,-6.597375870E-2,-3.104953766E-1,3.480594518E-1
2.334116929E0,1.149881482E-1,-4.596185684E-2,-3.033685684E-1,3.276694292E-1
2.339089742E0,5.895632505E-2,-8.680820465E-3,-2.587270737E-1,2.655012308E-1
2.344073075E0,-2.068322897E-2,2.705574036E-3,-1.980981827E-1,1.991933886E-1
2.349056409E0,-4.308474064E-2,-2.857494354E-2,-9.762763977E-3,5.261305765E-2
2.354039742E0,-4.894679785E-2,-1.944017410E-2,9.162902832E-2,1.056862726E-1
2.359023127E0,-1.465553045E-2,-5.354833603E-2,1.924161911E-1,2.002653227E-1
2.364006461E0,2.190244198E-2,-1.897335052E-2,2.546043396E-1,2.562480727E-1
2.368901669E0,3.900885582E-3,-2.794504166E-2,3.070116043E-1,3.083054775E-1
2.373885002E0,-4.429054260E-2,-6.120967865E-2,3.093824387E-1,3.184741281E-1
2.378868336E0,-4.614454508E-2,-6.865453720E-2,2.716026306E-1,2.839203295E-1
2.383851669E0,-1.666522026E-2,-6.210327148E-2,1.867647171E-1,1.975236833E-1
2.388835002E0,-1.338475943E-2,-5.120992661E-2,8.380603790E-2,9.912144247E-2
2.393818336E0,-1.723706722E-2,-2.628850937E-2,4.116344452E-2,5.179412492E-2
2.398785419E0,9.758055210E-3,-1.331996918E-2,-8.908271790E-2,9.060006539E-2
2.403768752E0,5.043661594E-2,-3.102064133E-2,-1.922588348E-1,2.011705545E-1
2.408752086E0,1.439714432E-2,-2.199602127E-2,-2.591533661E-1,2.604833390E-1
2.413735419E0,9.341180325E-3,-3.146982193E-2,-2.925291061E-1,2.943652243E-1
2.418718804E0,2.087080479E-2,-3.799676895E-2,-2.831249237E-1,2.864246277E-1
2.423702138E0,3.384053707E-3,-5.812549591E-2,-3.287248611E-1,3.338413687E-1
2.428636565E0,1.191759109E-2,-4.184675217E-2,-2.934837341E-1,2.966915601E-1
2.433619898E0,2.274638414E-2,-6.081533432E-2,-1.970500946E-1,2.074720286E-1
2.438603232E0,5.095064640E-3,-2.001047134E-2,-8.967113495E-2,9.201788462E-2
2.443586565E0,-4.301536083E-2,-1.275730133E-2,8.090686798E-2,9.251481660E-2
2.448569950E0,-9.044927359E-2,2.038335800E-2,2.050065994E-1,2.249983515E-1
2.453553284E0,-8.536732197E-2,3.123092651E-2,3.046684265E-1,3.179399323E-1
2.458483544E0,-6.173509359E-2,1.028537750E-2,3.683366776E-1,3.736160045E-1
2.463466877E0,-4.798024893E-2,-1.375722885E-2,4.058351517E-1,4.088930618E-1
2.468450263E0,-2.481985092E-2,-5.733013153E-2,4.149026871E-1,4.195795618E-1
2.473433544E0,-2.077430487E-2,-4.186630249E-2,3.553800583E-1,3.584401552E-1
2.478416929E0,4.282826185E-2,-2.917337418E-2,2.893533707E-1,2.939570018E-1
2.483400263E0,6.847268343E-2,1.652288437E-2,2.072839737E-1,2.189250096E-1
2.488333179E0,4.434072971E-2,1.913738251E-2,8.070755005E-2,9.405343351E-2
2.493314742E0,3.725242615E-2,2.910280228E-2,-4.021167755E-2,6.206202837E-2
2.498296357E0,4.212850332E-2,2.760362625E-2,-8.437347412E-2,9.826318797E-2
2.503277919E0,7.547998428E-2,1.454019547E-2,-9.031867981E-2,1.186006291E-1
2.508259534E0,5.616331100E-2,4.469251633E-2,-1.320247650E-1,1.502740067E-1
2.513241148E0,4.130154848E-2,4.421138763E-2,-1.902446747E-1,1.996334164E-1
2.518184065E0,1.201307774E-2,2.030277252E-2,-1.388530731E-1,1.408427937E-1
2.523165627E0,2.339220047E-2,-2.217197418E-2,-1.022758484E-1,1.072340461E-1
2.528147242E0,7.990384102E-2,-3.574037552E-2,-5.890846252E-2,1.055092660E-1
2.533128804E0,6.253290176E-2,-5.399274826E-2,-4.202651978E-2,9.269201170E-2
2.538110419E0,-3.043437004E-2,-6.277513504E-2,-3.946018219E-2,8.015032400E-2
2.543092034E0,-9.638917446E-2,-9.298467636E-2,-8.199501038E-2,1.570356798E-1
2.547954534E0,-8.345377445E-2,-8.027553558E-2,-1.098680496E-1,1.596235647E-1
2.552936096E0,-5.191320181E-2,-3.693103790E-2,-1.041526794E-1,1.220928447E-1
2.557917711E0,-1.855725050E-2,-1.123905182E-3,-1.221914291E-1,1.235976540E-1
2.562899273E0,-4.823625088E-3,-8.430957794E-3,-7.350921631E-2,7.414818468E-2
2.567880888E0,1.611471176E-3,7.961273193E-3,-3.941917419E-2,4.024736022E-2
2.572862450E0,-3.243708611E-2,-3.042078018E-2,-3.233909607E-3,4.458751611E-2
2.577841929E0,-5.648761988E-2,2.497196198E-3,8.267402649E-2,1.001602808E-1
2.582823544E0,-3.967779875E-2,4.212379456E-3,1.013545990E-1,1.089257848E-1
2.587805159E0,-1.541829109E-2,-2.730512619E-2,6.280994415E-2,7.020244085E-2
2.592786773E0,-2.824723721E-3,-2.045965195E-2,5.538749695E-2,5.911303782E-2
2.597768336E0,1.456773281E-2,-1.118564606E-2,5.033206940E-2,5.357849127E-2
2.602749898E0,-4.872304201E-2,-1.382064819E-2,-6.985664368E-3,5.112479483E-2
2.607729325E0,-6.374943256E-2,-3.021955490E-2,-4.271411896E-2,8.247246576E-2
2.612710888E0,-7.365757227E-2,-3.658723831E-2,-3.323745728E-2,8.870621470E-2
2.617692502E0,-9.019899368E-2,-4.494857788E-2,-2.404785156E-2,1.036075879E-1
2.622674065E0,-7.100075483E-2,-5.536842346E-2,1.565933228E-3,9.005121682E-2
2.627655679E0,-6.193077564E-2,-2.292776108E-2,1.749229431E-2,6.831605638E-2
2.632637294E0,-8.702182770E-2,2.331161499E-2,1.444244385E-2,9.124041908E-2
2.637578336E0,-1.272107363E-1,-9.462356567E-3,4.725742340E-2,1.360344503E-1
2.642559898E0,-1.158934236E-1,-1.792907715E-3,5.624008179E-2,1.288310791E-1
2.647541513E0,-8.146089315E-2,2.215099335E-2,1.128540039E-1,1.409346296E-1
2.652523127E0,-5.487763882E-2,1.245069504E-2,1.762580872E-1,1.850229400E-1
2.657504690E0,-1.691150665E-2,2.388191223E-2,1.751909256E-1,1.776181443E-1
2.662486304E0,5.160808563E-2,4.921627045E-2,1.386375427E-1,1.559038294E-1
2.667430107E0,1.266932487E-1,3.854942322E-2,1.262283325E-1,1.829503464E-1
2.672411669E0,1.322743297E-1,6.832456589E-2,8.543395996E-2,1.716499522E-1
2.677393284E0,8.338361979E-2,6.928873062E-2,4.974555969E-2,1.192827605E-1
2.682374846E0,7.099395990E-2,3.940820694E-2,2.617168427E-2,8.531181732E-2
2.687356461E0,9.251439571E-2,3.130149841E-2,6.681442261E-2,1.183336989E-1
2.692338075E0,8.603960276E-2,-7.573604584E-3,5.002784729E-2,9.981461934E-2
2.697267450E0,3.786796331E-2,-3.889322281E-2,6.887912750E-2,8.769834452E-2
2.702249013E0,1.479256153E-2,-5.816125870E-2,6.854152679E-2,9.110155205E-2
2.707230627E0,-9.572505951E-5,-1.081357002E-1,6.338024139E-2,1.253411099E-1
2.712212190E0,-4.035592079E-2,-1.244611740E-1,5.109977722E-2,1.404648405E-1
2.717193804E0,-5.385535955E-2,-1.099414825E-1,3.423976898E-2,1.271215604E-1
2.722175419E0,-7.241427898E-2,-1.170005798E-1,-8.217525482E-2,1.602677010E-1
2.727124742E0,-1.081277132E-1,-1.097388268E-1,-2.403326035E-1,2.854714920E-1
2.732106304E0,-1.491864324E-1,-1.334142685E-1,-3.329648972E-1,3.884862692E-1
2.737087919E0,-1.552464366E-1,-1.446714401E-1,-3.465414047E-1,4.063523432E-1
2.742069482E0,-9.280055761E-2,-1.410789490E-1,-3.436126709E-1,3.828640502E-1
2.747051096E0,2.109640837E-2,-7.051324844E-2,-2.791843414E-1,2.887231774E-1
2.752032711E0,1.195925474E-1,-4.936218262E-3,-1.323204041E-1,1.784248665E-1
2.756970419E0,1.055005193E-1,1.301002502E-2,-6.291770935E-2,1.235243234E-1
2.761951982E0,2.749866247E-2,4.899024963E-3,2.478408813E-2,3.734203942E-2
2.766933596E0,2.631145716E-2,-1.499748230E-2,1.283588409E-1,1.318833170E-1
2.771915159E0,3.898382187E-3,7.925987244E-3,2.097368240E-1,2.099227334E-1
2.776896773E0,-2.993017435E-2,-2.416229248E-2,3.142700195E-1,3.166153453E-1
2.781878388E0,-7.510662079E-2,-2.532052994E-2,3.538904190E-1,3.626576380E-1
2.786796669E0,-6.979590654E-2,-1.262331009E-2,3.957576752E-1,4.020633706E-1
2.791778232E0,-4.525297880E-2,1.990795135E-3,3.733034134E-1,3.760415320E-1
2.796759846E0,-7.768183947E-2,-1.237392426E-2,2.728118896E-1,2.839258870E-1
2.801741409E0,-1.025540233E-1,-2.935981750E-2,2.184743881E-1,2.431262734E-1
2.806723023E0,-1.081040502E-1,-6.086111069E-2,1.434164047E-1,1.896281245E-1
2.811704638E0,-1.019665599E-1,-2.337980270E-2,5.721664429E-2,1.192373217E-1
2.816644482E0,-1.007055044E-1,-2.192354202E-2,-2.109050751E-2,1.052000467E-1
2.821626044E0,-8.759850264E-2,-3.236246109E-2,-7.973480225E-2,1.227944023E-1
2.826607659E0,-6.767994165E-2,-4.500055313E-2,-1.022901535E-1,1.306479996E-1
2.831589221E0,-7.200533152E-2,-5.040740967E-2,-1.365098953E-1,1.623595585E-1
2.836570836E0,-4.107612371E-2,-4.133176804E-2,-1.610097885E-1,1.712300061E-1
2.841552450E0,-3.597199917E-3,-3.681230545E-2,-1.592931747E-1,1.635310405E-1
2.846495575E0,-6.829142570E-3,-5.832386017E-2,-7.451915741E-2,9.487578550E-2
2.851477138E0,1.617884636E-2,-5.123806000E-2,-2.129268646E-2,5.779681962E-2
2.856458752E0,2.963423729E-2,-3.695344925E-2,-2.560424805E-2,5.384536145E-2
2.861440315E0,3.582954407E-2,-4.869222641E-2,-2.999973297E-2,6.748831839E-2
2.866421929E0,3.969603777E-2,-3.196239471E-3,-6.056213379E-2,7.248284908E-2
2.871403544E0,1.765429974E-2,6.329536438E-3,-7.428359985E-2,7.661455826E-2
2.876354377E0,-6.650626659E-3,-2.194738388E-2,-1.426753998E-1,1.445067064E-1
2.881335940E0,3.359580040E-2,-1.162099838E-2,-1.536931992E-1,1.577508316E-1
2.886317554E0,5.005216599E-2,-3.203582764E-2,-9.111976624E-2,1.087856855E-1
2.891299117E0,3.805214167E-2,-2.844047546E-2,-7.426452637E-2,8.815920829E-2
2.896280732E0,-6.865799427E-3,-2.960109711E-2,6.558418274E-3,3.108660486E-2
2.901262346E0,-1.012775302E-1,-3.078746796E-2,9.860420227E-2,1.446644221E-1
2.906189950E0,-1.833799481E-1,-2.496671677E-2,1.305904388E-1,2.265069647E-1
2.911171513E0,-1.464641690E-1,-3.840208054E-2,9.831428528E-2,1.805330199E-1
2.916153127E0,-9.353107214E-2,-3.074932098E-2,1.544399261E-1,1.831536868E-1
2.921134690E0,-6.724375486E-2,-2.333402634E-2,1.650609970E-1,1.797535315E-1
2.926116304E0,-1.966363192E-2,-1.391315460E-2,1.686210632E-1,1.703329013E-1
2.931097919E0,3.981196880E-2,-4.299354553E-2,1.533365250E-1,1.641509297E-1
2.936041044E0,6.357085705E-2,-7.210016251E-2,8.602905273E-2,1.289987799E-1
2.941022607E0,3.980779648E-2,-9.147024155E-2,9.771347046E-3,1.002344500E-1
2.946004221E0,5.187582970E-2,-6.316804886E-2,-2.309226990E-2,8.493854857E-2
2.950985836E0,3.746360540E-2,-3.757953644E-2,-5.323314667E-2,7.516323032E-2
2.955967398E0,-3.327906132E-3,-2.152252197E-2,-5.706024170E-2,6.107507752E-2
2.960949013E0,-4.433512688E-2,-4.094839096E-2,-1.179780960E-1,1.325186981E-1
2.965915523E0,-5.227053165E-2,-3.622293472E-2,-1.143341064E-1,1.308304146E-1
2.970897086E0,-4.136592150E-2,-5.255603790E-2,-9.188938141E-2,1.136526946E-1
2.975878700E0,-6.387698650E-2,-3.284692764E-2,-4.601764679E-2,8.530424302E-2
2.980860263E0,-3.377592564E-2,-2.504587173E-2,5.877685547E-2,7.226913298E-2
2.985841877E0,-1.306283474E-2,-1.501846313E-2,1.508378983E-1,1.521455337E-1
2.990823492E0,3.621727228E-2,-7.549762726E-3,1.685247421E-1,1.725377595E-1
2.995757554E0,8.535492420E-2,9.150028229E-3,1.315174103E-1,1.570541795E-1
3.000737763E0,5.107939243E-2,-6.642341614E-4,1.258192062E-1,1.357940286E-1
3.005717971E0,-2.092224360E-2,-2.003049850E-2,3.709602356E-2,4.706459509E-2
3.010698232E0,-2.818745375E-2,-2.730512619E-2,-9.367561340E-2,1.015638864E-1
3.015678440E0,-1.419639587E-2,-1.770544052E-2,-1.878089905E-1,1.891751495E-1
3.020658648E0,4.318773746E-3,-7.966518402E-3,-2.100009918E-1,2.101964172E-1
3.025613023E0,2.271050215E-2,-2.897214890E-2,-2.012434006E-1,2.045826449E-1
3.030593232E0,3.178733587E-2,-4.244184494E-2,-1.048154831E-1,1.174650179E-1
3.035573440E0,3.183543682E-2,-4.619789124E-2,-3.304290771E-2,6.511201074E-2
3.040553700E0,2.041643858E-2,-8.303499222E-2,2.376937866E-2,8.875034794E-2
3.045533909E0,1.409220695E-2,-5.313158035E-2,5.162620544E-2,7.541100859E-2
3.050514117E0,7.731735706E-3,-4.486370087E-2,1.274681091E-2,4.727591967E-2
3.055462867E0,8.316695690E-3,-3.365993500E-3,5.068778992E-3,1.030484643E-2
3.060443075E0,8.557438850E-3,2.015590668E-3,5.694293976E-2,5.761762537E-2
3.065423284E0,-2.732163668E-2,3.800821304E-2,4.915523529E-2,6.787733971E-2
3.070403544E0,-6.580811739E-2,2.600955963E-2,4.869651794E-2,8.589852366E-2
3.075383752E0,-9.724301100E-2,-2.737045288E-3,4.601383209E-2,1.076149030E-1
3.080363961E0,-3.371971846E-2,-3.132963181E-2,2.917003632E-2,5.449271750E-2
3.085263388E0,-1.105976105E-2,-1.218128204E-2,5.997753143E-2,6.219329726E-2
3.090243596E0,5.670803785E-2,-2.891969681E-2,5.968475342E-2,8.726064526E-2
3.095223804E0,6.726938486E-2,-3.830718994E-2,4.506778717E-2,8.957519959E-2
3.100204065E0,5.666059256E-2,-3.317594528E-2,-7.558822632E-3,6.609237395E-2
3.105184273E0,8.931726217E-2,5.439281464E-3,-5.285263062E-3,8.963868088E-2
3.110164482E0,7.017946243E-2,1.057624817E-3,1.586914062E-2,7.195905184E-2
3.115159169E0,6.342846155E-2,2.288770676E-2,8.291244507E-3,6.793939646E-2
3.120139377E0,7.124489546E-2,2.336645126E-2,5.393981934E-3,7.517260947E-2
3.125119586E0,5.738908052E-2,-2.250194550E-3,-4.261589050E-2,7.151701939E-2
3.130099846E0,1.019144058E-2,-1.565599442E-2,-9.502601624E-2,9.684482115E-2
3.135080054E0,-1.331812143E-2,-4.082727432E-2,-1.137056351E-1,1.215450951E-1
3.140060263E0,-4.655122757E-2,-4.924488068E-2,-5.138301849E-2,8.504286949E-2
3.145006304E0,-2.286267281E-2,-3.379011154E-2,-3.946208954E-2,5.676028503E-2
3.149986513E0,-1.401495934E-2,-4.455375671E-2,-7.989406586E-2,9.254468154E-2
3.154966721E0,-9.846681356E-2,-5.736207962E-2,-1.105699539E-1,1.587823550E-1
3.159946982E0,-1.872969568E-1,-6.725263596E-2,-2.124614716E-1,2.911064135E-1
3.164927190E0,-1.422213316E-1,-9.322166443E-2,-1.712293625E-1,2.413227724E-1
3.169907398E0,-4.456895590E-2,-9.741067886E-2,-9.340286255E-3,1.075289409E-1
3.174856929E0,3.368264437E-2,-9.920215607E-2,6.565570831E-2,1.236376170E-1
3.179837138E0,3.337097168E-2,-1.105632782E-1,9.252262115E-2,1.479807273E-1
3.184817346E0,-3.565001488E-2,-1.102137566E-1,1.216659546E-1,1.679898812E-1
3.189797607E0,-7.351714373E-2,-7.216930389E-2,6.998729706E-2,1.245447735E-1
3.194777815E0,-9.504157305E-2,-9.642934799E-2,2.128028870E-2,1.370560850E-1
3.199758023E0,-7.909607887E-2,-8.754062653E-2,-2.442455292E-2,1.204828194E-1
3.204703440E0,-3.072345257E-2,-6.946325302E-2,-3.050804138E-3,7.601566591E-2
3.209683648E0,4.751908779E-2,-1.842641830E-2,-1.023483276E-2,5.198411678E-2
3.214663857E0,8.461678028E-2,1.078748703E-2,1.591777802E-2,8.677410350E-2
3.219644117E0,8.591043949E-2,3.496074677E-2,7.037353516E-2,1.164271956E-1
3.224624325E0,7.824647427E-2,1.379013062E-2,1.219606400E-1,1.455578103E-1
3.229604534E0,7.373720407E-2,3.340625763E-2,1.254310608E-1,1.492853118E-1
3.234552971E0,8.195519447E-2,5.070447922E-2,1.643228531E-1,1.904982891E-1
3.239533179E0,8.865427971E-2,8.912944794E-2,1.838703156E-1,2.227373627E-1
3.244513388E0,4.825299978E-2,7.276773453E-2,1.841239929E-1,2.037771821E-1
3.249493648E0,-4.395925999E-2,4.709005356E-2,1.700859070E-1,1.818766215E-1
3.254473857E0,-1.236201525E-1,5.000257492E-2,1.253585815E-1,1.830217844E-1
3.259454065E0,-1.150258780E-1,4.791975021E-2,1.500368118E-1,1.950340995E-1
3.264400679E0,-7.841968536E-2,3.134346008E-2,9.628582001E-2,1.280742702E-1
3.269380888E0,-6.608277559E-2,1.961708069E-2,8.577919006E-2,1.100446843E-1
3.274361096E0,-7.046300173E-2,2.432012558E-2,7.076454163E-2,1.027819219E-1
3.279341357E0,-1.297467947E-2,-1.651716232E-2,6.081295013E-2,6.433796595E-2
3.284321565E0,-2.958774567E-2,-4.833698273E-3,6.523895264E-2,7.179777346E-2
3.289301773E0,-1.047545671E-2,-3.372383118E-2,2.454662323E-2,4.300661222E-2
3.294254273E0,-1.536887884E-2,4.006385803E-3,3.415679932E-2,3.766882668E-2
3.299234482E0,-5.589962006E-2,4.867696762E-2,4.124832153E-2,8.482711081E-2
3.304214690E0,-7.736778259E-2,3.615427017E-2,8.858489990E-2,1.230454775E-1
3.309194950E0,-6.080639362E-2,4.040002823E-2,9.038734436E-2,1.161871413E-1
3.314175159E0,-4.693830013E-2,5.176782608E-2,1.135501862E-1,1.333295039E-1
3.319155367E0,-5.437612534E-2,3.931760788E-2,1.079835892E-1,1.271341529E-1
3.324100263E0,-2.122032642E-2,1.265811920E-2,1.119842529E-1,1.146778232E-1
3.329080471E0,-4.526036978E-2,-1.155853271E-2,8.514499664E-2,9.711730641E-2
3.334060679E0,-1.478236914E-1,-5.012798309E-2,1.323556900E-1,2.046526010E-1
3.339040940E0,-1.452446580E-1,-6.031656265E-2,1.057863235E-1,1.895385044E-1
3.344021148E0,-7.663899660E-2,-7.324266434E-2,5.358028412E-2,1.187807666E-1
3.349001357E0,-3.478205204E-2,-5.787801743E-2,9.109497070E-3,6.813691351E-2
3.353946929E0,-2.538442612E-3,-7.587862015E-2,-7.777881622E-2,1.086901695E-1
3.358927138E0,-3.414452076E-3,-5.787754059E-2,-1.830959320E-1,1.920562118E-1
3.363907346E0,-3.472769260E-2,-8.474254608E-2,-2.759122849E-1,2.907144659E-1
3.368887607E0,-5.560988188E-2,-8.702373505E-2,-2.994375229E-1,3.167466172E-1
3.373867815E0,-2.347314358E-2,-9.816026688E-2,-3.088912964E-1,3.249619354E-1
3.378848023E0,-3.413087130E-2,-6.324625015E-2,-3.139686584E-1,3.220889986E-1
3.383797607E0,-6.361639500E-2,-2.566480637E-2,-3.193178177E-1,3.266031180E-1
3.388777815E0,-6.874972582E-2,-7.321119308E-2,-2.775125504E-1,2.951264461E-1
3.393758023E0,-3.075283766E-2,-9.150123596E-2,-1.151142120E-1,1.502314715E-1
3.398738284E0,2.819579840E-2,-1.166849136E-1,-3.724575043E-2,1.256885756E-1
3.403718492E0,-3.983616829E-3,-1.135272980E-1,1.644706726E-2,1.147816301E-1
3.408698700E0,-4.620516300E-2,-8.453798294E-2,6.514930725E-2,1.163014182E-1
3.413653023E0,-6.974202394E-2,-9.882402420E-2,5.900573730E-2,1.345801423E-1
3.418633232E0,-5.099415779E-2,-8.461046219E-2,8.629131317E-2,1.311698333E-1
3.423595471E0,-6.137055159E-2,-4.455947876E-2,1.134786606E-1,1.364891870E-1
3.428575679E0,-5.063277483E-2,-2.877283096E-2,1.286821365E-1,1.412467555E-1
3.433555888E0,-4.533946514E-3,-3.900051117E-3,1.795558929E-1,1.796554640E-1
3.438536148E0,2.923446894E-2,-5.599498749E-3,2.135066986E-1,2.155716097E-1
3.443516357E0,4.376298189E-2,1.386451721E-2,2.187843323E-1,2.235486691E-1
3.448496565E0,8.419990540E-3,2.334833145E-2,2.598075867E-1,2.609904652E-1
3.453476773E0,2.608817816E-2,3.487300873E-2,2.388229370E-1,2.427614364E-1
3.458420107E0,1.807904243E-2,2.009487152E-2,1.942481995E-1,1.961199088E-1
3.463400315E0,2.742922306E-2,2.673006058E-2,9.540271759E-2,1.028033897E-1
3.468380523E0,5.386054516E-2,-7.024765015E-3,4.007148743E-2,6.749836852E-2
3.473360784E0,4.492497444E-2,-4.683494568E-3,5.158233643E-2,6.856329835E-2
3.478340992E0,4.365712404E-2,4.841804504E-3,7.954883575E-2,9.087026368E-2
3.483321200E0,2.040088177E-3,1.675271988E-2,5.734729767E-2,5.977899408E-2
3.488267294E0,-8.701503277E-3,-2.047061920E-3,-4.158020020E-4,8.948715723E-3
3.493247502E0,1.075053215E-2,2.705430984E-2,-7.448196411E-4,2.912154493E-2
3.498227711E0,1.272064447E-2,2.260160446E-2,9.403324127E-2,9.754433753E-2
3.503207971E0,-1.436275244E-2,3.243589401E-2,1.334285736E-1,1.380636090E-1
3.508188179E0,1.064938307E-2,3.501176834E-2,1.440467834E-1,1.486227072E-1
3.513168388E0,2.115339041E-2,8.828163147E-3,1.903343201E-1,1.917095610E-1
3.518119221E0,1.280069351E-2,-2.202033997E-2,2.434129715E-1,2.447419617E-1
3.523099429E0,3.107821941E-2,-4.099893570E-2,2.510185242E-1,2.562363517E-1
3.528079638E0,4.973667860E-2,-5.073738098E-2,2.183542252E-1,2.296227050E-1
3.533059898E0,3.286218643E-2,-5.140590668E-2,1.648302078E-1,1.757597450E-1
3.538040107E0,-1.014357805E-2,-5.695152283E-2,6.194591522E-2,8.475650147E-2
3.543020315E0,-6.513589621E-2,-8.409357071E-2,-1.852607727E-2,1.079705013E-1
3.547874013E0,-4.397886992E-2,-6.839656830E-2,-6.021595001E-2,1.011839522E-1
3.552854221E0,-1.610070467E-2,-4.574203491E-2,-1.252737045E-1,1.343319303E-1
3.557834429E0,4.394352436E-3,-7.306528091E-2,-1.518287659E-1,1.685521277E-1
3.562814690E0,8.457642794E-2,-9.049558640E-2,-1.711597443E-1,2.112777352E-1
3.567794898E0,7.174843550E-2,-1.074218750E-1,-1.881666183E-1,2.282410425E-1
3.572775107E0,4.987764359E-2,-9.292697906E-2,-2.907876968E-1,3.093229500E-1
3.577815002E0,4.244351387E-2,-8.526611328E-2,-3.832693100E-1,3.949267349E-1
3.582795211E0,-1.262319088E-2,-9.388685226E-2,-4.134159088E-1,4.241306398E-1
3.587775419E0,-6.026250124E-2,-1.259255409E-1,-3.840494156E-1,4.086352463E-1
3.592755679E0,-4.364454746E-2,-1.858730316E-1,-3.170709610E-1,3.701183928E-1
3.597735888E0,-2.236771584E-2,-2.095036507E-1,-2.578773499E-1,3.330057386E-1
3.602716096E0,-3.191709518E-2,-2.355055809E-1,-1.302042007E-1,2.709884010E-1
3.607663075E0,-3.656899929E-2,-2.092518806E-1,-5.812072754E-2,2.202309248E-1
3.612643284E0,-3.149878979E-2,-2.164630890E-1,1.571750641E-2,2.193068231E-1
3.617623492E0,2.851355076E-2,-2.144389153E-1,9.383487701E-2,2.358008802E-1
3.622603752E0,7.875871658E-2,-2.248315811E-1,1.192932129E-1,2.664264363E-1
3.627583961E0,1.048583388E-1,-2.546687126E-1,9.492778778E-2,2.913120480E-1
3.632564169E0,7.336038351E-2,-2.731709480E-1,4.693031311E-3,2.828889133E-1
3.637511669E0,1.057767868E-2,-2.709574699E-1,-1.056880951E-1,2.910323199E-1
3.642491877E0,-3.570353985E-2,-3.123602867E-1,-1.718959808E-1,3.583181822E-1
3.647472086E0,-1.009519100E-1,-3.542361259E-1,-3.036098480E-1,4.773399846E-1
3.652452346E0,-1.067588925E-1,-3.891153336E-1,-5.123262405E-1,6.521398475E-1
3.657432554E0,-7.457965612E-2,-4.001169205E-1,-7.690911293E-1,8.701475969E-1
3.662412763E0,-3.083729744E-2,-4.178652763E-1,-9.739747047E-1,1.060277819E0
3.667362450E0,1.760441065E-2,-4.160671234E-1,-1.058603287E0,1.137568761E0
3.672342659E0,3.535115719E-2,-4.469261169E-1,-1.145271778E0,1.229894347E0
3.677322867E0,3.923165798E-2,-4.600892067E-1,-1.179425240E0,1.266595870E0
3.682303127E0,7.195574045E-2,-4.606738091E-1,-1.158998013E0,1.249269539E0
3.687283336E0,8.319169283E-2,-4.369134903E-1,-1.148565769E0,1.231672676E0
3.692263544E0,6.576067209E-2,-4.295706749E-1,-1.088543892E0,1.172084995E0
3.697201825E0,3.865998983E-2,-4.460420609E-1,-1.038499355E0,1.130897443E0
3.702182034E0,-3.369867802E-2,-4.694995880E-1,-1.031604290E0,1.133919254E0
3.707162242E0,-8.211582899E-2,-4.807691574E-1,-1.020040989E0,1.130648315E0
3.712142502E0,-6.619727612E-2,-5.179724693E-1,-1.075125694E0,1.195229190E0
3.717122711E0,-9.819984436E-3,-5.713615417E-1,-1.065700531E0,1.209242765E0
3.722102919E0,8.394956589E-3,-6.143865585E-1,-1.051849365E0,1.218166001E0
3.727058909E0,-6.483912468E-3,-6.161551476E-1,-1.064542770E0,1.230016470E0
3.732039117E0,-6.108182669E-2,-6.054878235E-1,-1.053709030E0,1.216819302E0
3.737019325E0,-1.078987122E-1,-6.134052277E-1,-1.036124706E0,1.208909638E0
3.741999586E0,-1.258748174E-1,-5.516135693E-1,-1.021455765E0,1.167687406E0
3.746979794E0,-1.315151453E-1,-5.345029831E-1,-9.884428978E-1,1.131374843E0
3.751960002E0,-2.948474884E-2,-5.167779922E-1,-8.278861046E-1,9.763832474E-1
3.756905523E0,8.476972580E-4,-5.581283569E-1,-7.259550095E-1,9.157066436E-1
3.761885732E0,-4.718637466E-2,-5.703675747E-1,-6.677904129E-1,8.794826660E-1
3.766865940E0,-3.511148691E-2,-5.588114262E-1,-6.100997925E-1,8.280850097E-1
3.771846200E0,2.186948061E-2,-5.262663364E-1,-5.147113800E-1,7.364525346E-1
3.776826409E0,1.871645451E-3,-4.920527935E-1,-5.029888153E-1,7.036456516E-1
3.781806617E0,-9.268105030E-3,-4.894571304E-1,-4.482975006E-1,6.637957738E-1
3.786753648E0,-3.759825230E-2,-4.709439278E-1,-3.603868484E-1,5.942057659E-1
3.791733857E0,9.723126888E-3,-4.315671921E-1,-3.632383347E-1,5.641691841E-1
3.796714065E0,1.543277502E-2,-4.262232780E-1,-3.776397705E-1,5.696632774E-1
3.801694325E0,5.134570599E-2,-4.141497612E-1,-3.441724777E-1,5.409353942E-1
3.806674534E0,1.173295975E-1,-3.856124878E-1,-3.631696701E-1,5.425453294E-1
3.811654742E0,1.375230551E-1,-3.359603882E-1,-3.439750671E-1,5.001008098E-1
3.816570523E0,1.198877096E-1,-2.960352898E-1,-3.345689774E-1,4.625433561E-1
3.821550732E0,7.919889688E-2,-2.799544334E-1,-3.349142075E-1,4.436377762E-1
3.826530940E0,6.105911732E-2,-2.566528320E-1,-3.283195496E-1,4.211800311E-1
3.831511200E0,5.571150780E-2,-2.358312607E-1,-3.242664337E-1,4.048072080E-1
3.836491409E0,8.223789930E-2,-2.105908394E-1,-3.226203918E-1,3.939485892E-1
3.841471617E0,7.842540741E-2,-2.404756546E-1,-3.137826920E-1,4.030368007E-1
3.846453596E0,4.642754793E-2,-2.587604523E-1,-3.190240860E-1,4.133870539E-1
3.851433804E0,-1.378989220E-2,-3.011388779E-1,-3.857326508E-1,4.895553725E-1
3.856414013E0,-1.196968555E-2,-3.080539703E-1,-4.729738235E-1,5.645748487E-1
3.861394273E0,3.659546375E-3,-3.343524933E-1,-4.998369217E-1,6.013667187E-1
3.866374482E0,-2.165585756E-2,-3.823299408E-1,-5.047912598E-1,6.336082194E-1
3.871354690E0,-2.329885960E-2,-4.040341377E-1,-5.119223595E-1,6.525725427E-1
3.876301669E0,-3.476846218E-2,-4.280087948E-1,-5.521821976E-1,6.995037910E-1
3.881281877E0,-3.686583042E-2,-4.494900703E-1,-5.611634254E-1,7.199338878E-1
3.886262086E0,-1.527976990E-2,-4.328720570E-1,-6.032738686E-1,7.426648299E-1
3.891242346E0,-1.063627005E-2,-4.449429512E-1,-6.687550545E-1,8.033185439E-1
3.896222554E0,-6.209850311E-3,-4.260299206E-1,-7.431774139E-1,8.566520437E-1
3.901202763E0,-2.328735590E-2,-3.929386139E-1,-8.193902969E-1,9.090343855E-1
3.906150784E0,-7.370096445E-2,-4.146912098E-1,-9.139895439E-1,1.006368480E0
3.911130992E0,-9.053003788E-2,-4.242582321E-1,-1.003106594E0,1.092892298E0
3.916111200E0,-5.513566732E-2,-4.358012676E-1,-1.001361370E0,1.093474865E0
3.921091461E0,-1.770246029E-2,-4.184813499E-1,-9.855074883E-1,1.070824461E0
3.926071669E0,-4.937857389E-2,-4.127547741E-1,-1.005650520E0,1.088180921E0
3.931051877E0,-6.889247894E-2,-4.375472069E-1,-1.061473370E0,1.150182353E0
3.935962607E0,-7.639765739E-2,-4.568989277E-1,-1.052939892E0,1.150337189E0
3.940941617E0,-4.346674681E-2,-4.660091400E-1,-1.013893127E0,1.116706385E0
3.945920679E0,3.640174866E-3,-4.247498512E-1,-9.065103531E-1,1.001092757E0
3.950899794E0,2.477872372E-2,-4.167509079E-1,-7.432336807E-1,8.524620863E-1
3.955878804E0,-3.190129995E-2,-4.228525162E-1,-5.577392578E-1,7.006390105E-1
3.960857867E0,-4.963988066E-2,-4.289367199E-1,-4.260745049E-1,6.066220496E-1
3.965849325E0,-9.325104952E-2,-4.375953674E-1,-3.714036942E-1,5.814861717E-1
3.970828388E0,-1.248033047E-1,-4.202613831E-1,-3.574447632E-1,5.656520606E-1
3.975807450E0,-1.659715772E-1,-4.010381699E-1,-4.051585197E-1,5.937437193E-1
3.980786513E0,-2.144960165E-1,-3.299343586E-1,-4.190526009E-1,5.748654663E-1
3.985765627E0,-1.801582575E-1,-2.785849571E-1,-4.374408722E-1,5.490182991E-1
3.990744638E0,-8.005547523E-2,-2.586226463E-1,-4.270911217E-1,5.056692383E-1
3.995664117E0,-4.510551691E-2,-2.198462486E-1,-3.692879677E-1,4.321347981E-1
4.000643127E0,1.335817575E-2,-1.907916069E-1,-3.357791901E-1,3.864292207E-1
4.005622190E0,3.354781866E-2,-1.523523331E-1,-2.907552719E-1,3.299626004E-1
4.010601252E0,8.711493015E-2,-1.352729797E-1,-2.961921692E-1,3.370720860E-1
4.015580315E0,1.072008014E-1,-7.044506073E-2,-2.922954559E-1,3.192039347E-1
4.020559377E0,9.140115976E-2,-4.620456696E-2,-2.410860062E-1,2.619379629E-1
4.025548075E0,3.987872601E-2,-5.286788940E-2,-1.737461090E-1,1.859382610E-1
4.030527138E0,-4.966300726E-2,-4.270458221E-2,-6.661796570E-2,9.342402788E-2
4.035506200E0,-1.218962669E-1,-3.244590759E-2,1.274261475E-1,1.793010314E-1
4.040485211E0,-5.565631390E-2,6.086826324E-3,3.341751099E-1,3.388328183E-1
4.045464273E0,3.878116608E-2,3.210306168E-2,5.298433304E-1,5.322297814E-1
4.050443336E0,9.262132645E-2,7.165670395E-2,6.433181763E-1,6.538896461E-1
4.055397398E0,9.443485737E-2,9.840679169E-2,7.394647598E-1,7.519374774E-1
4.060376409E0,5.129814148E-2,1.027202606E-1,7.164430618E-1,7.255850137E-1
4.065355471E0,1.349097490E-2,4.203510284E-2,6.797609329E-1,6.811929846E-1
4.070334586E0,7.212698460E-3,3.309822083E-2,6.011152267E-1,6.020689587E-1
4.075313648E0,1.524144411E-2,-5.879402161E-4,4.595317841E-1,4.597848495E-1
4.080292659E0,3.743326664E-2,-1.581764221E-2,2.744188309E-1,2.774115030E-1
4.085224950E0,1.653951406E-2,-4.807949066E-2,3.649425507E-2,6.258612946E-2
4.090203961E0,1.223611832E-2,-9.942960739E-2,-2.039957047E-1,2.272668408E-1
4.095183075E0,3.869527578E-2,-1.290988922E-1,-3.853883743E-1,4.082744756E-1
4.100162138E0,5.782967806E-2,-1.420693398E-1,-5.081644058E-1,5.308097892E-1
4.105141200E0,6.019937992E-2,-1.642661095E-1,-6.442551613E-1,6.675867231E-1
4.110120211E0,6.714910269E-2,-2.004137039E-1,-7.127413750E-1,7.434210935E-1
4.115090732E0,5.228912830E-2,-1.885299683E-1,-8.163671494E-1,8.394837845E-1
4.120069794E0,1.322644949E-2,-2.284812927E-1,-8.528313637E-1,8.830062146E-1
4.125048857E0,-2.599418163E-2,-2.773714066E-1,-8.558077812E-1,9.000097516E-1
4.130027971E0,-4.871910810E-2,-3.232514858E-1,-8.160758018E-1,8.791159133E-1
4.135006982E0,-2.635943890E-2,-3.329346180E-1,-7.719950676E-1,8.411400979E-1
4.139986044E0,1.233601570E-2,-3.401627541E-1,-7.235183716E-1,7.995884632E-1
4.144941148E0,1.231974363E-2,-3.330166340E-1,-7.205758095E-1,7.939026085E-1
4.149920263E0,-4.212582111E-2,-3.164319992E-1,-7.319254875E-1,7.985103094E-1
4.154899325E0,-8.864665031E-2,-3.614537716E-1,-8.075032234E-1,8.891391980E-1
4.159878336E0,-5.612736940E-2,-4.127728939E-1,-8.708310127E-1,9.653384879E-1
4.164857398E0,2.666354179E-3,-3.682012558E-1,-8.721332550E-1,9.466761266E-1
4.169836461E0,2.570706606E-2,-3.353948593E-1,-8.523302078E-1,9.163063615E-1
4.174789742E0,2.059513330E-2,-3.141303062E-1,-8.639388084E-1,9.195065381E-1
4.179768804E0,4.148066044E-3,-3.326947689E-1,-8.212418556E-1,8.860819382E-1
4.184747867E0,1.895946264E-2,-3.054952621E-1,-7.411603928E-1,8.018762649E-1
4.189726982E0,2.425241470E-2,-2.946276665E-1,-6.786575317E-1,7.402497463E-1
4.194705992E0,2.954792976E-2,-2.906036377E-1,-5.646128654E-1,6.356974455E-1
4.199685054E0,-1.022881269E-2,-3.005597591E-1,-4.065518379E-1,5.056927865E-1
4.204630419E0,-5.907905102E-2,-2.677102089E-1,-2.806782722E-1,3.923510962E-1
4.209609482E0,-1.122686267E-1,-3.136801720E-1,-1.035118103E-1,3.488756078E-1
4.214588544E0,-7.245713472E-2,-2.859637737E-1,-3.654479980E-3,2.950231711E-1
4.219567607E0,-9.438276291E-3,-2.658658028E-1,5.039119720E-2,2.707636957E-1
4.224546669E0,-1.145285368E-2,-2.177705765E-1,1.089477539E-1,2.437720347E-1
4.229525732E0,-5.901741982E-2,-1.679687500E-1,9.117794037E-2,2.000249325E-1
4.234487450E0,-8.292710781E-2,-1.236329079E-1,1.165151596E-1,1.890443957E-1
4.239466513E0,-8.785372972E-2,-1.013851166E-1,8.007144928E-2,1.562327004E-1
4.244445575E0,-8.595943451E-2,-1.220822334E-1,6.771755219E-2,1.639474397E-1
4.249424638E0,-8.438432217E-2,-1.166062355E-1,8.881950378E-2,1.691349527E-1
4.254403700E0,-2.336812019E-2,-6.613063812E-2,5.752468109E-2,9.071063485E-2
4.259382763E0,-5.228400230E-3,-4.221439362E-2,4.071331024E-2,5.888093773E-2
4.264335992E0,3.237825632E-2,-4.464960098E-2,3.587532043E-2,6.579496156E-2
4.269315107E0,2.255171537E-2,-2.341318130E-2,-9.285926819E-3,3.380806652E-2
4.274294117E0,1.749235392E-2,-1.660346985E-2,-3.506374359E-2,4.255729986E-2
4.279273179E0,5.153417587E-4,4.336357117E-3,-8.196449280E-2,8.208073860E-2
4.284252242E0,-4.741072655E-3,3.686952591E-2,-1.663990021E-1,1.705006381E-1
4.289231304E0,-1.744920015E-2,2.373981476E-2,-1.977024078E-1,1.998857060E-1
4.294184377E0,-2.550780773E-2,2.725172043E-2,-2.263002396E-1,2.293580235E-1
4.299163492E0,-2.626866102E-2,2.834987640E-2,-2.380356789E-1,2.411529441E-1
4.304142502E0,-2.205342054E-2,-2.283048630E-2,-2.496891022E-1,2.516986933E-1
4.309121617E0,-1.506459713E-2,-6.174993515E-2,-2.612609863E-1,2.688815716E-1
4.314100679E0,-7.638633251E-3,-1.144127846E-1,-2.277417183E-1,2.549802428E-1
4.319079690E0,-9.216248989E-3,-1.187715530E-1,-1.828594208E-1,2.182411254E-1
4.324033232E0,-1.960009336E-2,-1.229972839E-1,-8.857631683E-2,1.528340912E-1
4.329012294E0,-3.415012360E-2,-1.153283119E-1,4.885673523E-3,1.203774077E-1
4.333991409E0,-4.350948334E-2,-1.340436935E-1,6.913471222E-2,1.569725943E-1
4.338970471E0,-5.512648821E-2,-1.243405342E-1,6.170463562E-2,1.493551479E-1
4.343949482E0,-8.839821815E-2,-1.388869286E-1,-5.245208740E-5,1.646323985E-1
4.348928544E0,-1.363207102E-1,-1.823606491E-1,-1.037111282E-1,2.501894092E-1
4.353883596E0,-1.416944265E-1,-2.235102654E-1,-2.228646278E-1,3.459809121E-1
4.358862659E0,-1.478021741E-1,-2.407732010E-1,-3.622260094E-1,4.593744647E-1
4.363841721E0,-9.526711702E-2,-2.103481293E-1,-5.193758011E-1,5.683954449E-1
4.368820836E0,-3.217571974E-2,-2.083830833E-1,-6.539144516E-1,6.870683346E-1
4.373799846E0,1.524567604E-3,-1.631817818E-1,-7.067866325E-1,7.253812530E-1
4.378778909E0,3.231716156E-2,-1.532797813E-1,-7.761950493E-1,7.918445838E-1
4.383732138E0,5.093079805E-2,-1.545376778E-1,-7.741708755E-1,7.910855735E-1
4.388711200E0,2.195549011E-2,-1.906948090E-1,-7.131586075E-1,7.385402854E-1
4.393690263E0,4.356384277E-2,-1.902847290E-1,-5.437512398E-1,5.777296057E-1
4.398669325E0,9.658688307E-2,-1.729187965E-1,-3.878703117E-1,4.355149996E-1
4.403648388E0,1.356247663E-1,-1.461997032E-1,-1.882147789E-1,2.742138462E-1
4.408627450E0,1.369318366E-1,-1.079621315E-1,-3.534126282E-2,1.779189551E-1
4.413579221E0,7.926625013E-2,-1.179027557E-1,5.938911438E-2,1.539846263E-1
4.418558284E0,-1.321107149E-2,-1.045341492E-1,1.131916046E-1,1.546423619E-1
4.423537346E0,-4.063236713E-2,-1.774644852E-1,1.074914932E-1,2.114215076E-1
4.428516409E0,-5.126708746E-2,-2.054405212E-1,6.424903870E-2,2.212737241E-1
4.433495523E0,-2.858161926E-2,-1.815900803E-1,-4.479789734E-2,1.892054910E-1
4.438474534E0,-1.446247101E-3,-2.010645866E-1,-1.669883728E-1,2.613698075E-1
4.443427659E0,-5.041182041E-2,-1.967267990E-1,-3.189992905E-1,3.781578142E-1
4.448405940E0,-3.260147572E-2,-1.967535019E-1,-4.628243446E-1,5.039654460E-1
4.453384221E0,1.093894243E-2,-1.463584900E-1,-5.439429283E-1,5.633954005E-1
4.458362502E0,-2.934455872E-2,-1.265120506E-1,-5.606102943E-1,5.754566050E-1
4.463340784E0,-6.002318859E-2,-1.345782280E-1,-5.656366348E-1,5.845159410E-1
4.468319065E0,-7.636225224E-2,-1.370205879E-1,-4.736299515E-1,4.989300212E-1
4.473242034E0,-5.936586857E-2,-1.151194572E-1,-3.826808929E-1,4.040067594E-1
4.478220315E0,2.493858337E-4,-8.333778381E-2,-3.022828102E-1,3.135604340E-1
4.483198596E0,4.756510258E-3,-8.250951767E-2,-1.822743416E-1,2.001359051E-1
4.488176877E0,1.873183250E-2,-5.323982239E-2,-7.511138916E-2,9.395254663E-2
4.493155159E0,-4.353445768E-2,-2.446699142E-2,5.505466461E-2,7.432966279E-2
4.498133440E0,-7.457304001E-2,-5.824613571E-2,1.393032074E-1,1.684017049E-1
4.503126929E0,-5.324572325E-2,-7.332372665E-2,1.994132996E-1,2.190368462E-1
4.508105211E0,-4.181224108E-2,-9.595346451E-2,2.712049484E-1,2.907016596E-1
4.513083492E0,-5.451232195E-2,-9.534835815E-2,2.667770386E-1,2.885011108E-1
4.518061773E0,-5.065602064E-2,-7.873106003E-2,2.270860672E-1,2.456271446E-1
4.523040054E0,-3.988325596E-3,-8.146286011E-2,1.498165131E-1,1.705786971E-1
4.528018336E0,2.568382025E-2,-8.434677124E-2,1.041622162E-1,1.364690577E-1
4.532975575E0,4.597359896E-2,-7.778167725E-2,8.740139008E-2,1.257082499E-1
4.537953857E0,4.546046257E-4,-8.561897278E-2,1.562690735E-1,1.781876497E-1
4.542932138E0,2.272981405E-2,-8.864021301E-2,2.173547745E-1,2.358322069E-1
4.547910419E0,2.643918991E-2,-3.726768494E-2,1.734914780E-1,1.794079263E-1
4.552888700E0,6.576716900E-3,-1.971006393E-2,6.827735901E-2,7.136902394E-2
4.557866982E0,-3.933542967E-2,-7.153987885E-2,-8.337974548E-2,1.166936684E-1
4.562824794E0,-6.141728163E-2,-8.987617493E-2,-2.098870277E-1,2.364368282E-1
4.567803075E0,-5.773788691E-2,-1.223993301E-1,-3.423695564E-1,3.681469445E-1
4.572781357E0,-2.140933275E-2,-1.333179474E-1,-4.380388260E-1,4.583776257E-1
4.577759638E0,2.379477024E-3,-1.273627281E-1,-5.828433037E-1,5.966014105E-1
4.582737919E0,-5.294919014E-3,-1.066117287E-1,-6.839551926E-1,6.922346440E-1
4.587716148E0,1.766133308E-2,-8.545398712E-2,-7.393631935E-1,7.444946195E-1
4.592673752E0,3.324109316E-2,-1.041750908E-1,-7.614030838E-1,7.692152338E-1
4.597652034E0,5.592620373E-2,-1.076545715E-1,-6.554245949E-1,6.665573093E-1
4.602630315E0,6.430149078E-2,-1.151895523E-1,-5.483145714E-1,5.639611546E-1
4.607608544E0,1.822757721E-2,-1.318745613E-1,-3.995132446E-1,4.211104097E-1
4.612586825E0,-4.165464640E-2,-1.364030838E-1,-2.258982658E-1,2.671533967E-1
4.617565107E0,-2.260649204E-2,-1.645917892E-1,-9.414768219E-2,1.909588873E-1
4.622522034E0,-3.697514534E-3,-1.547441483E-1,8.649826050E-2,1.773171512E-1
4.627500315E0,-2.508181334E-2,-1.905531883E-1,2.254610062E-1,2.962638693E-1
4.632478596E0,-3.908348083E-2,-1.839537621E-1,2.709531784E-1,3.298213606E-1
4.637456877E0,-3.861314058E-2,-1.470193863E-1,3.258152008E-1,3.595291638E-1
4.642435159E0,-4.279184341E-2,-1.371178627E-1,3.567657471E-1,3.845962148E-1
4.647413440E0,-1.132661104E-2,-1.350526810E-1,3.022680283E-1,3.312604408E-1
4.652335575E0,-6.597816944E-3,-1.310191154E-1,1.605634689E-1,2.073407036E-1
4.657313857E0,1.694607735E-2,-1.058778763E-1,-5.953788757E-3,1.073906040E-1
4.662292138E0,3.569453955E-2,-1.189231873E-1,-1.307272911E-1,1.802954499E-1
4.667270419E0,5.191278458E-2,-9.122705460E-2,-2.783470154E-1,2.974800391E-1
4.672248700E0,9.897047281E-2,-8.237028122E-2,-4.035706520E-1,4.236145523E-1
4.677226982E0,1.051092744E-1,-4.930496216E-2,-5.256371498E-1,5.383060023E-1
4.682220211E0,6.818652153E-2,-7.053756714E-2,-6.042246819E-1,6.121375795E-1
4.687198492E0,3.847038746E-2,-7.697534561E-2,-6.229395866E-1,6.288552323E-1
4.692176773E0,-2.917629480E-2,-6.634855270E-2,-5.252804756E-1,5.302574513E-1
4.697155054E0,-3.915888071E-2,-1.172423363E-1,-4.547486305E-1,4.712488730E-1
4.702133336E0,-3.941017389E-2,-1.628227234E-1,-3.350038528E-1,3.745557135E-1
4.707111617E0,-6.318199635E-2,-1.081194878E-1,-2.519807816E-1,2.813824845E-1
4.712069065E0,-8.910965919E-2,-9.175395966E-2,-2.053494453E-1,2.419250197E-1
4.717047346E0,-9.348905087E-2,-7.079601288E-2,-1.519637108E-1,1.919511591E-1
4.722025627E0,-7.891440392E-2,-5.730152130E-2,-1.341056824E-2,9.844181443E-2
4.727003909E0,-2.897775173E-2,-4.879426956E-2,1.216907501E-1,1.342729664E-1
4.731982190E0,4.662740231E-2,-5.480718613E-2,2.058868408E-1,2.180993662E-1
4.736960471E0,5.033820868E-2,-5.636596680E-2,3.109426498E-1,3.199943577E-1
4.741915367E0,1.619988680E-2,-5.819797516E-2,4.010019302E-1,4.055268039E-1
4.746893648E0,-1.761561632E-2,-3.188228607E-2,3.931045532E-1,3.947885255E-1
4.751871929E0,1.307517290E-2,-1.079273224E-2,3.663930893E-1,3.667851402E-1
4.756850211E0,2.448725700E-2,9.679794312E-5,3.425550461E-1,3.434291699E-1
4.761828492E0,3.355616331E-2,-1.549005508E-2,2.929058075E-1,2.952283353E-1
4.766806773E0,4.738742113E-2,6.797313690E-3,2.105426788E-1,2.159166292E-1
4.771766096E0,9.205222130E-2,2.550601959E-3,1.147184372E-1,1.471068892E-1
4.776744377E0,2.700877190E-2,-1.722335815E-3,1.973247528E-2,3.349344385E-2
4.781722659E0,-7.079094648E-2,1.116752625E-3,-8.630943298E-2,1.116329855E-1
4.786700940E0,-4.653799534E-2,-1.015043259E-2,-2.176957130E-1,2.228457757E-1
4.791679221E0,1.562875509E-2,-1.873874664E-2,-3.243494034E-1,3.252659436E-1
4.796657502E0,5.358892679E-2,-2.684164047E-2,-4.208350182E-1,4.250815913E-1
4.801613232E0,2.478373051E-2,-4.171371460E-2,-4.857907295E-1,4.882078453E-1
4.806591513E0,1.273894310E-2,-7.032442093E-2,-4.339995384E-1,4.398447501E-1
4.811569794E0,-3.263479471E-2,-9.134960175E-2,-3.969917297E-1,4.086712775E-1
4.816548075E0,-6.596469879E-2,-1.167387962E-1,-3.295030594E-1,3.557408526E-1
4.821526357E0,-6.843370199E-2,-1.132750511E-1,-3.220071793E-1,3.481422587E-1
4.826504586E0,-5.213195086E-2,-1.072106361E-1,-2.339153290E-1,2.625418861E-1
4.831464013E0,-3.852897882E-2,-1.153202057E-1,-1.062235832E-1,1.614517937E-1
4.836442294E0,-6.555867195E-2,-1.258468628E-1,3.845214844E-3,1.419512523E-1
4.841420575E0,-4.707866907E-2,-1.126194000E-1,9.165000916E-2,1.526409333E-1
4.846398857E0,3.568351269E-2,-1.114645004E-1,1.882419586E-1,2.216589338E-1
4.851377138E0,6.362724304E-2,-8.927869797E-2,2.556524277E-1,2.781677115E-1
4.856355419E0,5.158990622E-2,-1.008319855E-1,2.750873566E-1,2.974922881E-1
4.861309898E0,2.816969156E-2,-1.031455994E-1,2.327461243E-1,2.561314205E-1
4.866288179E0,2.660501003E-2,-9.157609940E-2,1.196689606E-1,1.530185239E-1
4.871266461E0,3.222048283E-2,-8.510065079E-2,2.908706665E-3,9.104252222E-2
4.876244742E0,-1.239418983E-2,-8.601760864E-2,-1.151151657E-1,1.442364251E-1
4.881223023E0,-9.508192539E-3,-7.021331787E-2,-2.511682510E-1,2.609708912E-1
4.886201304E0,-2.317309380E-3,-7.338237762E-2,-3.576269150E-1,3.650854059E-1
4.891162398E0,4.481732845E-3,-4.519701004E-2,-3.968853951E-1,3.994757470E-1
4.896140679E0,-1.774305105E-2,-4.764604568E-2,-4.336509705E-1,4.366212612E-1
4.901118961E0,-3.521656990E-2,-2.837705612E-2,-4.203739166E-1,4.227998272E-1
4.906097242E0,-7.549524307E-3,-2.999782562E-2,-3.457708359E-1,3.471517475E-1
4.911075523E0,-1.338815689E-2,-5.728340149E-2,-2.744007111E-1,2.806356732E-1
4.916053804E0,-3.567779064E-2,-4.604578018E-2,-2.512989044E-1,2.579617374E-1
4.921010523E0,-5.294400454E-2,-1.555776596E-2,-1.596841812E-1,1.689501389E-1
4.925988804E0,-9.344935417E-2,-5.652570724E-2,-3.802013397E-2,1.156437113E-1
4.930967086E0,-1.069852114E-1,-7.600212097E-2,1.420927048E-1,1.934230974E-1
4.935945367E0,-1.339908838E-1,-8.387947083E-2,3.232488632E-1,3.598321138E-1
4.940923648E0,-1.222204566E-1,-1.064620018E-1,4.389762878E-1,4.679446325E-1
4.945901929E0,-9.598559141E-2,-1.011190414E-1,4.947252274E-1,5.139954717E-1
4.950822815E0,-8.665972948E-2,-1.177678108E-1,4.125299454E-1,4.376758182E-1
4.955800367E0,-8.490651846E-2,-1.108984947E-1,2.956180573E-1,3.269520283E-1
4.960777867E0,-1.287284493E-1,-7.586908340E-2,2.036256790E-1,2.525679090E-1
4.965755367E0,-9.194576740E-2,-3.659629822E-2,1.030597687E-1,1.428797715E-1
4.970732867E0,-3.480458260E-2,-2.193450928E-4,-2.975940704E-2,4.579333346E-2
4.975710419E0,6.957173347E-3,1.219940186E-2,-1.662125587E-1,1.668048031E-1
4.980681825E0,-4.435181618E-3,1.058626175E-2,-2.470111847E-1,2.472777085E-1
4.985659325E0,1.704138517E-2,-9.699344635E-3,-2.916240692E-1,2.922825411E-1
4.990636877E0,5.732619762E-2,2.506399155E-2,-2.742261887E-1,2.812729976E-1
4.995614377E0,5.922734737E-2,3.611326218E-2,-2.523908615E-1,2.617502500E-1
5.000591877E0,1.090956926E-1,5.451202393E-2,-2.261948586E-1,2.569777129E-1
5.005569377E0,1.615409851E-1,6.583023071E-2,-1.552433968E-1,2.335157840E-1
5.010533127E0,1.237906814E-1,5.333232880E-2,-1.015782356E-1,1.687797619E-1
5.015510679E0,5.826711655E-2,-1.813411713E-3,-4.602766037E-2,7.427577567E-2
5.020488179E0,8.172750473E-3,-4.935646057E-2,-5.261421204E-3,5.030443920E-2
5.025465679E0,1.843094826E-3,-4.893445969E-2,6.121063232E-2,7.838826349E-2
5.030443232E0,1.499325037E-2,-8.190011978E-2,1.224040985E-1,1.480378009E-1
5.035420732E0,1.653248072E-2,-8.632278442E-2,1.475429535E-1,1.717377919E-1
5.040377867E0,-1.249277592E-2,-1.074614525E-1,1.606302261E-1,1.936649239E-1
5.045355367E0,-4.597848654E-2,-1.213345528E-1,1.071090698E-1,1.682511449E-1
5.050332919E0,-3.645163774E-2,-1.662497520E-1,6.606006622E-2,1.825695328E-1
5.055310419E0,-4.144668579E-2,-1.801671982E-1,5.163669586E-2,1.919489396E-1
5.060287919E0,-4.667603970E-2,-1.728386879E-1,-3.140068054E-2,1.817632181E-1
5.065265419E0,-3.345388174E-2,-1.967329979E-1,-1.111669540E-1,2.284318855E-1
5.070228336E0,-4.248362780E-2,-1.802077293E-1,-2.067408562E-1,2.775274148E-1
5.075205836E0,-6.651622057E-2,-1.661539078E-1,-3.204679489E-1,3.670575363E-1
5.080183388E0,-1.432017088E-1,-1.686763763E-1,-3.643903732E-1,4.263083314E-1
5.085160888E0,-5.819356441E-2,-9.716701508E-2,-4.104709625E-1,4.258102052E-1
5.090138388E0,3.525370359E-2,-2.821826935E-2,-3.969621658E-1,3.995222840E-1
5.095115888E0,7.083243132E-2,1.692581177E-2,-3.838334084E-1,3.906812023E-1
5.100085367E0,8.022964001E-2,4.086828232E-2,-3.164901733E-1,3.290486916E-1
5.105062867E0,9.943431616E-2,3.429603577E-2,-2.072830200E-1,2.324427923E-1
5.110040419E0,3.800809383E-2,1.414871216E-2,-1.421012878E-1,1.477754285E-1
5.115017919E0,-1.045852900E-2,-1.249742508E-2,-3.262233734E-2,3.646619470E-2
5.119995419E0,-2.217411995E-2,-3.882884979E-2,1.613483429E-1,1.674295641E-1
5.124972919E0,3.110390902E-2,-5.712509155E-3,3.394622803E-1,3.409321423E-1
5.129926148E0,8.710145950E-3,-4.082679749E-3,4.781827927E-1,4.782795397E-1
5.134903648E0,-3.432750702E-2,-4.836320877E-2,5.519571304E-1,5.551342644E-1
5.139881200E0,-4.362910986E-2,-4.320096970E-2,5.305099487E-1,5.340511480E-1
5.144858700E0,-9.559750557E-2,-4.360818863E-2,4.906435013E-1,5.017684750E-1
5.149836200E0,-1.071600914E-1,-3.764677048E-2,4.087858200E-1,4.242716243E-1
5.154813700E0,-1.072595716E-1,-5.619382858E-2,2.805156708E-1,3.055346193E-1
5.159763023E0,-5.821478367E-2,-4.645013809E-2,1.250715256E-1,1.455660087E-1
5.164740523E0,-3.196632862E-2,1.021862030E-3,-6.213569641E-2,6.988372583E-2
5.169718023E0,-4.470473528E-2,-1.795291901E-3,-2.334556580E-1,2.377041873E-1
5.174695523E0,-1.030898094E-2,-1.143026352E-2,-2.965517044E-1,2.969509040E-1
5.179673075E0,2.626919746E-2,1.037406921E-2,-3.498783112E-1,3.510164165E-1
5.184650523E0,6.015205383E-2,2.298259735E-2,-3.792581558E-1,3.846858694E-1
5.189651565E0,7.265198231E-2,-9.139537811E-3,-3.611755371E-1,3.685235546E-1
5.194629065E0,6.855887175E-2,-3.583955765E-2,-3.672237396E-1,3.752839828E-1
5.199606617E0,6.711363792E-2,-2.636623383E-2,-3.449053764E-1,3.523622247E-1
5.204584117E0,3.502970934E-2,-2.384233475E-2,-2.920475006E-1,2.951055406E-1
5.209561617E0,-5.909442902E-3,-7.043838501E-3,-2.016792297E-1,2.018887042E-1
5.214539117E0,-2.477508783E-2,-3.554248810E-2,-6.694984436E-2,7.974556475E-2
5.219497659E0,9.318947792E-3,-6.616401672E-2,4.759407043E-2,8.203484283E-2
5.224475159E0,2.698355913E-2,-5.392694473E-2,5.907154083E-2,8.441371197E-2
5.229452659E0,1.151394844E-2,-5.136632919E-2,8.709526062E-2,1.017676530E-1
5.234430211E0,2.459084988E-2,-4.172658920E-2,3.651523590E-2,6.065624945E-2
5.239407711E0,2.794796228E-2,-3.444671631E-2,-2.793693542E-2,5.242267850E-2
5.244385211E0,-1.871347427E-2,-3.898334503E-2,5.490303040E-3,4.358943377E-2
5.249347034E0,6.150722504E-3,-3.406333923E-2,1.969051361E-2,3.982284261E-2
5.254324534E0,2.839994431E-2,-7.870197296E-3,6.706809998E-2,7.325726501E-2
5.259302086E0,6.919527054E-2,-1.765966415E-2,1.236476898E-1,1.427886564E-1
5.264279586E0,5.014038086E-2,9.131431580E-4,1.846380234E-1,1.913271839E-1
5.269257086E0,-4.040104151E-2,4.824638367E-3,1.573925018E-1,1.625666661E-1
5.274234586E0,-1.307827234E-1,-5.744934082E-3,6.639289856E-2,1.467826352E-1
5.279195211E0,-1.232915521E-1,-2.112197876E-2,5.227184296E-2,1.355702414E-1
5.284172711E0,2.683573961E-2,-4.833698273E-2,5.967998505E-2,8.135306654E-2
5.289150263E0,1.213145256E-1,-4.217958450E-2,-1.828193665E-3,1.284510559E-1
5.294127763E0,6.776732206E-2,-7.654953003E-2,-1.221675873E-1,1.593021025E-1
5.299105263E0,-2.336442471E-2,-6.049013138E-2,-2.273831367E-1,2.364488173E-1
5.304082763E0,-7.329285145E-2,-1.083135605E-2,-2.583379745E-1,2.687520594E-1
5.309028752E0,-7.052195072E-2,-1.571226120E-2,-2.774281502E-1,2.866820524E-1
5.314006252E0,-7.487744093E-2,-1.047420502E-2,-2.800374031E-1,2.900642813E-1
5.318983804E0,-6.019222736E-2,-9.694099426E-3,-2.424187660E-1,2.499678738E-1
5.323961304E0,-1.451230049E-2,-1.826667786E-2,-8.169031143E-2,8.495637332E-2
5.328938804E0,-4.821479321E-3,-5.295276642E-2,5.872058868E-2,7.921710465E-2
5.333916304E0,3.077322245E-2,-2.346611023E-2,1.173429489E-1,1.235597718E-1
5.338890732E0,4.047751427E-3,-3.233671188E-2,1.660528183E-1,1.692205238E-1
5.343868232E0,3.817081451E-3,-4.153490067E-2,2.596912384E-1,2.630195000E-1
5.348845784E0,-1.043558121E-3,-1.300287247E-2,2.909612656E-1,2.912535352E-1
5.353823284E0,-3.406286240E-3,-1.833772659E-2,2.817745209E-1,2.823911394E-1
5.358800784E0,1.357227564E-2,-2.375888824E-2,2.085638046E-1,2.103510210E-1
5.363778284E0,1.394909620E-2,-2.926063538E-2,1.336393356E-1,1.375144869E-1
5.368743127E0,3.597819805E-2,-3.001737595E-2,8.309555054E-2,9.539572377E-2
5.373720627E0,2.486544847E-2,-2.103805542E-3,9.108543396E-3,2.656467746E-2
5.378698127E0,1.863628626E-2,2.834081650E-2,-7.159757614E-2,7.922579097E-2
5.383675679E0,2.678114176E-2,3.992843628E-2,-9.008550644E-2,1.021122326E-1
5.388653179E0,2.519208193E-2,6.128597260E-2,-8.484077454E-2,1.076502134E-1
5.393630679E0,2.082175016E-2,9.696340561E-2,-5.597543716E-2,1.138801865E-1
5.398588388E0,4.298925400E-3,1.184043884E-1,-2.748775482E-2,1.216291767E-1
5.403565888E0,-8.124601841E-2,1.112370491E-1,5.498886108E-3,1.378580224E-1
5.408543440E0,-1.047155857E-1,1.015892029E-1,5.971431732E-2,1.576436479E-1
5.413520940E0,-7.158660889E-2,6.580209732E-2,9.457683563E-2,1.356441537E-1
5.418498440E0,-6.518214941E-2,5.865526199E-2,2.052812576E-1,2.232253281E-1
5.423475940E0,-3.522479534E-2,6.315469742E-2,3.271093369E-1,3.350071944E-1
5.428403804E0,8.914887905E-3,2.223587036E-2,4.005241394E-1,4.012399474E-1
5.433381357E0,1.018190384E-2,2.439498901E-2,4.424324036E-1,4.432214101E-1
5.438358857E0,4.208087921E-5,1.199960709E-2,5.173559189E-1,5.174950620E-1
5.443336357E0,2.150183916E-2,3.529834747E-2,5.559844971E-1,5.575186664E-1
5.448313909E0,2.905654907E-2,9.620380402E-2,5.729722977E-1,5.817187541E-1
5.453291409E0,1.766663790E-2,9.934997559E-2,5.210428238E-1,5.307241769E-1
5.458286825E0,1.643598080E-3,9.517478943E-2,4.316244125E-1,4.419961261E-1
5.463263857E0,-7.484793663E-3,9.550380707E-2,3.597612381E-1,3.722971229E-1
5.468240888E0,-3.348433971E-2,1.171288490E-1,2.434339523E-1,2.722139920E-1
5.473217919E0,-2.626371384E-2,1.384468079E-1,1.661767960E-1,2.178807674E-1
5.478194950E0,-3.354585171E-2,1.570796967E-1,7.777214050E-2,1.784596904E-1
5.483171982E0,9.036540985E-3,1.804280281E-1,3.043270111E-2,1.831995679E-1
5.488098909E0,2.991580963E-2,1.893663406E-1,-4.656791687E-3,1.917713543E-1
5.493075940E0,4.116427898E-2,1.912770271E-1,-2.766990662E-2,1.976031951E-1
5.498052971E0,2.139979601E-2,1.818714142E-1,-6.029653549E-2,1.927973930E-1
5.503030002E0,-2.441030741E-2,1.539893150E-1,-3.349304199E-2,1.594689817E-1
5.508007034E0,-6.024926901E-2,1.316332817E-1,5.693149567E-2,1.555586400E-1
5.512984117E0,-6.474077702E-2,1.335649490E-1,1.915388107E-1,2.423181377E-1
5.517985992E0,-5.237734318E-2,1.572508812E-1,2.891683578E-1,3.333010124E-1
5.522963023E0,-3.530341387E-2,1.571946144E-1,3.549842834E-1,3.898337073E-1
5.527940054E0,-2.539873123E-2,1.952943802E-1,3.702774048E-1,4.193928313E-1
5.532917086E0,-7.259690762E-2,1.740946770E-1,3.781042099E-1,4.225423779E-1
5.537894117E0,-7.876801491E-2,1.745100021E-1,4.166936874E-1,4.585758064E-1
5.542871148E0,3.213268518E-2,1.748266220E-1,5.737342834E-1,6.006395635E-1
5.547753596E0,1.023563743E-1,1.630105972E-1,6.178913116E-1,6.471776844E-1
5.552730679E0,8.668452501E-2,1.557540894E-1,5.691699982E-1,5.964294007E-1
5.557707711E0,-1.257014275E-2,1.814222336E-1,5.424938202E-1,5.721639453E-1
5.562684742E0,-7.148623466E-2,2.134118080E-1,5.781955719E-1,6.204554786E-1
5.567661773E0,-1.310629845E-1,2.280030251E-1,5.830869675E-1,6.396509181E-1
5.572638857E0,-1.436978579E-1,2.397131920E-1,5.122203827E-1,5.835076771E-1
5.577685523E0,-1.379207373E-1,2.582316399E-1,4.967613220E-1,5.766086373E-1
5.582662502E0,-2.551656961E-2,2.382655144E-1,6.027736664E-1,6.486583412E-1
5.587639586E0,8.163195848E-2,2.704896927E-1,6.699800491E-1,7.271187776E-1
5.592616565E0,1.386899948E-1,3.190498352E-1,6.890668869E-1,7.719073044E-1
5.597593648E0,1.746427417E-1,3.695678711E-1,6.889286041E-1,8.010637429E-1
5.602570679E0,1.447230577E-1,3.792290688E-1,6.839818954E-1,7.953556961E-1
5.607532763E0,7.519805431E-2,3.389387131E-1,6.528882980E-1,7.394574554E-1
5.612509794E0,4.948741198E-2,3.347325325E-1,5.886917114E-1,6.790086917E-1
5.617486825E0,3.144061565E-2,3.092627525E-1,5.154561996E-1,6.019360898E-1
5.622463857E0,1.133614779E-2,2.817306519E-1,4.712696075E-1,5.491773042E-1
5.627440888E0,-4.892110825E-2,3.045320511E-1,4.890947342E-1,5.782272079E-1
5.632417919E0,-4.933220148E-2,3.249897957E-1,4.947805405E-1,5.940200473E-1
5.637378179E0,-1.888740063E-2,2.883214951E-1,4.956417084E-1,5.737131003E-1
5.642355211E0,7.083189487E-2,2.399768829E-1,5.535497665E-1,6.074729671E-1
5.647332242E0,5.748468637E-2,1.893591881E-1,5.541391373E-1,5.884144583E-1
5.652309273E0,1.772701740E-2,1.578817368E-1,4.955215454E-1,5.203676507E-1
5.657286304E0,-3.189921379E-3,1.479635239E-1,4.042234421E-1,4.304648315E-1
5.662263336E0,-5.357801914E-3,1.712560654E-1,4.206933975E-1,4.542469380E-1
5.667229221E0,-6.013560295E-2,2.086577415E-1,4.489097595E-1,4.986725539E-1
5.672206252E0,-6.020444632E-2,2.291507721E-1,4.626560211E-1,5.197934644E-1
5.677183284E0,-5.579996109E-2,2.613453865E-1,4.786920547E-1,5.482345575E-1
5.682160315E0,-6.119543314E-2,2.744035721E-1,4.897947311E-1,5.647486875E-1
5.687137346E0,-9.736222029E-2,2.803950310E-1,5.458459854E-1,6.213281059E-1
5.692114377E0,-6.887316704E-2,2.556257248E-1,6.108217239E-1,6.657260719E-1
5.697069482E0,-1.654231548E-2,2.336182594E-1,6.822576523E-1,7.213367060E-1
5.702046513E0,4.290783405E-2,2.166705132E-1,7.363634109E-1,7.687771241E-1
5.707023492E0,5.471992493E-2,2.665038109E-1,7.067766190E-1,7.573319883E-1
5.712000575E0,5.732303858E-2,2.779912949E-1,7.011146545E-1,7.563906726E-1
5.716977607E0,5.440473557E-3,3.085165024E-1,6.954154968E-1,7.607987541E-1
5.721954638E0,-3.644883633E-2,2.865023613E-1,7.206535339E-1,7.763720994E-1
5.726925367E0,-7.555055618E-2,2.454547882E-1,7.600412369E-1,8.022584505E-1
5.731902398E0,-1.024237871E-1,2.211565971E-1,7.897138596E-1,8.264676960E-1
5.736879429E0,-7.447832823E-2,2.514810562E-1,7.432413101E-1,7.881607628E-1
5.741856461E0,-1.359158754E-2,2.481999397E-1,7.304725647E-1,7.716074838E-1
5.746833492E0,4.705417156E-2,3.064341545E-1,7.393121719E-1,8.016847720E-1
5.751810523E0,3.850442171E-2,3.590717316E-1,7.292480469E-1,8.137676651E-1
5.756771565E0,-4.616779089E-2,3.470072746E-1,6.575880051E-1,7.449614070E-1
5.761748596E0,-1.020812392E-1,3.085174561E-1,5.653953552E-1,6.521315111E-1
5.766725627E0,-9.632694721E-2,2.747859955E-1,5.288248062E-1,6.036902349E-1
5.771702607E0,-7.453674078E-2,2.934699059E-1,5.069293976E-1,5.904724596E-1
5.776679690E0,-9.610545635E-2,3.023757935E-1,4.425582886E-1,5.445412914E-1
5.781656721E0,-1.057702899E-1,3.042144775E-1,3.834180832E-1,5.007426775E-1
5.786623857E0,-6.548941135E-2,2.895483971E-1,3.959665298E-1,4.948905232E-1
5.791600888E0,-1.815795898E-2,2.870941162E-1,4.177780151E-1,5.072388126E-1
5.796577919E0,3.168374300E-2,2.896571159E-1,5.318765640E-1,6.064633408E-1
5.801554950E0,3.405576944E-2,2.877988815E-1,6.139144897E-1,6.788806908E-1
5.806531982E0,3.220099211E-2,2.835402489E-1,6.477327347E-1,7.078062392E-1
5.811509013E0,2.861797810E-2,2.650227547E-1,6.551046371E-1,7.072610089E-1
5.816470784E0,-3.143429756E-3,2.703843117E-1,5.745134354E-1,6.349671209E-1
5.821447815E0,-8.482694626E-3,2.376027107E-1,5.278968811E-1,5.789664250E-1
5.826424846E0,-3.774714470E-2,2.264657021E-1,4.389333725E-1,4.953524671E-1
5.831401877E0,-5.535000563E-2,2.178444862E-1,3.792333603E-1,4.408375947E-1
5.836378909E0,-8.503651619E-2,2.093014717E-1,4.127035141E-1,4.704917701E-1
5.841355992E0,-1.052387357E-1,2.293000221E-1,4.079294205E-1,4.796458107E-1
5.846322607E0,-7.580345869E-2,2.134189606E-1,3.890218735E-1,4.501464596E-1
5.851299586E0,-5.426168442E-2,2.118673325E-1,4.012308121E-1,4.569663680E-1
5.856276669E0,-5.223029852E-2,2.198257446E-1,3.468532562E-1,4.139547601E-1
5.861253700E0,-7.883340120E-2,2.040977478E-1,3.047447205E-1,3.751532226E-1
5.866230732E0,-5.297654867E-2,1.933856010E-1,2.985496521E-1,3.596337028E-1
5.871207763E0,-2.214604616E-2,1.852703094E-1,3.255558014E-1,3.752360787E-1
5.876170992E0,-2.197241783E-2,1.726942062E-1,4.044370651E-1,4.403128611E-1
5.881148023E0,-7.085084915E-3,1.674284935E-1,4.944572449E-1,5.220828151E-1
5.886125054E0,-6.310194731E-2,1.599550247E-1,5.646142960E-1,5.902175606E-1
5.891102086E0,-1.184628606E-1,1.287627220E-1,5.938014984E-1,6.190424117E-1
5.896079117E0,-1.260774732E-1,1.332583427E-1,5.397310257E-1,5.700551686E-1
5.901056148E0,-9.605866671E-2,1.445355415E-1,4.673109055E-1,4.984950076E-1
5.906018752E0,-8.576065302E-2,1.246767044E-1,4.193763733E-1,4.458426995E-1
5.910995784E0,-9.713131189E-2,1.191110611E-1,3.624248505E-1,3.936670025E-1
5.915972815E0,-8.227634430E-2,1.230049133E-1,3.202495575E-1,3.527880165E-1
5.920949846E0,-5.329555273E-2,1.530041695E-1,2.190351486E-1,2.724464868E-1
5.925926877E0,8.629739285E-3,1.687746048E-1,1.303997040E-1,2.134559028E-1
5.930903909E0,3.463304043E-2,1.347327232E-1,1.088886261E-1,1.766609382E-1
5.935867346E0,-1.539826393E-2,1.035261154E-1,1.349554062E-1,1.707856105E-1
5.940844377E0,-1.502168179E-2,6.805515289E-2,2.176866531E-1,2.285708505E-1
5.945821409E0,-3.103709221E-2,7.353067398E-2,2.615537643E-1,2.734601118E-1
5.950798388E0,8.154511452E-4,1.146740913E-1,3.073701859E-1,3.280659131E-1
5.955775471E0,1.564741135E-3,1.414408684E-1,3.740606308E-1,3.999116442E-1
5.960752502E0,-2.872610092E-2,1.704883575E-1,3.902530670E-1,4.268359465E-1
5.965718909E0,-3.762531281E-2,2.066378593E-1,4.038372040E-1,4.551915601E-1
5.970695575E0,-4.432570934E-2,1.569838524E-1,3.983154297E-1,4.304229082E-1
5.975672138E0,-1.010124683E-1,1.482639313E-1,4.046564102E-1,4.426426577E-1
5.980648752E0,-8.605265617E-2,1.562967300E-1,3.824176788E-1,4.219917162E-1
5.985625315E0,-5.467694998E-2,1.144642830E-1,4.482192993E-1,4.658241956E-1
5.990601929E0,-5.917561054E-2,1.321954727E-1,4.826831818E-1,5.039448877E-1
5.995526409E0,-7.073777914E-2,1.425209045E-1,5.359334946E-1,5.590534431E-1
6.000503023E0,-8.245009184E-2,1.502075195E-1,5.532236099E-1,5.791516892E-1
6.005479638E0,-5.883312225E-2,1.718688011E-1,5.348863602E-1,5.648925910E-1
6.010456200E0,-2.124482393E-2,1.787357330E-1,5.311584473E-1,5.608271578E-1
6.015432763E0,1.356589794E-2,1.780648232E-1,5.062808990E-1,5.368532980E-1
6.020409429E0,-3.479617834E-2,1.604676247E-1,4.841289520E-1,5.112156832E-1
6.025414950E0,-7.042086124E-2,1.048307419E-1,4.479684830E-1,4.654292039E-1
6.030391513E0,-3.660267591E-2,7.322549820E-2,3.860588074E-1,3.946430441E-1
6.035368127E0,-2.667665482E-2,7.480430603E-2,2.987051010E-1,3.090826192E-1
6.040344742E0,-3.110319376E-2,6.936454773E-2,1.835098267E-1,1.986320861E-1
6.045321304E0,-5.684888363E-2,6.651878357E-2,6.680202484E-2,1.100865780E-1
6.050297919E0,-6.362140179E-2,1.045718193E-1,-8.793830872E-3,1.227203309E-1
6.055265002E0,-3.482913971E-2,1.119003296E-1,-4.124832153E-2,1.242424113E-1
6.060241617E0,2.686333656E-2,1.410465240E-1,-6.419181824E-2,1.572779397E-1
6.065218179E0,4.489988089E-2,1.562423706E-1,-5.870342255E-2,1.728403006E-1
6.070194794E0,-2.067542076E-2,1.550998688E-1,-2.257919312E-2,1.580925750E-1
6.075171357E0,-7.159978151E-2,1.495141983E-1,8.673477173E-2,1.870934121E-1
6.080147971E0,-1.055635810E-1,1.202268600E-1,1.500072479E-1,2.193179015E-1
6.085075315E0,-1.082422137E-1,9.597826004E-2,2.222204208E-1,2.651605526E-1
6.090051982E0,-1.439831257E-1,7.429313660E-2,3.104524612E-1,3.501875802E-1
6.095028544E0,-9.827595949E-2,5.976867676E-2,3.504886627E-1,3.688804164E-1
6.100005107E0,-9.039855003E-2,2.608060837E-2,3.570384979E-1,3.692270101E-1
6.104981721E0,-6.765270233E-2,3.777456284E-2,3.231115341E-1,3.322722817E-1
6.109958336E0,-1.118159294E-2,2.083539963E-2,2.846784592E-1,2.856588297E-1
6.114962034E0,9.537935257E-3,1.584768295E-2,2.465724945E-1,2.472652752E-1
6.119938648E0,-1.008582115E-2,1.829433441E-2,2.086229324E-1,2.096662453E-1
6.124915211E0,-4.621452093E-2,6.123065948E-2,1.946802139E-1,2.092495192E-1
6.129891773E0,-6.795400381E-2,9.446144104E-2,1.807832718E-1,2.149960507E-1
6.134868388E0,-6.381684542E-2,1.204962730E-1,1.906795502E-1,2.344155123E-1
6.139845002E0,-4.602980614E-2,1.677680016E-1,2.123785019E-1,2.745350132E-1
6.144809482E0,-4.558128119E-2,1.576027870E-1,2.482109070E-1,2.975314202E-1
6.149786044E0,-5.056989193E-2,1.142115593E-1,2.933330536E-1,3.188195016E-1
6.154762659E0,-3.235977888E-2,8.767366409E-2,3.001928329E-1,3.144035045E-1
6.159739273E0,-5.038201809E-3,9.209537506E-2,3.451023102E-1,3.572149858E-1
6.164715836E0,6.483918428E-2,9.849596024E-2,4.420938492E-1,4.575505934E-1
6.169692450E0,4.644465446E-2,9.968090057E-2,4.909734726E-1,5.031384885E-1
6.174658596E0,3.559851646E-2,1.148433685E-1,4.492969513E-1,4.651064439E-1
6.179635211E0,2.257412672E-2,1.178259850E-1,3.367881775E-1,3.575175946E-1
6.184611773E0,1.696282625E-2,1.088166237E-1,3.155221939E-1,3.341901404E-1
6.189588388E0,-2.571403980E-3,9.760665894E-2,3.133602142E-1,3.282198895E-1
6.194564950E0,2.274334431E-3,9.851217270E-2,2.422094345E-1,2.614865789E-1
6.199541565E0,-2.049505711E-3,1.161832809E-1,1.952972412E-1,2.272526516E-1
6.204505054E0,5.819731951E-2,7.697010040E-2,2.056064606E-1,2.271240652E-1
6.209481669E0,9.689307213E-2,6.691217422E-2,1.348600388E-1,1.790327806E-1
6.214458232E0,9.746450186E-2,8.803224564E-2,5.506801605E-2,1.424131026E-1
6.219434794E0,8.381009102E-2,6.417894363E-2,-9.991645813E-3,1.060325476E-1
6.224411409E0,4.382264614E-2,3.837966919E-2,-2.472209930E-2,6.328195253E-2
6.229388023E0,3.464525938E-2,2.960968018E-2,-4.414939880E-2,6.345231731E-2
6.234357919E0,3.775298595E-3,9.096622467E-3,-1.650810242E-3,9.986320356E-3
6.239334534E0,2.726155519E-2,-1.594305038E-2,6.663894653E-2,7.374362645E-2
6.244311096E0,2.635067701E-2,6.513118744E-3,1.392679214E-1,1.418884521E-1
6.249287659E0,1.785033941E-2,2.157115936E-2,1.876230240E-1,1.897006818E-1
6.254264273E0,3.049200773E-2,3.878307343E-2,2.356529236E-1,2.407616866E-1
6.259240888E0,-2.281904221E-3,7.247257233E-2,3.284349442E-1,3.363435645E-1
6.264204429E0,-1.452684402E-3,7.019901276E-2,4.109640121E-1,4.169189741E-1
6.269181044E0,3.296315670E-2,1.225275993E-1,3.906593323E-1,4.107484585E-1
6.274157607E0,7.693845034E-2,1.409211159E-1,4.110097885E-1,4.412565380E-1
6.279134221E0,8.285868168E-2,1.235136986E-1,3.480281830E-1,3.784769623E-1
6.284110784E0,6.784158945E-2,1.418848038E-1,2.712793350E-1,3.135701778E-1
6.289087398E0,4.602235556E-2,1.104440689E-1,1.807756424E-1,2.167851066E-1
6.294053961E0,2.704882622E-2,6.519317627E-2,1.859254837E-1,1.988720059E-1
6.299030523E0,2.060425282E-2,3.954935074E-2,1.861190796E-1,1.913870376E-1
6.304007138E0,1.939558983E-2,1.885890961E-2,2.242898941E-1,2.259154797E-1
6.308983752E0,-2.671396732E-2,3.877067566E-2,2.335929871E-1,2.382907572E-1
6.313960315E0,-6.526744366E-2,2.516937256E-2,2.381134033E-1,2.481760048E-1
6.318936929E0,-3.484958410E-2,2.578973770E-2,1.785554886E-1,1.837434804E-1
6.323864586E0,-4.570746422E-2,3.568410873E-2,1.457977295E-1,1.569060414E-1
6.328841200E0,-7.385843992E-2,4.998493195E-2,1.206426620E-1,1.500273791E-1
6.333817815E0,-9.084230661E-2,1.410770416E-2,1.101217270E-1,1.434508513E-1
6.338794377E0,-6.582897902E-2,3.510856628E-2,7.861518860E-2,1.083808737E-1
6.343770992E0,6.062328815E-3,4.158878326E-2,9.021854401E-2,9.952770673E-2
6.348747607E0,3.692543507E-2,6.226778030E-2,8.747577667E-2,1.135463594E-1
6.353750159E0,8.211213350E-2,8.070945740E-2,5.605602264E-2,1.280573959E-1
6.358726773E0,7.534724474E-2,1.016345024E-1,6.270694733E-2,1.412053137E-1
6.363703336E0,7.880002260E-2,1.202139854E-1,8.576679230E-2,1.673821631E-1
6.368679950E0,1.042149067E-1,1.152319908E-1,1.107711792E-1,1.908125065E-1
6.373656513E0,1.274461150E-1,1.487488747E-1,8.540534973E-2,2.136885905E-1
6.378633127E0,8.653450012E-2,1.372780800E-1,1.098909378E-1,1.959834411E-1
6.383600211E0,2.206945419E-2,1.261305809E-1,2.053279877E-1,2.419825753E-1
6.388576825E0,-4.671925306E-2,1.294651031E-1,2.333908081E-1,2.709523405E-1
6.393553388E0,-3.408026695E-2,1.281189919E-1,3.039207458E-1,3.315776838E-1
6.398530002E0,-2.321124077E-3,1.360697746E-1,4.143447876E-1,4.361215131E-1
6.403506565E0,3.901106119E-2,1.198887825E-1,4.931068420E-1,5.089690960E-1
6.408483179E0,6.117135286E-2,1.246914864E-1,5.025939941E-1,5.214313225E-1
6.413450627E0,7.830798626E-2,1.169834137E-1,4.291839600E-1,4.516814489E-1
6.418427190E0,5.213230848E-2,6.843137741E-2,3.472013474E-1,3.577001630E-1
6.423403804E0,2.091819048E-2,4.374599457E-2,3.064832687E-1,3.102954669E-1
6.428380419E0,-3.110170364E-3,2.141332626E-2,2.496156693E-1,2.505517632E-1
6.433356982E0,2.281278372E-2,4.668664932E-2,1.695270538E-1,1.773118392E-1
6.438333596E0,2.465671301E-2,5.044841766E-2,1.233291626E-1,1.355104376E-1
6.443294586E0,3.816354275E-2,3.302192688E-2,6.078529358E-2,7.900478191E-2
6.448271148E0,3.477460146E-2,4.706096649E-2,-1.333808899E-2,6.001593198E-2
6.453247763E0,2.168983221E-2,3.758096695E-2,-3.870964050E-3,4.356331324E-2
6.458224377E0,-5.695223808E-3,4.507493973E-2,7.761955261E-3,4.609157966E-2
6.463200940E0,-2.830231190E-2,9.878158569E-3,-3.301811218E-2,4.459590348E-2
6.468177554E0,-3.180694580E-2,4.391002655E-2,-1.883697510E-2,5.739863991E-2
6.473111877E0,-8.047467470E-2,3.507423401E-2,-1.115798950E-4,8.778603311E-2
6.478088075E0,-8.113074303E-2,2.144622803E-2,1.111583710E-1,1.392778575E-1
6.483064273E0,-2.930098772E-2,3.165721893E-2,1.953678131E-1,2.000732611E-1
6.488040419E0,-1.541602612E-2,2.959012985E-2,2.695016861E-1,2.715591804E-1
6.493016565E0,1.054984331E-2,7.723855972E-2,2.860784531E-1,2.965096552E-1
6.497992711E0,2.697753906E-2,1.030650139E-1,2.621421814E-1,2.829641461E-1
6.502995159E0,1.709127426E-2,6.686878204E-2,2.455587387E-1,2.550737929E-1
6.507971357E0,4.767245054E-2,2.855205536E-2,2.243881226E-1,2.311664161E-1
6.512947502E0,5.212104321E-2,4.773712158E-2,2.436647415E-1,2.537083802E-1
6.517923648E0,3.551399708E-2,5.981636047E-2,2.792835236E-1,2.878168298E-1
6.522899846E0,5.018073320E-2,6.949758530E-2,2.575292587E-1,2.714209635E-1
6.527875992E0,1.479393244E-2,8.860158920E-2,2.525892258E-1,2.680865887E-1
6.532806669E0,-8.539855480E-3,7.885789871E-2,2.763023376E-1,2.874621351E-1
6.537782815E0,-1.760166883E-2,5.257225037E-2,2.879533768E-1,2.932418924E-1
6.542759013E0,-6.484699249E-2,2.390813828E-2,3.400316238E-1,3.469844906E-1
6.547735107E0,-4.785490036E-2,1.897001266E-2,3.657121658E-1,3.693173989E-1
6.552711304E0,-5.766081810E-2,6.598424911E-2,2.845125198E-1,2.977013017E-1
6.557687502E0,-7.021349669E-2,7.437133789E-2,2.326545715E-1,2.541440156E-1
6.562692502E0,-6.631612778E-2,9.685420990E-2,2.335605621E-1,2.613983607E-1
6.567668700E0,-6.015837193E-2,1.215295792E-1,1.703233719E-1,2.177120101E-1
6.572644846E0,-6.348466873E-2,9.364318848E-2,1.171617508E-1,1.628687378E-1
6.577620992E0,-2.850598097E-2,8.024978638E-2,7.866954803E-2,1.159375563E-1
6.582597190E0,-2.189654112E-2,1.941585541E-2,6.186485291E-2,6.843751880E-2
6.587573336E0,6.421208382E-3,3.268861771E-2,4.519081116E-2,5.614256013E-2
6.592478336E0,-5.336821079E-3,2.922677994E-2,5.711460114E-2,6.437984147E-2
6.597454534E0,-6.407964230E-2,2.082824707E-3,4.749774933E-2,7.979081969E-2
6.602430679E0,-3.886860609E-2,-2.708196640E-2,-7.268905640E-3,4.792742881E-2
6.607406877E0,-3.554373980E-2,-2.032184601E-2,-5.682945251E-2,7.004228392E-2
6.612382971E0,-3.486955166E-2,-2.778387070E-2,-6.561851501E-2,7.933233021E-2
6.617359169E0,-3.455680609E-2,1.002693176E-2,-7.196998596E-2,8.046360101E-2
6.622389065E0,-5.132627487E-2,4.302597046E-2,-8.786964417E-2,1.104839128E-1
6.627365263E0,-3.980726004E-2,5.934953690E-2,-9.422779083E-2,1.182618368E-1
6.632341357E0,-5.254369974E-2,3.559875488E-2,-1.078643799E-1,1.251512532E-1
6.637317554E0,-7.720851898E-2,3.867053986E-2,-1.097612381E-1,1.396570637E-1
6.642293752E0,-6.345373392E-2,2.083063126E-2,-6.203651428E-2,9.115273255E-2
6.647269898E0,1.251792908E-2,3.913116455E-2,4.681301117E-2,6.228486656E-2
6.652240002E0,2.208650112E-2,2.895593643E-2,1.902303696E-1,1.936849331E-1
6.657216200E0,-8.066177368E-3,-4.920482635E-3,3.419084549E-1,3.420389830E-1
6.662192346E0,-4.446583986E-2,-8.024692535E-3,4.639749527E-1,4.661698868E-1
6.667168492E0,-1.276282072E-1,-3.537940979E-2,5.163764954E-1,5.330903740E-1
6.672144690E0,-2.031457424E-1,-3.692293167E-2,4.878807068E-1,5.297726678E-1
6.677120836E0,-2.001792192E-1,-3.429651260E-2,4.457311630E-1,4.898206205E-1
6.682050263E0,-1.739041209E-1,1.533889771E-2,3.923473358E-1,4.294349275E-1
6.687026461E0,-1.507422328E-1,2.372789383E-2,3.064327240E-1,3.423262304E-1
6.692002659E0,-8.800101280E-2,6.749439240E-2,1.738719940E-1,2.062307968E-1
6.696978804E0,-2.634006739E-2,7.272481918E-2,5.205059052E-2,9.323069477E-2
6.701954950E0,-1.337635517E-2,9.698486328E-2,-4.022979736E-2,1.058462431E-1
6.706931148E0,1.335412264E-2,9.516620636E-2,-8.433628082E-2,1.278575289E-1
6.711937919E0,2.773237228E-2,7.231664658E-2,-9.972381592E-2,1.262680534E-1
6.716914117E0,4.422557354E-2,9.286355972E-2,-8.432865143E-2,1.330070056E-1
6.721890211E0,6.559354067E-2,1.112461090E-1,-3.365230560E-2,1.334566859E-1
6.726866409E0,5.147790909E-2,1.296343803E-1,2.361392975E-2,1.414661280E-1
6.731842607E0,5.931711197E-2,1.076140404E-1,1.230583191E-1,1.739041442E-1
6.736818752E0,6.047868729E-2,9.758234024E-2,1.884107590E-1,2.206322706E-1
6.741785992E0,1.017987728E-2,6.142759323E-2,2.888250351E-1,2.954604542E-1
6.746762138E0,-1.252663136E-2,2.535486221E-2,3.860569000E-1,3.870913530E-1
6.751738336E0,1.577007771E-2,3.678750992E-2,3.590383530E-1,3.612624463E-1
6.756714482E0,2.552753687E-2,3.118896484E-2,3.299751282E-1,3.324274235E-1
6.761690679E0,2.583265305E-2,-2.674722672E-2,2.251930237E-1,2.282424983E-1
6.766666825E0,-7.264554501E-3,-5.823659897E-2,1.142587662E-1,1.284497601E-1
6.771597294E0,-7.376271486E-2,-6.325435638E-2,3.750133514E-2,1.041556616E-1
6.776573492E0,-8.788144588E-2,-4.671382904E-2,-7.773399353E-3,9.982863363E-2
6.781549690E0,-6.442004442E-2,-5.612325668E-2,-2.666473389E-2,8.950290552E-2
6.786525836E0,-7.717251778E-2,-2.484607697E-2,-5.023670197E-2,9.537636639E-2
6.791501982E0,-9.514021873E-2,-2.228736877E-2,-4.746246338E-2,1.086327458E-1
6.796498857E0,-8.997792006E-2,-4.565238953E-2,-6.852436066E-2,1.219662034E-1
6.801475002E0,-8.073663712E-2,-7.125949860E-2,-5.369567871E-2,1.203309878E-1
6.806437502E0,-9.116679430E-2,-7.298135757E-2,-1.751804352E-2,1.180870221E-1
6.811439117E0,-8.994054794E-2,-5.340433121E-2,3.506278992E-2,1.103210043E-1
6.816415263E0,-6.036919355E-2,-8.082389832E-3,7.545948029E-2,9.697369602E-2
6.821391409E0,-5.472975969E-2,1.063632965E-2,6.330394745E-2,8.435560365E-2
6.826367607E0,-1.546424627E-2,2.443265915E-2,7.260417938E-2,7.815026942E-2
6.831343752E0,3.583097458E-2,-4.693984985E-3,8.893966675E-2,9.600081539E-2
6.836319950E0,2.543532848E-2,9.272098541E-3,1.359319687E-1,1.386016878E-1
6.841296096E0,3.228300810E-2,2.333831787E-2,1.443653107E-1,1.497605176E-1
6.846256669E0,2.280181646E-2,3.273296356E-2,1.811008453E-1,1.854424059E-1
6.851232867E0,9.104728699E-3,3.748035431E-2,2.173948288E-1,2.207899106E-1
6.856209013E0,-8.864700794E-3,2.332019806E-2,2.010231018E-1,2.025653031E-1
6.861185159E0,-9.830713272E-3,4.763126373E-3,1.893939972E-1,1.897087675E-1
6.866161357E0,-1.314866543E-2,6.318092346E-4,2.063579559E-1,2.067773986E-1
6.871137502E0,1.235955954E-2,1.783514023E-2,2.493314743E-1,2.502739200E-1
6.876106929E0,4.032665491E-2,2.036428452E-2,2.706909180E-1,2.744349035E-1
6.881083127E0,6.110155582E-2,5.822086334E-2,2.753820419E-1,2.880248914E-1
6.886059273E0,2.921098471E-2,4.789400101E-2,2.327327728E-1,2.393985391E-1
6.891035419E0,-3.052055836E-3,1.599884033E-2,1.098690033E-1,1.110696890E-1
6.896011617E0,-5.261176825E-2,7.739067078E-4,-2.840518951E-2,5.979508241E-2
6.900987763E0,-1.121516228E-1,-2.671241760E-3,-7.031345367E-2,1.323975218E-1
6.905951617E0,-1.006103158E-1,2.950286865E-2,-8.091449738E-2,1.324387058E-1
6.910927763E0,-2.776610851E-2,5.678510666E-2,-7.008361816E-2,9.437806236E-2
6.915903961E0,1.827961206E-2,5.325841904E-2,-2.861785889E-2,6.316316381E-2
6.920880107E0,1.661324501E-2,8.087205887E-2,4.324913025E-2,9.320288130E-2
6.925856252E0,1.541656256E-2,7.988595963E-2,5.739402771E-2,9.956661771E-2
6.930832450E0,5.726611614E-2,3.883600235E-2,9.023761749E-2,1.137122278E-1
6.935774377E0,7.535493374E-2,2.426195145E-2,9.189414978E-2,1.212911501E-1
6.940750575E0,8.413451910E-2,1.939201355E-2,6.971263885E-2,1.109708048E-1
6.945726721E0,8.596676588E-2,2.410650253E-2,1.070604324E-1,1.394035311E-1
6.950702867E0,8.081215620E-2,2.153015137E-2,1.061429977E-1,1.351313730E-1
6.955679013E0,7.351052761E-2,4.622936249E-3,7.676506042E-2,1.063862948E-1
6.960655211E0,6.633353233E-2,-1.688289642E-2,3.336715698E-2,7.614812452E-2
6.965612815E0,4.489129782E-2,-2.641916275E-2,-2.490997314E-3,5.214792276E-2
6.970588961E0,4.252147675E-2,-3.341341019E-2,-2.858543396E-2,6.116910167E-2
6.975565159E0,4.496800900E-2,-3.071022034E-2,1.197624207E-2,5.575544673E-2
6.980541304E0,2.596879005E-2,-3.031396866E-2,3.790092468E-2,5.504357224E-2
6.985517450E0,6.417143345E-2,-3.455400467E-2,4.929256439E-2,8.798698207E-2
6.990493648E0,-5.053400993E-3,-6.725406647E-2,9.623146057E-2,1.175122986E-1
6.995497242E0,-2.160352468E-2,-5.220413208E-2,1.618146896E-1,1.713942166E-1
7.000473440E0,-9.579360485E-3,-1.841020584E-2,2.245531082E-1,2.255100846E-1
7.005449586E0,9.495615959E-3,-1.587390900E-2,2.678146362E-1,2.684526533E-1
7.010425732E0,1.898258924E-2,7.598400116E-3,2.776765823E-1,2.784283728E-1
7.015401877E0,7.035136223E-3,2.584648132E-2,2.472190857E-1,2.486660614E-1
7.020378075E0,-1.675438881E-2,2.707433701E-2,1.981430054E-1,2.006847773E-1
7.025350054E0,-3.335303068E-2,2.805709839E-2,6.884479523E-2,8.148147799E-2
7.030326252E0,-2.653920650E-2,1.482677460E-2,-4.035854340E-2,5.052697054E-2
7.035302398E0,-2.254754305E-2,2.098894119E-2,-1.297645569E-1,1.333707898E-1
7.040278544E0,7.478058338E-3,1.315498352E-2,-1.734495163E-1,1.741083273E-1
7.045254742E0,3.008133173E-2,3.239154816E-3,-1.551237106E-1,1.580466521E-1
7.050230888E0,6.228190660E-2,7.956981659E-3,-1.300058365E-1,1.443740523E-1
7.055197450E0,4.451173544E-2,1.295375824E-2,-6.727504730E-2,8.170083496E-2
7.060173648E0,2.471667528E-2,6.309986115E-3,-7.174682617E-2,7.614681233E-2
7.065149794E0,7.714807987E-3,-4.048442841E-2,3.535270691E-2,5.429844465E-2
7.070125940E0,-1.378083229E-2,-8.453845978E-3,1.510295868E-1,1.518924453E-1
7.075102138E0,1.917165518E-2,-2.859592438E-3,1.778993607E-1,1.789522622E-1
7.080078284E0,1.141959429E-2,2.872848511E-2,1.903448105E-1,1.928389999E-1
7.085007971E0,-1.764351130E-2,4.552221298E-2,2.313413620E-1,2.364368650E-1
7.089984169E0,-8.371889591E-3,4.053354263E-2,2.626266479E-1,2.658680365E-1
7.094960315E0,-8.521378040E-3,2.058982849E-3,2.272672653E-1,2.274362838E-1
7.099936461E0,9.208321571E-4,1.600265503E-3,1.804838181E-1,1.804932613E-1
7.104912659E0,1.037883759E-2,-3.841400146E-3,1.508378983E-1,1.512433409E-1
7.109888804E0,-8.888602257E-3,7.078170776E-3,1.002378464E-1,1.008797978E-1
7.114894117E0,1.715707779E-2,1.316118240E-2,7.143402100E-2,7.463512173E-2
7.119870263E0,1.465994120E-2,5.044937134E-3,6.655597687E-2,6.833786157E-2
7.124846409E0,3.384083509E-2,3.508901596E-2,-1.436710358E-2,5.082179479E-2
7.129822607E0,5.290746689E-2,1.307821274E-2,-4.260158539E-2,6.917466862E-2
7.134798752E0,2.661615610E-2,1.106739044E-3,-2.802467346E-2,3.866557848E-2
7.139774950E0,-2.795642614E-2,-2.480411530E-2,-4.694080353E-2,6.000204108E-2
7.144743544E0,-4.429125786E-2,-5.143165588E-3,-4.204368591E-2,6.128490189E-2
7.149719742E0,-6.102323532E-3,-6.892204285E-3,-1.348304749E-2,1.632585072E-2
7.154695836E0,-8.731663227E-3,-1.812458038E-2,1.009654999E-2,2.250961302E-2
7.159672034E0,1.693880558E-2,-1.268100739E-2,5.965328217E-2,6.329490624E-2
7.164648232E0,2.574825287E-2,9.107112885E-3,1.089267731E-1,1.122985037E-1
7.169624377E0,-8.504033089E-3,-5.240440369E-3,1.413497925E-1,1.417023099E-1
7.174593179E0,-9.395062923E-3,1.342391968E-2,1.713371277E-1,1.721187966E-1
7.179569377E0,-1.028025150E-2,3.242969513E-3,1.726675034E-1,1.730036622E-1
7.184545523E0,-2.288025618E-2,-1.424264908E-2,1.978693008E-1,1.996963179E-1
7.189521669E0,-2.324754000E-2,1.104307175E-2,1.611471176E-1,1.631894331E-1
7.194497867E0,-6.137037277E-2,-6.683349609E-3,1.342344284E-1,1.477493539E-1
7.199474013E0,-8.215939999E-2,2.096843719E-2,1.074647903E-1,1.368887268E-1
7.204438700E0,-7.630664110E-2,2.012491226E-2,7.600975037E-2,1.095682332E-1
7.209414898E0,-1.551961899E-2,1.736497879E-2,1.366519928E-2,2.700256901E-2
7.214390992E0,-9.559154510E-3,1.756048203E-2,-2.710342407E-2,3.368001723E-2
7.219367190E0,-7.419586182E-4,8.835315704E-3,-3.462886810E-2,3.574593421E-2
7.224343388E0,-1.764696836E-2,1.726579666E-2,1.701545715E-2,2.998414596E-2
7.229319534E0,-1.785230637E-2,-2.738952637E-3,2.302455902E-2,2.926323670E-2
7.234288232E0,-5.652433634E-2,-2.481794357E-2,4.082870483E-2,7.401293171E-2
7.239264429E0,-1.241075397E-1,-3.753566742E-2,9.435081482E-2,1.603548689E-1
7.244240575E0,-1.613229513E-1,-2.689170837E-2,1.287755966E-1,2.081619871E-1
7.249216721E0,-1.424334049E-1,-4.318904877E-2,1.728982925E-1,2.281367755E-1
7.254192919E0,-1.080102324E-1,-2.664661407E-2,2.027702332E-1,2.312834188E-1
7.259169065E0,-6.005465984E-2,-1.554632187E-2,1.970901489E-1,2.066223054E-1
7.264137346E0,-9.613633156E-4,1.168298721E-2,1.085586548E-1,1.091897337E-1
7.269113544E0,2.917385101E-2,1.954221725E-2,4.459381104E-2,5.675931484E-2
7.274089690E0,1.187518239E-1,-9.603500366E-4,-6.648540497E-2,1.361000625E-1
7.279065836E0,1.154690981E-1,2.639102936E-2,-1.173839569E-1,1.667590849E-1
7.284042034E0,1.082689762E-1,3.495645523E-2,-1.206521988E-1,1.658344899E-1
7.289018179E0,1.280415654E-1,4.157114029E-2,-1.384744644E-1,1.931268481E-1
7.293988857E0,1.033869386E-1,4.853534698E-2,-1.564369202E-1,1.936931825E-1
7.298965002E0,6.558197737E-2,7.493734360E-2,-1.247005463E-1,1.595832932E-1
7.303941200E0,-2.286493778E-3,4.899501801E-2,-4.583358765E-2,6.713015418E-2
7.308917346E0,-1.931566000E-2,1.377058029E-2,2.996730804E-2,3.821993137E-2
7.313893544E0,-4.070663452E-2,-7.170200348E-3,9.100341797E-2,9.995030740E-2
7.318869690E0,-1.069902182E-1,-3.541755676E-2,1.018285751E-1,1.518893308E-1
7.323835211E0,-1.228458285E-1,-5.176544189E-2,5.329132080E-2,1.435643529E-1
7.328811096E0,-8.416801691E-2,-9.188556671E-2,3.614330292E-2,1.297441744E-1
7.333786929E0,-8.642864227E-2,-9.155464172E-2,1.454734802E-2,1.267429997E-1
7.338762815E0,-1.030396223E-1,-1.029629707E-1,3.107547760E-2,1.489436887E-1
7.343738700E0,-1.268462539E-1,-8.553743362E-2,3.785610199E-2,1.576061837E-1
7.348714586E0,-8.442455530E-2,-7.500600815E-2,2.779102325E-2,1.163002484E-1
7.353682242E0,-5.240279436E-2,-2.857875824E-2,1.037597656E-3,5.969819837E-2
7.358658127E0,-6.402355433E-2,3.388404846E-3,7.423400879E-2,9.808763865E-2
7.363633961E0,-4.253751040E-2,3.521585464E-2,1.539001465E-1,1.635079548E-1
7.368609846E0,-8.788007498E-2,1.469230652E-2,2.233161926E-1,2.404348006E-1
7.373585732E0,-7.589650154E-2,4.654550552E-2,2.850637436E-1,2.986437693E-1
7.378561617E0,-6.878840923E-2,3.263521194E-2,3.298625946E-1,3.385354245E-1
7.383535575E0,-1.043617129E-1,4.451322556E-2,3.483905792E-1,3.663997681E-1
7.388511461E0,-1.016303301E-1,1.293659210E-2,3.765830994E-1,3.902703039E-1
7.393487346E0,-9.417659044E-2,9.501457214E-3,3.716154099E-1,3.834807958E-1
7.398463179E0,-5.355477333E-2,1.994562149E-2,2.932653427E-1,2.987816976E-1
7.403439065E0,-8.455872536E-3,8.750438690E-3,1.776447296E-1,1.780610062E-1
7.408414950E0,-4.028081894E-3,2.844524384E-2,7.490348816E-2,8.022399815E-2
7.413382711E0,2.686101198E-2,-1.724243164E-3,6.148338318E-3,2.760958245E-2
7.418358596E0,2.252960205E-2,-5.202293396E-3,-3.612136841E-2,4.288822777E-2
7.423334429E0,-2.194046974E-4,5.922317505E-3,-6.399917603E-2,6.427298433E-2
7.428310315E0,-5.758583546E-3,-5.399370193E-2,-1.179752350E-1,1.298716182E-1
7.433286200E0,-6.292700768E-3,-5.831766129E-2,-1.266250610E-1,1.395509003E-1
7.438262086E0,-3.560143709E-2,-2.908086777E-2,-1.472015381E-1,1.542123601E-1
7.443231044E0,-8.397471905E-2,-5.220079422E-2,-1.914157867E-1,2.154453058E-1
7.448206929E0,-8.717525005E-2,-8.211660385E-2,-1.426591873E-1,1.862640722E-1
7.453182763E0,-4.786169529E-2,-8.328437805E-2,-7.290458679E-2,1.205906641E-1
7.458158648E0,-5.204832554E-2,-6.310844421E-2,-3.693103790E-2,8.975302492E-2
7.463134534E0,-6.588995457E-3,-1.715326309E-2,-6.290245056E-2,6.553142439E-2
7.468110419E0,9.642481804E-3,-1.434469223E-2,-6.724739075E-2,6.943312763E-2
7.473043232E0,-1.493847370E-2,-1.635408401E-2,-8.101272583E-2,8.398616438E-2
7.478019065E0,1.995414495E-2,-2.077007294E-2,-7.324790955E-2,7.870717936E-2
7.482994950E0,6.387478113E-2,-1.569223404E-2,-7.976245880E-2,1.033841560E-1
7.487970836E0,6.439459324E-2,1.314353943E-2,-2.446079254E-2,7.012664714E-2
7.492946721E0,6.740462780E-2,2.048683167E-2,-5.330085754E-3,7.065057632E-2
7.497922607E0,5.166631937E-2,1.596784592E-2,2.308177948E-2,5.879752720E-2
7.502925888E0,-4.031956196E-3,2.094841003E-2,8.451080322E-2,8.716173710E-2
7.507901773E0,1.227575541E-2,1.876592636E-2,1.477785110E-1,1.494702060E-1
7.512877607E0,1.688808203E-2,3.086233139E-2,1.511020660E-1,1.551435631E-1
7.517853492E0,5.988639593E-2,2.142477036E-2,1.710214615E-1,1.824657269E-1
7.522829377E0,4.837518930E-2,1.899814606E-2,1.789608002E-1,1.863546525E-1
7.527805263E0,1.119339466E-2,3.080654144E-2,1.630706787E-1,1.663321416E-1
7.532778075E0,-4.008173943E-3,-2.169704437E-2,1.734600067E-1,1.748576596E-1
7.537753961E0,-1.281499863E-5,-4.300689697E-2,1.576938629E-1,1.634531974E-1
7.542729794E0,-1.053333282E-2,-3.586292267E-2,1.421995163E-1,1.470299383E-1
7.547705679E0,-3.081411123E-2,-2.882099152E-2,1.625175476E-1,1.679050693E-1
7.552681565E0,-4.428553581E-2,-1.246261597E-2,1.756448746E-1,1.815699519E-1
7.557657450E0,-5.086106062E-2,3.710269928E-3,1.625862122E-1,1.703962734E-1
7.562627242E0,-7.922077179E-2,1.257562637E-2,8.555698395E-2,1.172777667E-1
7.567603127E0,-9.590476751E-2,-4.576683044E-3,9.105682373E-3,9.644471946E-2
7.572578961E0,-7.455450296E-2,-4.685401917E-3,-3.596210480E-2,8.290717632E-2
7.577554846E0,-1.513826847E-2,-1.887655258E-2,-9.496688843E-3,2.599381674E-2
7.582530732E0,7.291936874E-2,5.121231079E-4,-1.191520691E-2,7.388821803E-2
7.587506617E0,8.704513311E-2,-2.760601044E-2,-2.869033813E-2,9.571876782E-2
7.592419273E0,2.046012878E-2,-2.694320679E-2,-4.536151886E-2,5.658816709E-2
7.597395107E0,-2.423042059E-2,-1.206588745E-2,2.839660645E-2,3.923093396E-2
7.602370992E0,-2.369183302E-2,-1.900625229E-2,3.521537781E-2,4.650444508E-2
7.607346825E0,-2.359277010E-2,-1.904153824E-2,4.453468323E-2,5.387519828E-2
7.612322711E0,-4.293686152E-2,-5.502748489E-2,7.298469543E-2,1.009869493E-1
7.617298596E0,-8.377236128E-2,-6.477403641E-2,7.993984222E-2,1.326795488E-1
7.622321982E0,-1.175444126E-1,-7.933235168E-2,6.318855286E-2,1.552517445E-1
7.627297867E0,-8.707064390E-2,-1.128506660E-1,4.900741577E-2,1.507258991E-1
7.632273700E0,-2.118015289E-2,-8.430337906E-2,8.797645569E-3,8.736736899E-2
7.637249586E0,1.110637188E-2,-6.534814835E-2,-7.415771484E-3,6.669876802E-2
7.642225471E0,5.075579882E-2,-2.517032623E-2,-2.353382111E-2,6.134767454E-2
7.647201357E0,6.461149454E-2,-4.220581055E-2,-2.538776398E-2,8.124354885E-2
7.652171357E0,9.045875072E-2,-5.165100098E-2,-5.829715729E-2,1.193698875E-1
7.657147242E0,7.801198959E-2,-2.994823456E-2,-8.865070343E-2,1.218265755E-1
7.662123075E0,4.901576042E-2,-4.606389999E-2,-1.617059708E-1,1.751377990E-1
7.667098961E0,4.858672619E-2,-3.774642944E-2,-1.584091187E-1,1.699379645E-1
7.672074846E0,5.268561840E-2,-2.676248550E-2,-1.553125381E-1,1.661745754E-1
7.677050732E0,7.797372341E-2,-4.164505005E-2,-1.381664276E-1,1.640249172E-1
7.682020471E0,8.628803492E-2,-2.525520325E-2,-8.803462982E-2,1.258314202E-1
7.686996357E0,5.396723747E-2,-1.371288300E-2,-3.595161438E-2,6.627989482E-2
7.691969065E0,-2.819949389E-2,-5.937194824E-2,1.101493835E-2,6.664509405E-2
7.696944950E0,-8.853745461E-2,-5.982112885E-2,1.147842407E-1,1.568211409E-1
7.701931825E0,-7.252603769E-2,-7.719612122E-2,1.798524857E-1,2.087251395E-1
7.706907659E0,-3.293842077E-2,-4.974460602E-2,2.232427597E-1,2.310774657E-1
7.711883544E0,3.733623028E-2,-2.772426605E-2,2.261171341E-1,2.308497073E-1
7.716859377E0,2.881890535E-2,-4.180383682E-2,1.792144775E-1,1.862684059E-1
7.721835263E0,5.132460594E-2,-4.179239273E-2,1.613521576E-1,1.743999370E-1
7.726811148E0,3.325849771E-2,-2.282333374E-2,8.189868927E-2,9.129308592E-2
7.731787034E0,1.545912027E-2,-2.754116058E-2,1.003761292E-1,1.052276923E-1
7.736743596E0,2.184689045E-2,-2.254915237E-2,1.447181702E-1,1.480847719E-1
7.741719482E0,3.311657906E-2,8.617401123E-3,1.221160889E-1,1.268199770E-1
7.746695367E0,2.300959826E-2,3.009891510E-2,1.210336685E-1,1.268248210E-1
7.751671252E0,-3.687524796E-2,1.571893692E-2,9.147834778E-2,9.987570777E-2
7.756647086E0,-8.452391624E-2,8.684635162E-3,8.588314056E-2,1.208123716E-1
7.761622971E0,-7.958662510E-2,-3.386640549E-2,6.605720520E-2,1.088325258E-1
7.766593232E0,-4.353725910E-2,-2.387857437E-2,1.010532379E-1,1.125941212E-1
7.771569117E0,-5.253398418E-2,-2.575588226E-2,1.071691513E-1,1.221000080E-1
7.776545002E0,-3.980219364E-2,-1.349449158E-2,5.626678467E-2,7.023010023E-2
7.781520836E0,-2.722501755E-2,-1.567363739E-2,3.196811676E-2,4.481991721E-2
7.786496721E0,-6.938749552E-2,-5.342864990E-2,7.852554321E-3,8.792558089E-2
7.791472607E0,-6.631773710E-2,-4.349279404E-2,-4.685306549E-2,9.211338195E-2
7.796441304E0,-4.968571663E-2,-5.991220474E-2,-8.434677124E-2,1.147716016E-1
7.801417190E0,-5.733579397E-2,-6.204557419E-2,-1.190662384E-1,1.459925192E-1
7.806393023E0,-5.163508654E-2,-1.655769348E-2,-1.819725037E-1,1.898797816E-1
7.811368909E0,-4.194223881E-2,-2.353048325E-2,-1.755018234E-1,1.819717700E-1
7.816344794E0,-4.234671593E-3,-2.547168732E-2,-1.572895050E-1,1.593948797E-1
7.821320679E0,4.008269310E-2,-2.484846115E-2,-1.107959747E-1,1.204151831E-1
7.826291148E0,8.646106720E-2,-3.991127014E-4,-2.197360992E-2,8.921050928E-2
7.831267034E0,1.161451936E-1,-4.666805267E-3,6.371212006E-2,1.325545899E-1
7.836242867E0,7.733750343E-2,3.156948090E-2,1.414604187E-1,1.642825968E-1
7.841218804E0,3.728091717E-2,5.795955658E-2,2.398967743E-1,2.495989569E-1
7.846194638E0,3.145676851E-2,4.841232300E-2,2.614850998E-1,2.677830068E-1
7.851170523E0,-7.278740406E-3,5.717277527E-4,2.403020859E-1,2.404129768E-1
7.856138961E0,9.035944939E-3,1.709365845E-2,2.288827896E-1,2.296980036E-1
7.861114846E0,-4.584872723E-2,3.563356400E-2,1.915254593E-1,2.001346003E-1
7.866090679E0,-8.339768648E-2,2.543258667E-2,1.948862076E-1,2.135008770E-1
7.871066565E0,-4.176366329E-2,9.908676147E-4,2.100954056E-1,2.142084612E-1
7.876042450E0,9.760141373E-3,-2.328634262E-2,1.823759079E-1,1.841154146E-1
7.881018336E0,3.075855970E-2,-3.302383423E-2,1.476526260E-1,1.543954682E-1
7.885986304E0,-1.221442223E-2,-5.675268173E-2,1.083440781E-1,1.229166313E-1
7.890962190E0,-6.691133976E-2,-8.251762390E-2,9.918212891E-3,1.066989062E-1
7.895938023E0,-8.138912916E-2,-5.576372147E-2,-6.627941132E-2,1.188559773E-1
7.900913961E0,-1.108483076E-1,-6.236362457E-2,-8.720111847E-2,1.542096107E-1
7.905889794E0,-1.052801609E-1,-4.506492615E-2,-7.941722870E-2,1.393623194E-1
7.910865679E0,-7.212734222E-2,-4.938268661E-2,-1.238403320E-1,1.515830831E-1
7.915835523E0,-6.113290787E-2,-3.676652908E-2,-1.537408829E-1,1.694853066E-1
7.920811409E0,-6.261360645E-2,-4.102993011E-2,-1.405134201E-1,1.592103643E-1
7.925787242E0,-5.732339621E-2,-1.140561104E-1,-9.653186798E-2,1.600411497E-1
