"Time (s)","Linear Acceleration x (m/s^2)","Linear Acceleration y (m/s^2)","Linear Acceleration z (m/s^2)","Absolute acceleration (m/s^2)"
6.621776400E-2,4.752789736E-1,-2.518663406E-1,-2.064609528E-1,5.761535223E-1
7.122094100E-2,4.162853062E-1,-2.446627617E-1,-2.473697662E-1,5.425358277E-1
7.622411800E-2,3.614380658E-1,-2.080078125E-1,-2.651453018E-1,4.941728003E-1
8.122729500E-2,3.238784075E-1,-2.069649696E-1,-2.509317398E-1,4.590190187E-1
8.606463900E-2,2.707236409E-1,-1.813001633E-1,-2.318611145E-1,3.999007569E-1
9.106786800E-2,1.901130080E-1,-1.706280708E-1,-1.813220978E-1,3.132644211E-1
9.607099300E-2,1.583290696E-1,-1.316390038E-1,-1.789016724E-1,2.727686382E-1
1.010741700E-1,1.572488546E-1,-7.461786270E-2,-1.213417053E-1,2.121764293E-1
1.060773470E-1,1.579334736E-1,-5.300617218E-2,-2.733993530E-2,1.688197513E-1
1.110805250E-1,1.353762746E-1,-6.640911102E-2,8.856105804E-2,1.748712862E-1
1.159117750E-1,1.283628345E-1,-5.492353439E-2,2.062816620E-1,2.490898151E-1
1.209149520E-1,1.290369630E-1,-2.444553375E-2,3.289451599E-1,3.541935067E-1
1.259181290E-1,7.822000980E-2,-3.238296509E-2,4.098691940E-1,4.185209464E-1
1.309212540E-1,-3.612816334E-3,-4.197597504E-3,4.155616760E-1,4.155985790E-1
1.359244310E-1,-7.897096872E-2,-6.532669067E-4,3.861865997E-1,3.941788052E-1
1.409276080E-1,-1.192818284E-1,5.251026154E-2,3.640785217E-1,3.867022784E-1
1.457369830E-1,-1.653254628E-1,1.030364037E-1,3.190088272E-1,3.737855548E-1
1.507401600E-1,-2.580656409E-1,1.170659065E-1,2.448034286E-1,3.744743251E-1
1.557433370E-1,-3.591275811E-1,1.099061966E-1,2.546625137E-1,4.537675478E-1
1.607464620E-1,-4.226598144E-1,1.512265205E-1,2.532720566E-1,5.154197453E-1
1.657496390E-1,-4.182900786E-1,2.024192810E-1,2.226476669E-1,5.152787001E-1
1.707528160E-1,-3.991030157E-1,2.356557846E-1,1.568365097E-1,4.893000682E-1
1.755888060E-1,-3.327377439E-1,2.587699890E-1,2.449321747E-2,4.222277005E-1
1.805919830E-1,-2.366288006E-1,2.676348686E-1,-3.384971619E-2,3.588417694E-1
1.855951600E-1,-1.208380163E-1,2.326455116E-1,-1.064558029E-1,2.829462815E-1
1.905982850E-1,-3.449130058E-2,1.990857124E-1,-9.108448029E-2,2.216329246E-1
1.956014620E-1,6.068384647E-2,1.644449234E-1,-2.527523041E-2,1.770974289E-1
2.006046390E-1,1.000259519E-1,1.470890045E-1,3.157901764E-2,1.806587962E-1
2.054385970E-1,1.481559873E-1,1.416521072E-1,1.287193298E-1,2.420416946E-1
2.104417750E-1,1.769776940E-1,8.751487732E-2,1.859741211E-1,2.712311406E-1
2.154449520E-1,1.545201540E-1,6.043195724E-2,2.092294693E-1,2.670308414E-1
2.204480770E-1,6.587177515E-2,-1.029729843E-2,1.924896240E-1,2.037090584E-1
2.254512540E-1,-4.787263274E-2,-5.110692978E-2,1.459980011E-1,1.619232027E-1
2.304544310E-1,-1.375892758E-1,-6.520605087E-2,7.983112335E-2,1.719175563E-1
2.352877120E-1,-1.998074055E-1,-4.156970978E-2,-5.605697632E-3,2.041628367E-1
2.402908890E-1,-2.119794786E-1,-4.424571991E-3,-1.052942276E-1,2.367313890E-1
2.452940660E-1,-2.270198464E-1,-6.136894226E-4,-1.746912003E-1,2.864531423E-1
2.502971910E-1,-2.027045190E-1,4.076147079E-2,-1.888494492E-1,2.800263095E-1
2.553003680E-1,-1.421186030E-1,2.294206619E-2,-1.911888123E-1,2.393265502E-1
2.603035450E-1,-6.251779199E-2,-2.015018463E-2,-1.701669693E-1,1.824042261E-1
2.651389100E-1,-2.708679438E-2,-2.233362198E-2,-1.802158356E-1,1.836034654E-1
2.701420870E-1,2.951502800E-3,-3.359603882E-2,-1.902828217E-1,1.932484344E-1
2.751452120E-1,3.069478273E-2,-4.924345016E-2,-1.393508911E-1,1.509495211E-1
2.801483890E-1,4.658681154E-2,-6.690120697E-2,-3.094768524E-2,8.720012457E-2
2.851515660E-1,-4.875785112E-2,-1.201844215E-1,2.117881775E-1,2.483462409E-1
2.901547430E-1,-3.527574539E-1,-1.386127472E-1,7.534503937E-1,8.434090412E-1
2.949789100E-1,-2.914122641E-1,-3.075790405E-2,7.615194321E-1,8.159528183E-1
2.999820870E-1,-1.747498512E-1,3.445672989E-2,4.528751373E-1,4.866422369E-1
3.049852640E-1,-1.543417275E-1,4.204082489E-2,1.925296783E-1,2.503127581E-1
3.099884410E-1,-1.652046144E-1,2.607822418E-2,-8.884429932E-3,1.674860337E-1
3.149916180E-1,-1.903248131E-1,3.178071976E-2,-1.620426178E-1,2.519749167E-1
3.199947950E-1,-2.103876472E-1,6.613969803E-2,-2.539815903E-1,3.363689491E-1
3.248557330E-1,-2.298928201E-1,6.754779816E-2,-2.741184235E-1,3.640801064E-1
3.298589100E-1,-2.442243546E-1,8.593130112E-2,-3.154668808E-1,4.081042474E-1
3.348620870E-1,-2.161278129E-1,1.117019653E-1,-4.177646637E-1,4.834416974E-1
3.398652120E-1,-2.168278098E-1,1.117329597E-1,-4.716796875E-1,5.310181551E-1
3.448683890E-1,-1.940090060E-1,9.110546112E-2,-4.780044556E-1,5.238587205E-1
3.498715660E-1,-1.243673265E-1,1.044278145E-1,-5.176916122E-1,5.425652087E-1
3.547144310E-1,-5.764567852E-2,8.306837082E-2,-5.078887939E-1,5.178555836E-1
3.597175560E-1,-4.548433423E-2,4.897785187E-2,-4.070358276E-1,4.124873569E-1
3.647207850E-1,-3.531205654E-2,-5.105972290E-3,-2.728757858E-1,2.751984862E-1
3.697239100E-1,1.520207524E-2,-1.349306107E-2,-2.054500580E-2,2.890091784E-2
3.747270870E-1,7.217279077E-2,-1.269388199E-2,2.046203613E-1,2.173465864E-1
3.797302640E-1,7.179355621E-2,-7.981777191E-3,3.537874222E-1,3.610866428E-1
3.845671390E-1,3.878268600E-2,-4.444456100E-2,4.730587006E-1,4.767220888E-1
3.895703160E-1,-5.721649528E-2,-9.526824951E-2,5.438756943E-1,5.551130853E-1
3.945734930E-1,-1.096537411E-1,-1.390404701E-1,5.055866241E-1,5.356995705E-1
3.995766180E-1,-1.832385957E-1,-1.214928627E-1,4.470767975E-1,4.982113623E-1
4.045797950E-1,-2.401902229E-1,-7.175540924E-2,3.567705154E-1,4.360336943E-1
4.095829720E-1,-2.122952044E-1,1.248598099E-2,2.017774582E-1,2.931540485E-1
4.144153680E-1,-2.021121681E-1,6.731414795E-2,2.761840820E-2,2.148099147E-1
4.194184930E-1,-1.456180215E-1,3.887748718E-2,-1.324834824E-1,2.006687327E-1
4.244217220E-1,-1.211206913E-1,3.248405457E-2,-2.434272766E-1,2.738289149E-1
4.294248470E-1,-4.045033455E-2,7.167768478E-2,-2.445077896E-1,2.579883316E-1
4.344280250E-1,7.247701287E-2,8.724784851E-2,-2.127952576E-1,2.411367374E-1
4.394312020E-1,1.959889829E-1,7.926034927E-2,-1.793088913E-1,2.772103225E-1
4.442670350E-1,2.642392218E-1,9.270715714E-2,-9.426403046E-2,2.954702874E-1
4.492702120E-1,2.944117486E-1,4.926204681E-2,1.096725464E-2,2.987060556E-1
4.542733890E-1,2.681480646E-1,2.052545547E-2,8.177280426E-2,2.810897906E-1
4.592765140E-1,2.285452485E-1,-1.265335083E-2,1.470155716E-1,2.720415707E-1
4.642796910E-1,1.944541335E-1,-6.220102310E-2,1.216402054E-1,2.376504090E-1
4.692828680E-1,2.223352790E-1,-5.186557770E-2,6.572914124E-2,2.375780597E-1
4.741179720E-1,2.639203668E-1,-3.912353516E-2,1.275920868E-2,2.671093566E-1
4.791211500E-1,2.430676222E-1,-1.929426193E-2,2.192020416E-2,2.448155078E-1
4.841243270E-1,1.747288704E-1,-4.948234558E-2,5.708885193E-2,1.903623326E-1
4.891274520E-1,1.494312286E-1,-5.584287643E-2,9.674072266E-2,1.865660375E-1
4.941306290E-1,1.740100384E-1,-4.347038269E-2,1.645669937E-1,2.434162341E-1
4.991338060E-1,2.147054672E-1,-5.525684357E-2,2.366094589E-1,3.242464995E-1
5.039677120E-1,2.173991203E-1,-4.363489151E-2,2.891540527E-1,3.643850264E-1
5.089708890E-1,2.748597264E-1,-4.212379456E-2,3.035163879E-1,4.116363456E-1
5.139740660E-1,2.941610813E-1,-1.508569717E-2,2.824783325E-1,4.081082312E-1
5.189771910E-1,3.304147720E-1,-1.243066788E-2,2.144651413E-1,3.941113293E-1
5.239803680E-1,3.242799044E-1,1.785278320E-3,1.235752106E-1,3.470323850E-1
5.289835450E-1,2.666980624E-1,6.342887878E-3,-6.705284119E-3,2.668577328E-1
5.338163060E-1,1.936424375E-1,-7.133483887E-4,-8.132171631E-2,2.100264840E-1
5.388139620E-1,1.049202681E-1,-3.823804855E-2,-1.838321686E-1,2.150922528E-1
5.438115660E-1,5.047917366E-4,-6.786537170E-2,-2.642307281E-1,2.728073335E-1
5.488091700E-1,-5.338424444E-2,-3.506422043E-2,-2.705774307E-1,2.780135305E-1
5.538068270E-1,-7.402068377E-2,-2.121877670E-2,-2.580690384E-1,2.693119505E-1
5.588044310E-1,-1.209228039E-1,-2.336502075E-4,-2.078104019E-1,2.404319909E-1
5.636333370E-1,-1.416959465E-1,-2.436113358E-2,-1.343898773E-1,1.968040782E-1
5.686309930E-1,-1.318789423E-1,-1.965332031E-2,-1.257896423E-1,1.833066898E-1
5.736285450E-1,-1.176775992E-1,-1.270055771E-2,-8.162117004E-2,1.437753001E-1
5.786262020E-1,-6.801825762E-2,1.303625107E-2,-5.915164948E-2,9.107878374E-2
5.836238580E-1,-4.485809803E-2,-1.121759415E-2,-6.068325043E-2,7.629246529E-2
5.886214100E-1,-6.696215272E-2,-1.626729965E-2,-1.120538712E-1,1.315470447E-1
5.934907330E-1,-8.887276053E-2,-1.408720016E-2,-1.725025177E-1,1.945608784E-1
5.984883890E-1,-9.641104937E-2,-9.326457977E-3,-1.969356537E-1,2.194669108E-1
6.034859930E-1,-8.957853913E-2,7.585048676E-3,-1.643695831E-1,1.873478249E-1
6.084835970E-1,-7.579100132E-2,-3.951072693E-3,-2.200593948E-1,2.327789168E-1
6.134812540E-1,-7.180023193E-2,-3.224849701E-3,-2.065649033E-1,2.187115274E-1
6.184789100E-1,-5.836015940E-2,2.381229401E-2,-1.956863403E-1,2.055871527E-1
6.233708370E-1,-2.350485325E-2,2.470493317E-2,-1.494159698E-1,1.532577694E-1
6.283684410E-1,1.111209393E-2,-5.049705505E-4,-1.178197861E-1,1.183437181E-1
6.333660450E-1,1.193848848E-1,5.498409271E-3,-1.008386612E-1,1.563694945E-1
6.383636500E-1,2.055515647E-1,4.259872437E-2,-6.515979767E-2,2.197996731E-1
6.433613060E-1,2.508849502E-1,-2.515459061E-2,-8.404731750E-3,2.522828792E-1
6.483589100E-1,1.964840293E-1,-5.930042267E-2,9.785747528E-2,2.273732600E-1
6.532199000E-1,1.499652267E-1,-8.863782883E-2,1.582050323E-1,2.353190731E-1
6.582175560E-1,5.163538456E-2,-9.884500504E-2,1.777276993E-1,2.098182143E-1
6.632151600E-1,-1.498281956E-2,-1.091618538E-1,1.758155823E-1,2.074895520E-1
6.682127640E-1,-5.766546726E-2,-9.105634689E-2,1.431570053E-1,1.791940083E-1
6.732104200E-1,-1.101027131E-1,-7.303810120E-2,1.202783585E-1,1.786730399E-1
6.782080250E-1,-1.126170754E-1,-6.707763672E-2,7.625293732E-2,1.516460533E-1
6.830688060E-1,-1.370775104E-1,-7.062101364E-2,3.735828400E-2,1.586606845E-1
6.880664620E-1,-1.073308885E-1,-6.916093826E-2,-1.554679871E-2,1.286268166E-1
6.930640660E-1,-3.546768427E-2,-4.390239716E-2,-2.287769318E-2,6.089963833E-2
6.980616700E-1,1.663035154E-2,-1.629304886E-2,1.727104187E-2,2.898828937E-2
7.030593270E-1,1.253373623E-1,-1.989603043E-2,9.990024567E-2,1.615096452E-1
7.080569310E-1,2.215494514E-1,-3.810453415E-2,1.915349960E-1,2.953333195E-1
7.129194310E-1,2.769439220E-1,-6.829261780E-2,2.587680817E-1,3.851269111E-1
7.179170870E-1,2.897918224E-1,-8.194446564E-2,2.709484100E-1,4.051015141E-1
7.229146910E-1,2.795117497E-1,-8.140039444E-2,2.213077545E-1,3.656910782E-1
7.279122950E-1,2.413627505E-1,-5.252647400E-2,1.673870087E-1,2.983846821E-1
7.329099520E-1,1.967238188E-1,-4.064226151E-2,9.495449066E-2,2.221900304E-1
7.379075560E-1,1.500908136E-1,-6.450271606E-2,-2.998352051E-3,1.633916853E-1
7.427690660E-1,9.178704023E-2,-5.942440033E-2,-9.312438965E-2,1.436254576E-1
7.477667220E-1,4.549586773E-2,-5.420255661E-2,-1.968317032E-1,2.091662270E-1
7.527643270E-1,-2.944868803E-2,-6.518507004E-2,-2.476329803E-1,2.577564966E-1
7.577619310E-1,-5.886650085E-2,-8.516168594E-2,-2.625923157E-1,2.822631785E-1
7.627595870E-1,-5.252730846E-2,-9.975481033E-2,-3.038063049E-1,3.240500135E-1
7.677571910E-1,-5.328565836E-2,-8.054542542E-2,-2.784013748E-1,2.946765217E-1
7.726166180E-1,-2.284097672E-2,-6.351041794E-2,-2.415513992E-1,2.508034327E-1
7.776142750E-1,5.772286654E-2,-6.288051605E-2,-9.834480286E-2,1.302213073E-1
7.826119310E-1,1.359244585E-1,-6.947326660E-2,8.642959595E-2,1.754196917E-1
7.876094830E-1,1.618199944E-1,-7.392835617E-2,2.721605301E-1,3.251499140E-1
7.926071390E-1,1.663964987E-1,-1.052427292E-1,3.997344971E-1,4.455911747E-1
7.976047430E-1,1.400963068E-1,-1.015152931E-1,4.340639114E-1,4.672727353E-1
8.024702640E-1,9.952944517E-2,-1.103625298E-1,3.829708099E-1,4.107951310E-1
8.074679200E-1,7.333314419E-2,-9.341526031E-2,3.016633987E-1,3.241989621E-1
8.124655250E-1,-1.007682085E-2,-8.156681061E-2,1.784162521E-1,1.964358571E-1
8.174631290E-1,-7.876288891E-2,-4.127073288E-2,6.331634521E-2,1.091596337E-1
8.224607850E-1,-9.496462345E-2,8.476257324E-3,-3.444671631E-3,9.540436263E-2
8.274584410E-1,-1.278977096E-1,8.641958237E-2,-6.493854523E-2,1.674609895E-1
8.323208370E-1,-1.463433504E-1,1.259946823E-1,-1.403303146E-1,2.387124492E-1
8.373184930E-1,-1.763365865E-1,1.584081650E-1,-1.630058289E-1,2.876780122E-1
8.423160970E-1,-2.295077145E-1,1.672768593E-1,-1.311426163E-1,3.128157996E-1
8.473137020E-1,-2.460720241E-1,1.192216873E-1,-1.210517883E-1,2.990297431E-1
8.523113580E-1,-2.737631202E-1,8.581304550E-2,-2.318859100E-2,2.878329993E-1
8.573089620E-1,-2.821002603E-1,8.103227615E-2,6.918525696E-2,3.015516314E-1
8.621695870E-1,-2.808645964E-1,8.789587021E-2,5.641746521E-2,2.996556955E-1
8.671672430E-1,-2.918358445E-1,8.513689041E-2,4.618930817E-2,3.074896786E-1
8.721648470E-1,-2.389511764E-1,6.797599792E-2,7.659912109E-3,2.485499452E-1
8.771624520E-1,-1.655391455E-1,1.783847809E-2,-6.147766113E-2,1.774849932E-1
8.821601080E-1,-1.453919113E-1,2.778482437E-2,-1.111612320E-1,1.851151637E-1
8.871577640E-1,-1.210479140E-1,6.992340088E-3,-1.462764740E-1,1.899955188E-1
8.919869830E-1,-1.042334735E-1,5.702495575E-3,-1.456317902E-1,1.791807852E-1
8.969846390E-1,-1.326315105E-1,-2.525329590E-3,-1.047096252E-1,1.690017766E-1
9.019821910E-1,-1.580835879E-1,3.594875336E-3,-4.753684998E-2,1.651154020E-1
9.069798470E-1,-2.210416496E-1,1.191234589E-2,4.459381104E-3,2.214073190E-1
9.119774520E-1,-3.330341578E-1,2.241992950E-2,3.705883026E-2,3.358388905E-1
9.169750560E-1,-3.489526808E-1,3.510284424E-2,4.331111908E-2,3.533780358E-1
9.218706290E-1,-2.696064711E-1,8.546829224E-2,-7.388114929E-3,2.829258957E-1
9.268682850E-1,-1.790897250E-1,1.022305489E-1,-2.206993103E-2,2.073916502E-1
9.318658890E-1,-1.298782527E-1,1.377286911E-1,-1.991748810E-2,1.903529858E-1
9.368635450E-1,-1.216647029E-1,1.064133644E-1,-3.677272797E-2,1.657659120E-1
9.418611500E-1,-1.538741291E-1,7.059860229E-2,-2.497768402E-2,1.711294684E-1
9.468587540E-1,-1.476899087E-1,1.342487335E-2,1.536941528E-2,1.490931095E-1
9.516840140E-1,-1.318306923E-1,1.824378967E-2,3.412246704E-2,1.373918122E-1
9.566816180E-1,-1.205917299E-1,2.769184113E-2,4.799556732E-2,1.327131413E-1
9.616792750E-1,-1.354535520E-1,6.083393097E-2,-1.665592194E-2,1.494183779E-1
9.666768790E-1,-1.338507831E-1,6.064319611E-2,-1.046161652E-1,1.803834011E-1
9.716744830E-1,-8.999809623E-2,2.269411087E-2,-1.610670090E-1,1.858958347E-1
9.766720870E-1,-6.863170862E-2,2.358484268E-2,-1.911506653E-1,2.044630360E-1
9.815386500E-1,-1.406814754E-1,-3.690814972E-2,-1.855239868E-1,2.357384965E-1
9.865362540E-1,-2.081700265E-1,-8.919858932E-2,-1.041908264E-1,2.492927528E-1
9.915339100E-1,-1.286075115E-1,-8.863019943E-2,1.681327820E-2,1.570919813E-1
9.965315140E-1,-6.729808450E-2,-6.455135345E-2,2.367782593E-1,2.544795738E-1
1.001529118E0,4.036635160E-2,6.753444672E-3,3.243446350E-1,3.269166463E-1
1.006526775E0,1.135801673E-1,7.239198685E-2,4.018793106E-1,4.238490704E-1
1.011421775E0,2.698748708E-1,6.080961227E-2,5.954942703E-1,6.566153218E-1
1.016419431E0,4.971837401E-1,4.844665527E-2,7.261447906E-1,8.813767678E-1
1.021417035E0,6.503487229E-1,5.650043488E-2,8.656978607E-1,1.084241000E0
1.026414639E0,6.586896181E-1,1.812696457E-2,8.526315689E-1,1.077581177E0
1.031412295E0,5.249176025E-1,-4.943275452E-2,7.309103012E-1,9.012280261E-1
1.036409900E0,2.971854806E-1,-5.788135529E-2,6.486759186E-1,7.158560669E-1
1.041273389E0,1.516009569E-1,-5.003929138E-2,4.818677902E-1,5.076252043E-1
1.046266514E0,-1.283800602E-2,-4.962587357E-2,2.952766418E-1,2.996929044E-1
1.051259639E0,-1.272313595E-1,7.868766785E-3,9.366130829E-2,1.581839973E-1
1.056252712E0,-1.894569695E-1,8.144378662E-4,-4.209613800E-2,1.940790855E-1
1.061245837E0,-2.508637309E-1,-1.998710632E-2,-4.395389557E-2,2.554682776E-1
1.066238962E0,-3.624498546E-1,-5.207204819E-2,-1.269044876E-1,3.875385714E-1
1.071086566E0,-2.245615721E-1,-5.948638916E-2,-5.420303345E-1,5.897146883E-1
1.076079691E0,-3.166365623E-2,-2.616214752E-2,-3.955430984E-1,3.976699483E-1
1.081072816E0,1.896853447E-1,-1.218605042E-2,3.833770752E-3,1.901150378E-1
1.086065889E0,3.040592074E-1,-2.234935760E-2,2.932167053E-2,3.062862318E-1
1.091059014E0,3.422490954E-1,-4.448604584E-2,-9.739398956E-2,3.586070842E-1
1.096052139E0,3.546534777E-1,-8.107328415E-2,-1.278667450E-1,3.856188158E-1
1.100943337E0,2.800730467E-1,-1.198549271E-1,-1.770944595E-1,3.523755988E-1
1.105936462E0,8.582144976E-2,-1.131424904E-1,-3.447685242E-1,3.728697891E-1
1.110929587E0,-1.515505314E-1,-7.494115829E-2,-4.781808853E-1,5.071890179E-1
1.115922660E0,-3.754836321E-1,-4.795360565E-2,-5.872392654E-1,6.986683485E-1
1.120915785E0,-6.054499149E-1,-6.039619446E-2,-6.651020050E-1,9.014310716E-1
1.125908910E0,-7.747320533E-1,2.587747574E-2,-7.571997643E-1,1.083619343E0
1.130824900E0,-1.116447210E0,8.682918549E-2,-7.852082253E-1,1.367678924E0
1.135818025E0,-1.004946470E0,1.344523430E-1,-8.279657364E-1,1.309015699E0
1.140811150E0,-5.394319296E-1,2.231392860E-1,-7.402157784E-1,9.427074552E-1
1.145804222E0,-4.038666487E-1,3.071417809E-1,-6.013412476E-1,7.868008893E-1
1.150797347E0,-4.680034518E-1,2.982888222E-1,-3.071765900E-1,6.343192491E-1
1.155790472E0,-2.954479158E-1,2.635874748E-1,-2.151899338E-1,4.506379205E-1
1.160673806E0,-5.691015720E-2,2.933335304E-1,-1.976785660E-1,3.582738359E-1
1.165666931E0,9.497517347E-2,2.947163582E-1,-1.972122192E-1,3.671112567E-1
1.170660056E0,1.253582239E-1,2.818527222E-1,-1.778125763E-1,3.560518973E-1
1.175653129E0,1.305515170E-1,2.360787392E-1,-6.613636017E-2,2.777604864E-1
1.180646254E0,1.205365062E-1,1.813569069E-1,-3.086090088E-3,2.177817737E-1
1.185639379E0,1.230150461E-1,9.866333008E-2,-3.327751160E-2,1.611662094E-1
1.190525368E0,4.826301336E-2,-3.113746643E-2,-3.921699524E-2,6.954734352E-2
1.195518493E0,-1.180028915E-1,-1.411623955E-1,2.117490768E-1,2.805159102E-1
1.200511618E0,-1.976324916E-1,-2.343974113E-1,2.664203644E-1,4.061779890E-1
1.205504691E0,-1.203388572E-1,-2.797307968E-1,1.119928360E-1,3.244582478E-1
1.210497816E0,1.514971256E-3,-2.465481758E-1,1.515617371E-1,2.894119180E-1
1.215490941E0,9.774750471E-2,-2.021493912E-1,3.739919662E-1,4.362212075E-1
1.220375420E0,2.079744935E-1,-1.919779778E-1,5.996189117E-1,6.630624203E-1
1.225368545E0,2.848457098E-1,-1.849594116E-1,7.429285049E-1,8.168780973E-1
1.230361670E0,3.500474095E-1,-1.647529602E-1,7.335033417E-1,8.292791322E-1
1.235354743E0,4.326963425E-1,-1.480193138E-1,7.150707245E-1,8.488003199E-1
1.240347868E0,5.375450253E-1,-1.513266563E-1,7.803192139E-1,9.595584853E-1
1.245340993E0,5.979943275E-1,-1.387987137E-1,7.170801163E-1,9.439630246E-1
1.250225160E0,5.521045923E-1,-1.461262703E-1,6.214389801E-1,8.440134914E-1
1.255218285E0,5.449961424E-1,-1.229987144E-1,4.056787491E-1,6.904525519E-1
1.260211410E0,5.377185941E-1,-1.525974274E-1,2.845258713E-1,6.272019074E-1
1.265204483E0,4.399316311E-1,-1.654977798E-1,1.264886856E-1,4.867532668E-1
1.270197608E0,3.448975682E-1,-1.473550797E-1,-6.474494934E-3,3.751130112E-1
1.275190733E0,3.206274509E-1,-1.646122932E-1,-1.360702515E-1,3.852457433E-1
1.280074535E0,3.440359235E-1,-2.095041275E-1,-3.693342209E-1,5.464983649E-1
1.285067660E0,3.680987358E-1,-2.107725143E-1,-2.349739075E-1,4.849066604E-1
1.290060785E0,2.335227728E-1,-1.976122856E-1,8.342075348E-2,3.170844098E-1
1.295053858E0,8.203834295E-2,-1.132731438E-1,1.163911819E-1,1.819560443E-1
1.300046983E0,3.406590223E-2,-7.041215897E-2,1.825485229E-1,1.986009090E-1
1.305040108E0,1.431121230E-1,-6.883478165E-2,2.888450623E-1,3.296221730E-1
1.309923910E0,2.231401205E-1,-5.125808716E-2,3.636789322E-1,4.297455882E-1
1.314917035E0,1.441643238E-1,-3.692388535E-2,3.883314133E-1,4.158701866E-1
1.319910160E0,-2.350151539E-3,-5.154514313E-2,3.178853989E-1,3.220458846E-1
1.324903233E0,-1.235522032E-1,-5.671024323E-2,2.053327560E-1,2.462574655E-1
1.329896358E0,-1.987574697E-1,-2.640819550E-2,2.970504761E-2,2.026926599E-1
1.334889483E0,-2.692009509E-1,2.519416809E-2,-1.373806000E-1,3.032776406E-1
1.339776566E0,-3.207936585E-1,4.137372971E-2,-2.344732285E-1,3.994972487E-1
1.344769691E0,-2.778735757E-1,7.935667038E-2,-3.618707657E-1,4.631000499E-1
1.349762816E0,-2.456460893E-1,7.729673386E-2,-4.362392426E-1,5.065781904E-1
1.354755889E0,-2.882026732E-1,9.248638153E-2,-4.983730316E-1,5.830867776E-1
1.359749014E0,-3.480521441E-1,7.728528976E-2,-5.032348633E-1,6.167322260E-1
1.364742139E0,-4.420243502E-1,7.694625854E-2,-4.321975708E-1,6.229775221E-1
1.369625368E0,-4.889600277E-1,8.617687225E-2,-2.120294571E-1,5.398748491E-1
1.374618493E0,-4.606033862E-1,1.163940430E-1,1.443462372E-1,4.965268258E-1
1.379611618E0,-3.702779710E-1,1.457462311E-1,4.172887802E-1,5.766087632E-1
1.384604691E0,-1.985395551E-1,1.149048805E-1,4.862384796E-1,5.376327237E-1
1.389597816E0,4.518508911E-3,4.568576813E-2,4.645452499E-1,4.668082000E-1
1.394590941E0,1.626110673E-1,2.175521851E-2,4.621248245E-1,4.903825060E-1
1.399468545E0,2.071043253E-1,-9.469985962E-3,4.217805862E-1,4.699795156E-1
1.404461670E0,1.813348532E-1,-4.084110260E-2,3.510055542E-1,3.971841182E-1
1.409454795E0,1.451538205E-1,-6.256294250E-2,2.594041824E-1,3.037668238E-1
1.414447868E0,1.008154154E-1,-1.008882523E-1,1.163091660E-1,1.840380654E-1
1.419440993E0,5.000346899E-2,-9.610319138E-2,-9.003639221E-3,1.087071103E-1
1.424434118E0,5.857771635E-2,-9.123754501E-2,-2.259492874E-1,2.506166773E-1
1.429326618E0,6.192427874E-2,-8.345937729E-2,-3.914823532E-1,4.050413767E-1
1.434319743E0,3.865039349E-2,-8.463287354E-2,-5.416841507E-1,5.496164984E-1
1.439312868E0,5.080407858E-2,-8.503770828E-2,-6.245031357E-1,6.323105508E-1
1.444305941E0,6.955921650E-2,-3.936004639E-2,-6.453523636E-1,6.502825317E-1
1.449299066E0,9.963774681E-2,-1.486968994E-2,-5.309057236E-1,5.403791961E-1
1.454292191E0,9.336394072E-2,-2.068042755E-3,-3.534526825E-1,3.655815928E-1
1.459176722E0,5.351108313E-2,-3.912019730E-2,-1.989049911E-1,2.096592983E-1
1.464169847E0,-4.094052315E-2,-6.643819809E-2,-4.557704926E-2,9.037382375E-2
1.469162972E0,-1.464121938E-1,-9.134054184E-2,7.806205750E-2,1.894025076E-1
1.474156045E0,-2.010366321E-1,-1.067481041E-1,1.485204697E-1,2.717889164E-1
1.479149170E0,-2.290476859E-1,-8.188724518E-2,2.066450119E-1,3.191716220E-1
1.484142295E0,-3.045417666E-1,-5.048227310E-2,1.979932785E-1,3.667362620E-1
1.489005108E0,-3.627679646E-1,-3.019809723E-3,1.777048111E-1,4.039662304E-1
1.493998233E0,-3.137738109E-1,6.305027008E-2,1.528472900E-1,3.546711646E-1
1.498991358E0,-2.103441656E-1,5.263423920E-2,9.250259399E-2,2.357366349E-1
1.503984431E0,-1.335592866E-1,3.991317749E-2,8.888244629E-3,1.396787230E-1
1.508977556E0,-2.153187990E-2,2.725553513E-2,-3.601741791E-2,5.003739042E-2
1.513970681E0,1.210224032E-1,7.611751556E-3,-4.498195648E-2,1.293357540E-1
1.518839118E0,1.940013766E-1,-4.567623138E-3,-4.925441742E-2,2.002083788E-1
1.523832243E0,2.430713177E-1,2.290248871E-3,-4.398727417E-2,2.470299395E-1
1.528825368E0,2.734660506E-1,-2.645254135E-2,-1.036643982E-2,2.749379582E-1
1.533818441E0,2.518873215E-1,-7.855367661E-2,2.522087097E-2,2.650547022E-1
1.538811566E0,1.736468673E-1,-6.623601913E-2,5.583286285E-2,1.940560572E-1
1.543804691E0,8.887451887E-2,-9.684467316E-2,3.396701813E-2,1.357620313E-1
1.548728441E0,-3.497600555E-4,-9.139060974E-2,-5.191898346E-2,1.051092133E-1
1.553717972E0,-1.059634686E-1,-1.000509262E-1,-1.110200882E-1,1.832045428E-1
1.558707452E0,-1.542534828E-1,-1.106977463E-1,-1.768827438E-1,2.594911040E-1
1.563696931E0,-1.743955016E-1,-1.016926765E-1,-1.759300232E-1,2.677808143E-1
1.568686410E0,-1.858449578E-1,-4.006052017E-2,-1.442680359E-1,2.386555254E-1
1.573675941E0,-1.835942566E-1,-3.109788895E-2,-1.390066147E-1,2.323720480E-1
1.578578337E0,-1.722927094E-1,1.579284668E-2,-1.022434235E-2,1.733168453E-1
1.583567868E0,-1.422732472E-1,6.938314438E-2,9.376430511E-2,1.839767445E-1
1.588557347E0,-8.375281096E-2,5.812454224E-2,1.993865967E-1,2.239375151E-1
1.593546827E0,-1.387119293E-3,8.230781555E-2,2.709827423E-1,2.832104292E-1
1.598536358E0,4.772883654E-2,6.543445587E-2,3.303089142E-1,3.400936469E-1
1.603525837E0,4.957783222E-2,4.580116272E-2,3.394899368E-1,3.461345478E-1
1.608428441E0,3.531664610E-2,5.669641495E-2,3.488349915E-1,3.551726344E-1
1.613417972E0,4.543268681E-2,8.107709885E-2,3.845643997E-1,3.956354414E-1
1.618407452E0,3.686034679E-2,6.676959991E-2,3.513345718E-1,3.595175184E-1
1.623396931E0,2.128773928E-2,8.532047272E-2,2.331428528E-1,2.491753212E-1
1.628386410E0,-3.794252872E-3,1.083307266E-1,8.276462555E-2,1.363815454E-1
1.633375941E0,-3.834784031E-2,7.673406601E-2,-8.547019958E-2,1.210942970E-1
1.638280212E0,-6.808906794E-2,7.440567017E-2,-2.311792374E-1,2.522224509E-1
1.643269743E0,-1.075116992E-1,1.090955734E-2,-3.284454346E-1,3.457660877E-1
1.648259222E0,-1.066719890E-1,-4.897022247E-2,-3.729944229E-1,3.910266429E-1
1.653248702E0,-5.630266666E-2,-6.032705307E-2,-2.915239334E-1,3.029778001E-1
1.658238233E0,2.404212952E-2,-4.741096497E-2,-1.895475388E-1,1.968605929E-1
1.663227712E0,3.466916084E-2,-4.867696762E-2,-4.337120056E-2,7.384076739E-2
1.668128337E0,7.389658689E-2,-3.122091293E-2,1.397428513E-1,1.611319814E-1
1.673117868E0,6.793379784E-2,-3.352260590E-2,3.406467438E-1,3.489684370E-1
1.678107347E0,8.131980896E-2,-5.325317383E-2,4.452829361E-1,4.557693551E-1
1.683096827E0,1.018875241E-1,-5.222940445E-2,4.188127518E-1,4.341809523E-1
1.688086358E0,7.985800505E-2,-2.318620682E-2,2.692728043E-1,2.818204114E-1
1.693075837E0,5.321991444E-2,-3.253889084E-2,1.044330597E-1,1.216445752E-1
1.697979900E0,2.048015594E-4,-4.169321060E-2,-6.143760681E-2,7.424921067E-2
1.702969379E0,-1.029255390E-1,-5.523777008E-2,-1.642646790E-1,2.015632967E-1
1.707958910E0,-2.060282826E-1,-6.107091904E-2,-2.260446548E-1,3.118869930E-1
1.712948389E0,-2.735000253E-1,-3.558158875E-2,-2.541990280E-1,3.750806035E-1
1.717937920E0,-2.245490551E-1,3.028774261E-2,-2.251777649E-1,3.194442851E-1
1.722927400E0,-1.544654369E-1,2.236843109E-2,-1.087369919E-1,1.902200077E-1
1.727829222E0,-5.126398802E-2,2.892494202E-3,6.559371948E-3,5.176280857E-2
1.732818754E0,6.577736139E-2,3.082513809E-2,1.043758392E-1,1.271659004E-1
1.737808233E0,1.326769590E-1,1.780319214E-2,1.112375259E-1,1.740514760E-1
1.742797712E0,1.238178015E-1,-1.423168182E-2,9.428501129E-2,1.562787640E-1
1.747787243E0,1.015701890E-1,-3.670215607E-2,9.415245056E-2,1.432767793E-1
1.752776722E0,6.813287735E-2,-9.224319458E-2,3.459262848E-2,1.197812417E-1
1.757680420E0,-5.151808262E-3,-5.689525604E-2,-6.021022797E-2,8.299929422E-2
1.762669952E0,-7.322090864E-2,-4.300785065E-2,-1.852102280E-1,2.037493686E-1
1.767659431E0,-8.638954163E-2,-2.159547806E-2,-2.975511551E-1,3.105900956E-1
1.772648910E0,-9.763056040E-2,-2.220630646E-3,-3.545579910E-1,3.677608279E-1
1.777638441E0,-9.519368410E-2,-2.283287048E-2,-3.282022476E-1,3.424907193E-1
1.782627920E0,-1.267286539E-1,-4.759883881E-2,-2.808647156E-1,3.117864488E-1
1.787532139E0,-9.913015366E-2,-6.253480911E-2,-1.793098450E-1,2.142181370E-1
1.792521670E0,-7.435834408E-2,-5.347013474E-2,-9.052753448E-2,1.287767570E-1
1.797511150E0,2.929985523E-3,-2.310800552E-2,5.449581146E-2,5.926515166E-2
1.802500629E0,3.966689110E-2,-2.186679840E-2,2.151002884E-1,2.198175452E-1
1.807490160E0,3.854990005E-2,-1.388120651E-2,2.676362991E-1,2.707544484E-1
1.812479639E0,2.122890949E-2,-4.913997650E-2,2.819223404E-1,2.869592478E-1
1.817381254E0,2.576172352E-2,-4.423236847E-2,2.535858154E-1,2.587004728E-1
1.822370785E0,1.104843616E-2,-3.942060471E-2,2.136526108E-1,2.175396288E-1
1.827360264E0,5.898356438E-3,-5.393791199E-2,1.670875549E-1,1.756768054E-1
1.832349743E0,1.016074419E-2,-1.854753494E-2,1.352291107E-1,1.368728029E-1
1.837339275E0,-1.434725523E-2,-1.913070679E-2,7.517433167E-2,7.888604323E-2
1.842328754E0,-1.519501209E-2,-1.257848740E-2,3.464603424E-2,3.986796240E-2
1.847232139E0,-3.988891840E-2,1.549482346E-2,1.482009888E-3,4.281835726E-2
1.852221670E0,-5.725318193E-2,2.433109283E-2,-2.902984619E-2,6.864882293E-2
1.857211150E0,-3.866612911E-2,-7.138252258E-3,-2.137756348E-2,4.475516066E-2
1.862200629E0,-4.614108801E-2,3.064441681E-2,-1.148509979E-2,5.656843467E-2
1.867190160E0,8.281052113E-3,7.057523727E-2,-3.498744965E-2,7.920581780E-2
1.872179639E0,1.486015320E-2,3.181505203E-2,-9.395599365E-2,1.003032922E-1
1.877071879E0,2.528429031E-3,-6.491661072E-3,-9.312725067E-2,9.338746937E-2
1.882061410E0,2.627086639E-2,-1.541614532E-3,-4.729557037E-2,5.412398704E-2
1.887050837E0,6.433802843E-2,-8.411407471E-3,-2.567863464E-2,6.978198876E-2
1.892040368E0,8.814799786E-2,-9.512901306E-4,-3.991222382E-2,9.676755701E-2
1.897029900E0,6.464403868E-2,-1.485252380E-2,-8.966445923E-3,6.693165434E-2
1.902019379E0,-1.535260677E-2,-4.984283447E-2,4.968643188E-3,5.238986637E-2
1.906934066E0,-1.325758100E-1,-5.362176895E-2,-2.875328064E-2,1.458711440E-1
1.911923597E0,-2.324484289E-1,-9.286212921E-2,-4.562091827E-2,2.544345010E-1
1.916913077E0,-2.938024700E-1,-8.883762360E-2,-7.429790497E-2,3.158040427E-1
1.921902556E0,-3.173493445E-1,-7.288074493E-2,-1.407356262E-1,3.547234499E-1
1.926892035E0,-2.728575766E-1,-6.867313385E-2,-1.496658325E-1,3.186959646E-1
1.931881566E0,-1.961022317E-1,-2.634382248E-2,-1.561784744E-1,2.520749852E-1
1.936782191E0,-7.981908321E-2,-2.213478088E-2,-1.675014496E-1,1.868629717E-1
1.941771722E0,5.417346954E-2,-1.779747009E-2,-1.645402908E-1,1.741408110E-1
1.946761202E0,1.515055895E-1,-1.814365387E-2,-1.117811203E-1,1.891511424E-1
1.951750681E0,2.151366472E-1,5.228042603E-3,5.455780029E-2,2.220082498E-1
1.956740212E0,2.717062831E-1,4.472255707E-3,2.338142395E-1,3.584876622E-1
1.961729691E0,2.453473210E-1,3.164052963E-2,3.975906372E-1,4.682678142E-1
1.966631410E0,2.126926184E-1,1.495981216E-2,4.986629486E-1,5.423344745E-1
1.971620941E0,1.285027862E-1,2.621603012E-2,5.065984726E-1,5.232993968E-1
1.976610420E0,6.403225660E-2,2.725934982E-2,4.744205475E-1,4.794977142E-1
1.981599900E0,-2.393519878E-2,4.438018799E-2,3.905687332E-1,3.938101449E-1
1.986589431E0,-8.747285604E-2,7.289218903E-2,3.361148834E-1,3.548774248E-1
1.991578910E0,-1.219418645E-1,6.295156479E-2,2.655982971E-1,2.989568083E-1
1.996483389E0,-9.682518244E-2,8.609962463E-2,2.148199081E-1,2.508701940E-1
2.001472920E0,1.335364580E-2,4.007911682E-2,8.138751984E-2,9.169833066E-2
2.006462347E0,8.422338963E-2,-5.888938904E-4,-7.715034485E-2,1.142195336E-1
2.011451879E0,4.970902205E-2,-5.010747910E-2,-1.751279831E-1,1.888161984E-1
2.016441410E0,3.214800358E-2,-7.516717911E-2,-2.225656509E-1,2.371056050E-1
2.021430889E0,2.686989307E-2,-6.389331818E-2,-2.461442947E-1,2.557173461E-1
2.026333650E0,5.062091351E-2,-5.941677094E-2,-2.484169006E-1,2.603916014E-1
2.031323181E0,4.386520386E-2,-5.471420288E-2,-1.724700928E-1,1.861819889E-1
2.036312660E0,3.985661268E-2,-6.429576874E-2,-9.006023407E-2,1.176152253E-1
2.041302139E0,7.470905781E-3,-1.022200584E-1,-6.777954102E-2,1.228772597E-1
2.046291670E0,-2.697014809E-2,-1.161265373E-1,-5.991268158E-2,1.334252261E-1
2.051281150E0,-8.030676842E-2,-1.322536469E-1,-7.824897766E-2,1.733871583E-1
2.056181722E0,-1.241245866E-1,-1.528921127E-1,-8.457660675E-2,2.143271181E-1
2.061168337E0,-1.514282227E-1,-1.565351486E-1,-1.265544891E-1,2.518924336E-1
2.066154952E0,-1.504182220E-1,-1.220326424E-1,-8.268642426E-2,2.106054417E-1
2.071141566E0,-1.375025511E-1,-4.253053665E-2,-6.013870239E-3,1.440554224E-1
2.076128181E0,-6.547284126E-2,-4.426574707E-2,2.479267120E-2,8.283010233E-2
2.081114743E0,2.235722542E-2,-4.836273193E-2,3.098487854E-3,5.337040374E-2
2.086035316E0,4.755306244E-2,-6.885004044E-2,-3.039360046E-2,8.902467503E-2
2.091021931E0,7.717263699E-2,-5.093431473E-2,7.546424866E-3,9.277321189E-2
2.096008545E0,4.470604658E-2,-6.641483307E-2,3.091621399E-2,8.582175097E-2
2.100995160E0,3.651410341E-2,-5.325603485E-2,5.169391632E-2,8.271484740E-2
2.105981775E0,6.434321404E-2,-2.380371094E-3,1.032552719E-1,1.216855231E-1
2.110968337E0,5.426043272E-2,3.590393066E-2,1.782751083E-1,1.897769771E-1
2.115883129E0,1.601022482E-2,1.182126999E-2,1.910409927E-1,1.920748048E-1
2.120869743E0,-4.999279976E-2,-4.997253418E-4,2.323455811E-1,2.376636253E-1
2.125856358E0,-9.833943844E-2,-3.577709198E-3,2.568378448E-1,2.750438578E-1
2.130842972E0,-7.720947266E-2,-1.170206070E-2,2.385272980E-1,2.509850848E-1
2.135829587E0,-9.177637100E-2,1.259803772E-3,1.896781921E-1,2.107185468E-1
2.140816150E0,-9.927797318E-2,-3.685951233E-4,1.461267471E-1,1.766614787E-1
2.145734483E0,-9.307134151E-2,3.358888626E-2,4.600906372E-2,1.091206756E-1
2.150721097E0,-1.136536598E-1,1.511192322E-2,-6.991577148E-2,1.342897603E-1
2.155707712E0,-9.910100698E-2,-2.425956726E-2,-1.636219025E-1,1.928254733E-1
2.160694327E0,-1.182356477E-1,1.174926758E-3,-1.806917191E-1,2.159410711E-1
2.165680941E0,-6.131470203E-2,3.138780594E-2,-1.502304077E-1,1.652690608E-1
2.170667504E0,5.936306715E-2,3.567552567E-2,-1.677923203E-1,1.815240469E-1
2.175584014E0,1.245763302E-1,2.114009857E-2,-9.744739532E-2,1.595686707E-1
2.180570629E0,1.540266871E-1,-7.731914520E-3,3.415584564E-2,1.579576673E-1
2.185557243E0,1.481810212E-1,-1.034259796E-2,1.385440826E-1,2.031232316E-1
2.190543858E0,1.167697310E-1,-3.931236267E-2,2.326574326E-1,2.632681387E-1
2.195530472E0,5.059045553E-2,-4.242706299E-2,2.953405380E-1,3.026309357E-1
2.200517035E0,1.846939325E-2,-5.533456802E-2,2.816381454E-1,2.876161989E-1
2.205426775E0,-1.102757454E-2,-3.988409042E-2,1.898002625E-1,1.942588163E-1
2.210413389E0,-6.182169914E-2,-2.946853638E-2,1.249570847E-1,1.424941758E-1
2.215400004E0,-6.953352690E-2,-4.507398605E-2,3.541946411E-3,8.294046640E-2
2.220386618E0,-1.105441451E-1,-7.226705551E-2,-1.074371338E-1,1.702506183E-1
2.225373233E0,-1.277666092E-1,-6.801271439E-2,-1.321353912E-1,1.959841763E-1
2.230359795E0,-1.071208119E-1,-6.583547592E-2,-1.354093552E-1,1.847833101E-1
2.235285004E0,-8.948558569E-2,-8.974552155E-2,-1.552810669E-1,2.004348733E-1
2.240271618E0,-5.340272188E-2,-7.774019241E-2,-1.156120300E-1,1.492029816E-1
2.245258233E0,-1.796060801E-2,-8.242225647E-2,-9.289932251E-2,1.254842457E-1
2.250244847E0,2.800762653E-3,-6.345367432E-2,-5.603218079E-2,8.469839632E-2
2.255231462E0,3.554081917E-2,-6.830692291E-2,1.608848572E-2,7.866272890E-2
2.260218025E0,7.301265001E-2,-7.545280457E-2,7.568740845E-2,1.294316676E-1
2.265135316E0,8.174365759E-2,-4.471397400E-2,1.253814697E-1,1.562110047E-1
2.270121931E0,5.982631445E-2,-4.993867874E-2,1.295442581E-1,1.511779559E-1
2.275108545E0,1.726448536E-2,-3.868103027E-2,1.669902802E-1,1.722789547E-1
2.280095160E0,-4.134786129E-2,-1.348543167E-2,1.567182541E-1,1.626410577E-1
2.285081775E0,-6.377238035E-2,-3.838253021E-2,5.862998962E-2,9.475025491E-2
2.290068337E0,-8.386760950E-2,-2.738571167E-2,-6.240653992E-2,1.080663192E-1
2.294986202E0,-5.195885897E-2,-4.957246780E-2,-1.326074600E-1,1.508041480E-1
2.299972816E0,-3.476762772E-2,-5.697345734E-2,-2.071504593E-1,2.176374866E-1
2.304959431E0,-4.636305571E-2,-2.356386185E-2,-2.575073242E-1,2.627067006E-1
2.309946045E0,-3.899937868E-2,-5.182409286E-2,-2.767572403E-1,2.842556212E-1
2.314932660E0,-2.463644743E-2,-9.849119186E-2,-2.556571960E-1,2.750783003E-1
2.319919222E0,-5.733251572E-3,-9.949827194E-2,-1.872911453E-1,2.121573694E-1
2.324828285E0,-1.799941063E-2,-6.953334808E-2,-9.102249146E-2,1.159480885E-1
2.329814900E0,-1.843899488E-2,-3.746414185E-2,5.910491943E-2,7.236677385E-2
2.334801514E0,-2.323597670E-2,-5.568885803E-2,1.723957062E-1,1.826511402E-1
2.339788129E0,1.967018843E-2,-7.639932632E-2,3.133821487E-1,3.231596270E-1
2.344774743E0,4.814815521E-2,-8.565330505E-2,4.249992371E-1,4.362099094E-1
2.349761306E0,1.942163706E-2,-1.000828743E-1,4.053068161E-1,4.179322874E-1
2.354687556E0,5.749249458E-2,-3.644084930E-2,3.503847122E-1,3.569352448E-1
2.359674170E0,6.914329529E-2,-1.163148880E-2,2.153120041E-1,2.264406013E-1
2.364660785E0,8.061033487E-2,-3.440999985E-2,9.555244446E-2,1.296624225E-1
2.369647400E0,6.805330515E-2,-3.069972992E-2,-3.041267395E-2,8.061424499E-2
2.374634014E0,5.294179916E-2,-4.573583603E-2,-1.602172852E-1,1.748261401E-1
2.379620577E0,5.454891920E-2,-1.036357880E-2,-2.440204620E-1,2.502578155E-1
2.384537035E0,2.042430639E-2,6.033897400E-3,-2.584075928E-1,2.592837137E-1
2.389523650E0,-3.798246384E-3,8.345603943E-3,-2.158384323E-1,2.160331101E-1
2.394510264E0,1.037716866E-2,2.031517029E-2,-1.689853668E-1,1.705181690E-1
2.399496879E0,-2.526444197E-2,-5.784988403E-3,-1.225595474E-1,1.252701113E-1
2.404483493E0,-3.424519300E-2,-5.049705505E-2,-7.901096344E-2,9.982694104E-2
2.409470056E0,-1.071082354E-1,-8.049154282E-2,-4.301643372E-2,1.407177178E-1
2.414385941E0,-1.364564300E-1,-6.510448456E-2,2.830123901E-2,1.538177861E-1
2.419372556E0,-1.178926229E-1,-4.758167267E-2,1.347074509E-1,1.852263033E-1
2.424359170E0,-9.685927629E-2,3.614425659E-4,1.738662720E-1,1.990259545E-1
2.429345785E0,-9.009701014E-2,-1.641368866E-2,1.724023819E-1,1.952164483E-1
2.434332400E0,-9.970980883E-2,-6.409931183E-2,1.995267868E-1,2.320812496E-1
2.439318962E0,-1.136328578E-1,-4.047918320E-2,2.574748993E-1,2.843313462E-1
2.444237816E0,-1.250894070E-1,-5.765676498E-2,2.414226532E-1,2.779506427E-1
2.449224431E0,-1.106685996E-1,-4.654788971E-2,1.996011734E-1,2.329267554E-1
2.454211045E0,-7.078492641E-2,-4.055690765E-2,1.416921616E-1,1.634993493E-1
2.459197660E0,-5.322283506E-2,-8.587360382E-3,1.226425171E-3,5.392510593E-2
2.464184275E0,-4.585254192E-2,6.617546082E-3,-1.095924377E-1,1.189821412E-1
2.469170837E0,1.077437401E-2,-1.124620438E-2,-1.863603592E-1,1.870100204E-1
2.474090681E0,4.047358036E-2,9.376049042E-3,-2.697715759E-1,2.729518715E-1
2.479077295E0,8.140289783E-2,1.761436462E-3,-2.743082047E-1,2.861372495E-1
2.484063910E0,1.171998978E-1,-7.807254791E-3,-1.602239609E-1,1.986667735E-1
2.489050525E0,1.479779482E-1,1.743316650E-3,-1.860618591E-2,1.491532851E-1
2.494037139E0,1.835088134E-1,2.285289764E-2,1.932106018E-1,2.674473335E-1
2.499023702E0,1.693028212E-1,4.564285278E-2,3.298730850E-1,3.735812729E-1
2.503938493E0,1.178620458E-1,2.488756180E-2,4.490461349E-1,4.649228795E-1
2.508925108E0,6.043112278E-2,3.913879395E-2,4.868450165E-1,4.921400572E-1
2.513911722E0,-2.671796083E-2,2.892160416E-2,4.438381195E-1,4.455811766E-1
2.518898337E0,-1.173379421E-1,-1.257038116E-2,3.539009094E-1,3.730577178E-1
2.523884952E0,-1.427173615E-1,-3.258275986E-2,1.959333420E-1,2.445807760E-1
2.528871514E0,-8.688324690E-2,-3.792190552E-2,-2.501487732E-2,9.804342710E-2
2.533787139E0,-5.039811134E-2,-2.389144897E-2,-2.324285507E-1,2.390267812E-1
2.538773754E0,7.146596909E-5,-5.922031403E-2,-3.719558716E-1,3.766407056E-1
2.543760368E0,2.456426620E-3,-9.134149551E-2,-4.084596634E-1,4.185553720E-1
2.548746983E0,-7.558941841E-3,-8.203458786E-2,-4.878110886E-1,4.947185759E-1
2.553733597E0,1.087248325E-3,-1.243934631E-1,-4.718227386E-1,4.879463213E-1
2.558720160E0,-1.460093260E-2,-1.396698952E-1,-4.182538986E-1,4.411997173E-1
2.563638337E0,-2.340447903E-2,-1.258220673E-1,-2.964849472E-1,3.229276795E-1
2.568622660E0,7.663369179E-4,-1.189322472E-1,-1.758613586E-1,2.123032834E-1
2.573606931E0,1.268112659E-2,-1.122894287E-1,-4.899692535E-2,1.231682811E-1
2.578591254E0,-2.070426941E-2,-6.545734406E-2,3.650856018E-2,7.775735096E-2
2.583575577E0,-6.554764509E-2,-5.474662781E-2,8.333778381E-2,1.193267499E-1
2.588559847E0,-1.429561973E-1,-5.609416962E-2,1.084222794E-1,1.879851613E-1
2.593463129E0,-2.005085647E-1,-5.509519577E-2,6.441497803E-2,2.176888939E-1
2.598447452E0,-2.147047520E-1,-4.207134247E-2,2.780532837E-2,2.205476471E-1
2.603431722E0,-2.311733067E-1,-1.707553864E-2,-1.336097717E-2,2.321878280E-1
2.608416045E0,-2.051445544E-1,1.028728485E-2,-2.338314056E-2,2.067290199E-1
2.613400316E0,-1.514079869E-1,8.977413177E-3,1.182270050E-2,1.521339827E-1
2.618384639E0,-1.412734389E-1,1.006460190E-2,8.001708984E-2,1.626721102E-1
2.623340785E0,-1.028994322E-1,-1.006126404E-3,1.715621948E-1,2.000572221E-1
2.628325108E0,-1.267904043E-2,-5.121231079E-4,2.910833359E-1,2.913597926E-1
2.633309379E0,2.457314730E-2,1.623630524E-3,3.815031052E-1,3.822971292E-1
2.638293702E0,5.444365740E-2,1.492309570E-2,3.812808990E-1,3.854373290E-1
2.643277972E0,7.000905275E-2,1.548290253E-2,3.196973801E-1,3.276391347E-1
2.648262295E0,3.098922968E-2,8.516311646E-3,1.946945190E-1,1.973292063E-1
2.653190785E0,2.778196335E-2,8.612155914E-3,2.567768097E-2,3.879884041E-2
2.658175108E0,-8.890569210E-3,4.216766357E-2,-1.444005966E-1,1.506940157E-1
2.663159431E0,-1.714605093E-2,3.068399429E-2,-2.894849777E-1,2.916111227E-1
2.668143702E0,1.466715336E-2,4.108333588E-2,-4.098014832E-1,4.121167571E-1
2.673127972E0,4.119151831E-2,5.687665939E-2,-4.558572769E-1,4.612348127E-1
2.678112295E0,5.776590109E-2,5.179643631E-2,-4.709854126E-1,4.773332473E-1
2.683040577E0,7.890748978E-2,3.788805008E-2,-4.744558334E-1,4.824626764E-1
2.688024900E0,9.509855509E-2,1.989841461E-2,-3.855590820E-1,3.976122330E-1
2.693009170E0,1.209303141E-1,-1.900339127E-2,-2.619676590E-1,2.891579570E-1
2.697993493E0,1.492155790E-1,-3.834533691E-2,-1.134262085E-1,1.913142929E-1
2.702977764E0,1.727415323E-1,-5.035448074E-2,-1.129817963E-2,1.802854947E-1
2.707962087E0,1.513707042E-1,-4.577398300E-2,1.090278625E-1,1.920818118E-1
2.712891514E0,9.702050686E-2,-3.901052475E-2,2.189264297E-1,2.426181803E-1
2.717875837E0,2.422064543E-2,-6.818723679E-2,2.971601486E-1,3.058435758E-1
2.722860108E0,-4.313570261E-2,-8.345174789E-2,3.798122406E-1,3.912572315E-1
2.727844431E0,-7.424199581E-2,-7.746410370E-2,3.431339264E-1,3.595183622E-1
2.732828702E0,-6.702458858E-2,-9.064912796E-2,2.925710678E-1,3.135400925E-1
2.737813025E0,-4.792869091E-2,-5.885171890E-2,2.568235397E-1,2.678040604E-1
2.742744222E0,-1.708418131E-2,-3.001642227E-2,2.191743851E-1,2.218789443E-1
2.747728545E0,-3.241658211E-3,-3.728723526E-2,1.249637604E-1,1.304484100E-1
2.752712816E0,-1.831489801E-2,-3.979587555E-2,1.496028900E-2,4.629208838E-2
2.757697139E0,2.582162619E-2,-2.083349228E-2,-5.375766754E-2,6.317181016E-2
2.762681410E0,2.899861336E-2,-5.871915817E-2,-1.125631332E-1,1.302279466E-1
2.767665733E0,-1.782810688E-2,-6.997632980E-2,-1.472167969E-1,1.639735144E-1
2.772589952E0,-8.547163010E-2,-5.487155914E-2,-1.935491562E-1,2.185807938E-1
2.777574275E0,-1.289222836E-1,-3.963232040E-2,-1.826162338E-1,2.270250314E-1
2.782558597E0,-9.575510025E-2,-3.852796555E-2,-1.101646423E-1,1.509625509E-1
2.787542868E0,-6.040233374E-2,-5.615615845E-2,-7.173728943E-2,1.093077982E-1
2.792527139E0,-6.430804729E-3,-8.551549911E-2,-6.925582886E-2,1.102298765E-1
2.797511462E0,-5.343079567E-3,-5.274295807E-2,-6.209754944E-2,8.164847685E-2
2.802444066E0,-8.937120438E-3,-6.784009933E-2,-3.357601166E-2,7.622007451E-2
2.807428389E0,-1.499658823E-2,-5.668020248E-2,-6.229686737E-2,8.554789709E-2
2.812412660E0,-8.061677217E-2,-4.091548920E-2,-3.846836090E-2,9.824945803E-2
2.817396983E0,-1.055337191E-1,-3.469276428E-2,-6.713199615E-2,1.297985310E-1
2.822381254E0,-5.916386843E-2,-1.408004761E-2,-9.327125549E-2,1.113469271E-1
2.827365577E0,-1.559185982E-2,1.361036301E-2,-1.026277542E-1,1.046938585E-1
2.832292972E0,1.348686218E-2,2.212524414E-2,-9.056854248E-2,9.420235011E-2
2.837277295E0,4.565715790E-3,2.350521088E-2,-2.402591705E-2,3.392027991E-2
2.842261566E0,-1.558697224E-2,1.068592072E-3,1.155853271E-1,1.166364585E-1
2.847245889E0,-4.092931747E-3,-2.136945724E-2,2.493391037E-1,2.502866245E-1
2.852230160E0,1.957732439E-2,9.565353394E-4,3.371162415E-1,3.376855739E-1
2.857214483E0,5.530667305E-2,4.874944687E-2,4.125194550E-1,4.190556495E-1
2.862143910E0,6.022351980E-2,5.035972595E-2,4.353590012E-1,4.423804180E-1
2.867128233E0,1.314359903E-2,3.477191925E-2,4.155311584E-1,4.171905850E-1
2.872112504E0,-2.382910252E-2,6.178951263E-2,3.223657608E-1,3.290979394E-1
2.877096827E0,-3.936702013E-2,2.193307877E-2,2.158174515E-1,2.204722082E-1
2.882081097E0,-7.436192036E-2,-2.237033844E-2,9.834194183E-2,1.253046877E-1
2.887065420E0,-1.095264554E-1,-3.294706345E-2,2.458763123E-2,1.169876277E-1
2.891994795E0,-1.424862146E-1,-3.609323502E-2,-9.376907349E-2,1.743493106E-1
2.896979118E0,-1.208034158E-1,1.323795319E-2,-1.470823288E-1,1.907928723E-1
2.901963441E0,-7.368183136E-2,-6.306648254E-3,-1.858911514E-1,2.000607564E-1
2.906947712E0,-3.205776215E-2,-3.731918335E-2,-1.342134476E-1,1.429463923E-1
2.911931983E0,4.290819168E-3,-4.647302628E-2,-9.257698059E-2,1.036756993E-1
2.916916306E0,4.779100418E-3,-1.261949539E-2,-6.088829041E-2,6.236565860E-2
2.921845629E0,3.400027752E-2,-5.281925201E-3,6.084442139E-2,6.989965107E-2
2.926829952E0,6.100440025E-2,-3.043651581E-3,1.603088379E-1,1.715509375E-1
2.931814222E0,5.743312836E-2,3.228473663E-2,2.185993195E-1,2.283123538E-1
2.936798545E0,2.609950304E-2,2.180767059E-2,2.076625824E-1,2.104293389E-1
2.941782816E0,2.662348747E-2,1.839590073E-2,1.897134781E-1,1.924536906E-1
2.946767139E0,1.602119207E-2,1.016664505E-2,1.006393433E-1,1.024124830E-1
2.951686358E0,-2.238315344E-2,1.626396179E-2,-3.287982941E-2,4.297214438E-2
2.956670681E0,-7.204800844E-2,-1.220703125E-3,-1.226730347E-1,1.422711463E-1
2.961655004E0,-1.235126853E-1,-2.057409286E-2,-1.644191742E-1,2.066696436E-1
2.966639275E0,-1.319355965E-1,-6.793785095E-2,-2.107400894E-1,2.577478196E-1
2.971623545E0,-1.311454773E-1,-5.279874802E-2,-2.402067184E-1,2.787222840E-1
2.976607868E0,-1.403458714E-1,-7.309484482E-2,-2.101802826E-1,2.630885234E-1
2.981512295E0,-1.501530409E-1,-1.120924950E-1,-2.018032074E-1,2.753819123E-1
2.986496566E0,-1.177727580E-1,-1.173014641E-1,-2.196884155E-1,2.754869433E-1
2.991480889E0,-1.196540594E-1,-1.176629066E-1,-2.017621994E-1,2.624302548E-1
2.996465160E0,-1.056707501E-1,-8.452892303E-2,-1.412935257E-1,1.956407592E-1
3.001449483E0,-7.325065136E-2,-4.697275162E-2,-9.551811218E-2,1.292122559E-1
3.006433754E0,-6.060242653E-3,-2.622175217E-2,4.485130310E-3,2.728412032E-2
3.011392347E0,2.944827080E-2,-1.044321060E-2,1.037034988E-1,1.083082498E-1
3.016376618E0,5.051511526E-2,1.927089691E-2,1.808090210E-1,1.887194913E-1
3.021360941E0,8.831292391E-2,7.001876831E-2,2.121696472E-1,2.402452073E-1
3.026345212E0,1.312149167E-1,1.058521271E-1,2.480993271E-1,2.999588360E-1
3.031329535E0,1.577028036E-1,1.222882271E-1,2.861118317E-1,3.488331477E-1
3.036313806E0,1.632838249E-1,1.218976974E-1,2.881507874E-1,3.529185917E-1
3.041246462E0,1.956135631E-1,1.499099731E-1,2.521705627E-1,3.526012746E-1
3.046230785E0,1.782742143E-1,1.635279655E-1,2.021465302E-1,3.152559447E-1
3.051215056E0,1.234410405E-1,1.605792046E-1,1.619138718E-1,2.593057525E-1
3.056199379E0,1.168088317E-1,1.412935257E-1,1.646118164E-1,2.463842805E-1
3.061183702E0,1.104356647E-1,1.652531624E-1,1.884717941E-1,2.739092202E-1
3.066167972E0,7.588845491E-2,1.821985245E-1,2.071886063E-1,2.861511462E-1
3.071097452E0,3.196519613E-2,1.849651337E-1,2.422733307E-1,3.064804092E-1
3.076079900E0,-4.611790180E-3,2.093038559E-1,3.363485336E-1,3.961814089E-1
3.081062347E0,-5.774080753E-2,2.145743370E-1,3.868236542E-1,4.461038964E-1
3.086044795E0,-9.885299206E-2,2.318277359E-1,3.869352341E-1,4.617736334E-1
3.091027295E0,-1.161458492E-1,2.634749413E-1,4.225473404E-1,5.113268601E-1
3.096009691E0,-9.323972464E-2,2.644042969E-1,4.481525421E-1,5.286246111E-1
3.100887400E0,-1.015481949E-1,2.800021172E-1,5.469665527E-1,6.228046494E-1
3.105869900E0,-1.050938964E-1,3.314080238E-1,6.519260406E-1,7.388393383E-1
3.110852347E0,-1.111690402E-1,3.447022438E-1,7.534732819E-1,8.360024993E-1
3.115834795E0,-8.638674021E-2,3.842153549E-1,8.825807571E-1,9.664537758E-1
3.120817243E0,-6.882017851E-2,4.089632034E-1,1.010705948E0,1.092480495E0
3.125799691E0,-7.266640663E-2,4.593214989E-1,1.173563004E0,1.262341780E0
3.130799847E0,-7.131081820E-2,4.970779419E-1,1.278183937E0,1.373290170E0
3.135782295E0,-4.786199331E-2,5.387825966E-1,1.284748077E0,1.393970975E0
3.140764743E0,-3.105998039E-2,5.702223778E-1,1.255799294E0,1.379547081E0
3.145747191E0,-6.633102894E-3,5.583481789E-1,1.217700958E0,1.339623944E0
3.150729691E0,-8.460879326E-4,5.320768356E-1,1.172884941E0,1.287930728E0
3.155712087E0,-2.104449272E-2,5.226492882E-1,1.161689758E0,1.274020504E0
3.160651722E0,-8.602666855E-2,4.919471741E-1,1.176692963E0,1.278287502E0
3.165634170E0,-9.360772371E-2,4.589691162E-1,1.210674286E0,1.298132228E0
3.170616618E0,-8.244711161E-2,4.211034775E-1,1.365773201E0,1.431594252E0
3.175599118E0,-6.947416067E-2,4.159865379E-1,1.541440010E0,1.598095355E0
3.180581514E0,-4.536122084E-2,3.954472542E-1,1.664081573E0,1.711024154E0
3.185563962E0,-1.996082067E-2,3.710627556E-1,1.720133781E0,1.759814260E0
3.190501306E0,1.647680998E-2,3.713374138E-1,1.724402428E0,1.764008700E0
3.195483754E0,7.353103161E-2,3.129997253E-1,1.615503311E0,1.647187478E0
3.200466202E0,5.383962393E-2,2.893538475E-1,1.391898155E0,1.422675237E0
3.205448650E0,6.035321951E-2,2.980189323E-1,1.137526512E0,1.177465227E0
3.210431097E0,1.215523481E-1,3.131084442E-1,8.238515854E-1,8.896871955E-1
3.215413545E0,1.206966043E-1,3.397016525E-1,5.129175186E-1,6.269364114E-1
3.220351410E0,9.637701511E-2,4.089984894E-1,2.187290192E-1,4.737200409E-1
3.225333858E0,-8.335351944E-3,3.760089874E-1,-3.286170959E-2,3.775342748E-1
3.230316306E0,-9.550601244E-2,3.228278160E-1,-2.852201462E-1,4.412365907E-1
3.235298754E0,-1.274144053E-1,3.375167847E-1,-4.575643539E-1,5.826810007E-1
3.240281202E0,-1.118832827E-1,3.129410744E-1,-5.958614349E-1,6.822762158E-1
3.245263650E0,-8.479297161E-2,3.040866852E-1,-6.457843781E-1,7.188157087E-1
3.250200420E0,-1.983612776E-2,3.083519936E-1,-5.937871933E-1,6.693710890E-1
3.255182868E0,8.529299498E-2,2.208499908E-1,-4.310989380E-1,4.918291449E-1
3.260165316E0,1.662641764E-1,1.586709023E-1,-2.987680435E-1,3.769384239E-1
3.265147816E0,1.877442598E-1,1.237840652E-1,-1.655616760E-1,2.792509095E-1
3.270130212E0,1.738486290E-1,8.246278763E-2,-2.421665192E-2,1.939327290E-1
3.275112712E0,1.363961697E-1,4.659461975E-2,8.961486816E-2,1.697227100E-1
3.280052243E0,3.254264593E-2,1.376199722E-2,1.809349060E-1,1.843525334E-1
3.285034691E0,-9.241247177E-2,2.849102020E-3,2.737655640E-1,2.889563398E-1
3.290017139E0,-1.718362272E-1,2.073812485E-2,3.467512131E-1,3.875489163E-1
3.294999587E0,-1.898434758E-1,3.143215179E-2,4.832963943E-1,5.201960498E-1
3.299982035E0,-2.086004913E-1,1.581001282E-2,6.378259659E-1,6.712570925E-1
3.304964483E0,-2.182728350E-1,3.307294846E-2,7.628803253E-1,7.941808618E-1
3.309901722E0,-1.496722102E-1,5.690288544E-2,8.039913177E-1,8.197815245E-1
3.314884170E0,-7.668220997E-2,9.423303604E-2,8.640537262E-1,8.725530747E-1
3.319866618E0,-1.805824041E-2,1.021304131E-1,8.574037552E-1,8.636538200E-1
3.324849066E0,3.117012978E-2,1.450662613E-1,8.368034363E-1,8.498563338E-1
3.329831566E0,4.970669746E-2,1.563673019E-1,7.714138031E-1,7.886702381E-1
3.334813962E0,2.827990055E-2,1.628088951E-1,6.352701187E-1,6.564103997E-1
3.339716358E0,5.077540874E-3,1.858391762E-1,5.049734116E-1,5.381079141E-1
3.344698806E0,-1.054161787E-2,1.876735687E-1,3.731622696E-1,4.178307954E-1
3.349681254E0,-2.121073008E-2,2.113947868E-1,2.516603470E-1,3.293487228E-1
3.354663702E0,-6.521588564E-2,2.141556740E-1,1.617259979E-1,2.761721616E-1
3.359646150E0,-7.583761215E-2,2.034034729E-1,1.505327225E-1,2.641674029E-1
3.364628597E0,-8.675342798E-2,2.171640396E-1,1.747236252E-1,2.919156086E-1
3.369604900E0,-8.592045307E-2,2.313852310E-1,2.102909088E-1,3.242587173E-1
3.374587347E0,-8.051562309E-2,2.127161026E-1,2.548093796E-1,3.415534011E-1
3.379569795E0,-9.430652857E-2,2.089838982E-1,3.651933670E-1,4.312008654E-1
3.384552243E0,-1.223608851E-1,1.913247108E-1,4.650030136E-1,5.174989216E-1
3.389534691E0,-1.123329997E-1,2.023477554E-1,6.518726349E-1,6.917378471E-1
3.394517139E0,-4.046094418E-2,2.345223427E-1,8.538789749E-1,8.864237818E-1
3.399417087E0,3.097486496E-2,2.325744629E-1,1.037890434E0,1.064080296E0
3.404399535E0,6.392991543E-2,2.464017868E-1,1.125814438E0,1.154235255E0
3.409381983E0,3.749489784E-2,2.543497086E-1,1.189785957E0,1.217247003E0
3.414364431E0,-3.346496820E-2,2.374162674E-1,1.203889847E0,1.227532953E0
3.419346879E0,-5.377316475E-2,2.437968254E-1,1.104155540E0,1.132028225E0
3.424329327E0,-5.963194370E-2,2.590489388E-1,9.509277344E-1,9.873833487E-1
3.429266618E0,-6.789737940E-2,2.810811996E-1,8.086042404E-1,8.587534644E-1
3.434249066E0,-4.799288511E-2,2.721347809E-1,6.745738983E-1,7.289791494E-1
3.439231514E0,-1.202493906E-2,2.917103767E-1,5.821056366E-1,6.512192528E-1
3.444213962E0,-6.164312363E-4,2.849946022E-1,5.213241577E-1,5.941390247E-1
3.449196410E0,4.350197315E-2,2.402744293E-1,4.872388840E-1,5.450008744E-1
3.454178858E0,4.420560598E-2,2.196817398E-1,4.415826797E-1,4.951862937E-1
3.459155004E0,3.287899494E-2,1.825451851E-1,4.106168747E-1,4.505663000E-1
3.464137452E0,9.072184563E-2,1.933279037E-1,3.394594193E-1,4.010471655E-1
3.469119900E0,1.388239861E-1,1.922321320E-1,3.757286072E-1,4.442941345E-1
3.474102347E0,1.418991089E-1,1.460952759E-1,4.139900208E-1,4.613750362E-1
3.479084795E0,1.147506833E-1,1.240777969E-1,4.138870239E-1,4.470631808E-1
3.484067243E0,9.073561430E-2,9.971809387E-2,4.399614334E-1,4.601550965E-1
3.488983702E0,6.254333258E-2,8.489227295E-2,4.635124207E-1,4.753547418E-1
3.493966150E0,1.368314028E-2,7.718181610E-2,4.750289917E-1,4.814528056E-1
3.498948597E0,-1.289129257E-3,7.166147232E-2,4.153060913E-1,4.214453440E-1
3.503931045E0,-3.739839792E-2,6.609344482E-2,3.466234207E-1,3.548447258E-1
3.508913493E0,-9.485244751E-2,5.577564240E-2,2.310447693E-1,2.559093482E-1
3.513895941E0,-1.190544963E-1,5.296516418E-2,8.542156219E-2,1.558079747E-1
3.518854118E0,-1.176288128E-1,2.682542801E-2,-8.291625977E-2,1.463941506E-1
3.523836566E0,-1.096235514E-1,3.250885010E-2,-2.288312912E-1,2.558083427E-1
3.528819014E0,-6.872004271E-2,1.777887344E-2,-3.479366302E-1,3.551034093E-1
3.533801462E0,-7.328069210E-2,3.740501404E-2,-3.620634079E-1,3.712938274E-1
3.538783962E0,-6.354987621E-2,8.179187775E-3,-3.244695663E-1,3.307355218E-1
3.543766358E0,-7.264804840E-2,-1.285266876E-2,-1.736335754E-1,1.886572250E-1
3.548706097E0,-6.241041422E-2,-9.635448456E-3,3.751754761E-2,7.345384979E-2
3.553688545E0,-5.905240774E-2,1.273727417E-2,2.657947540E-1,2.725734328E-1
3.558670993E0,-6.514936686E-2,4.670381546E-2,4.090747833E-1,4.168547286E-1
3.563653441E0,-8.323335648E-2,7.994651794E-2,5.157833099E-1,5.285372836E-1
3.568635889E0,-9.922236204E-2,6.734752655E-2,5.719823837E-1,5.844181840E-1
3.573618389E0,-1.036586761E-1,8.549976349E-2,5.494813919E-1,5.656722821E-1
3.578556202E0,-5.650603771E-2,1.033873558E-1,5.058994293E-1,5.194382641E-1
3.583537191E0,2.766990662E-2,1.615347862E-1,4.532060623E-1,4.819282580E-1
3.588518129E0,1.132350564E-1,2.097873688E-1,4.555606842E-1,5.141677305E-1
3.593499118E0,2.075534463E-1,2.317290306E-1,4.934101105E-1,5.832926485E-1
3.598480108E0,2.014477849E-1,2.438182831E-1,4.977712631E-1,5.897497737E-1
3.603461097E0,1.647375822E-1,2.176389694E-1,5.449275970E-1,6.094680287E-1
3.608405525E0,1.383000016E-1,2.011222839E-1,6.392021179E-1,6.842195635E-1
3.613386514E0,1.411010027E-1,2.130379677E-1,7.256450653E-1,7.693214084E-1
3.618367452E0,1.638481617E-1,2.195243835E-1,8.781299591E-1,9.198637943E-1
3.623348441E0,1.375608444E-1,2.274599075E-1,1.036871910E0,1.070403827E0
3.628329431E0,1.242159009E-1,2.032899857E-1,1.087962151E0,1.113740566E0
3.633310420E0,1.115471721E-1,1.497392654E-1,1.008516312E0,1.025655776E0
3.638258597E0,9.909534454E-2,1.266036034E-1,8.732089996E-1,8.878864323E-1
3.643239587E0,5.826908350E-2,9.853601456E-2,6.418333054E-1,6.519621340E-1
3.648220525E0,1.260477304E-2,8.009338379E-2,3.815965652E-1,3.901150715E-1
3.653201514E0,-6.436300278E-2,7.159948349E-2,1.685600281E-1,1.941174006E-1
3.658182504E0,-1.156035662E-1,4.941177368E-2,-8.565330505E-2,1.521255947E-1
3.663163493E0,-1.652321219E-1,5.204153061E-2,-2.454977036E-1,3.004648024E-1
3.668106410E0,-1.822815537E-1,6.994962692E-2,-3.213615417E-1,3.760222808E-1
3.673087400E0,-1.715327501E-1,5.751943588E-2,-2.567548752E-1,3.140939920E-1
3.678068337E0,-1.494180858E-1,4.099273682E-2,-1.454458237E-1,2.125103679E-1
3.683049327E0,-9.656137228E-2,2.747011185E-2,-6.828308105E-3,1.006247060E-1
3.688030368E0,-2.975088358E-2,2.361774445E-2,1.377201080E-1,1.428626651E-1
3.693011306E0,5.607497692E-2,2.918577194E-2,2.573328018E-1,2.649837414E-1
3.697957504E0,1.299403906E-1,3.686094284E-2,3.784027100E-1,4.017858200E-1
3.702938493E0,1.563368440E-1,3.204250336E-2,4.773378372E-1,5.033083962E-1
3.707919483E0,1.166370511E-1,3.394126892E-2,4.948806763E-1,5.095714819E-1
3.712900420E0,8.498132229E-2,3.077507019E-2,4.102506638E-1,4.200887254E-1
3.717881410E0,6.112658978E-2,6.064414978E-3,3.691606522E-1,3.742363213E-1
3.722862400E0,2.591091394E-2,4.807090759E-2,2.690048218E-1,2.744918610E-1
3.727807295E0,1.969945431E-2,5.658149719E-2,1.292238235E-1,1.424371121E-1
3.732788285E0,-5.415081978E-4,3.210973740E-2,2.841663361E-2,4.288162231E-2
3.737769275E0,5.618631840E-3,4.637813568E-2,-1.027259827E-1,1.128500244E-1
3.742750212E0,-3.612351418E-2,6.473541260E-3,-1.713056564E-1,1.751925881E-1
3.747731202E0,-9.465885162E-2,-3.957748413E-3,-1.612300873E-1,1.870056229E-1
3.752712191E0,-1.319623590E-1,-2.806282043E-2,-1.039505005E-1,1.703152742E-1
3.757660577E0,-1.577608883E-1,2.186870575E-2,3.831386566E-2,1.638129741E-1
3.762641566E0,-1.316971183E-1,6.185054779E-2,2.174606323E-1,2.616462265E-1
3.767622556E0,-8.267879486E-2,5.360078812E-2,4.238729477E-1,4.351747964E-1
3.772603493E0,-7.232147455E-2,6.839847565E-2,5.577373505E-1,5.665507032E-1
3.777584483E0,-9.515500069E-2,5.614948273E-2,6.386451721E-1,6.481318496E-1
3.782565472E0,-9.381890297E-2,8.136892319E-2,6.265640259E-1,6.387529779E-1
3.787508962E0,-4.462790489E-2,9.890985489E-2,5.220985413E-1,5.332557511E-1
3.792489952E0,-7.563829422E-3,1.351037025E-1,3.900966644E-1,4.128990549E-1
3.797470889E0,1.994073391E-2,1.496515274E-1,3.066701889E-1,3.418183981E-1
3.802451879E0,1.430356503E-2,1.760945320E-1,2.665987015E-1,3.198261150E-1
3.807432868E0,2.783751488E-2,1.717314720E-1,2.076883316E-1,2.709263162E-1
3.812413858E0,-6.181061268E-3,1.510715485E-1,2.132434845E-1,2.614069662E-1
3.817356097E0,-4.226136208E-2,1.213216782E-1,1.806106567E-1,2.216420124E-1
3.822337087E0,-7.094889879E-2,1.016254425E-1,1.742200851E-1,2.138085940E-1
3.827318025E0,-7.780414820E-2,8.234739304E-2,2.461214066E-1,2.709433989E-1
3.832299014E0,-6.298679113E-2,5.146360397E-2,3.173465729E-1,3.276044653E-1
3.837280004E0,-9.920179844E-3,3.727436066E-2,4.094371796E-1,4.112500358E-1
3.842260993E0,1.664465666E-2,6.097126007E-2,5.198898315E-1,5.237174583E-1
3.847208493E0,2.415347099E-2,4.117202759E-2,5.394325256E-1,5.415403731E-1
3.852189483E0,1.049339771E-3,9.005546570E-3,5.876493454E-1,5.877192817E-1
3.857170420E0,1.390337944E-2,3.589057922E-2,5.692663193E-1,5.705660171E-1
3.862151410E0,-3.270721436E-2,5.041885376E-2,4.300203323E-1,4.341996187E-1
3.867132400E0,-7.199019194E-2,4.575967789E-2,3.228635788E-1,3.339422501E-1
3.872113389E0,-1.207638383E-1,5.771446228E-2,2.309036255E-1,2.668920157E-1
3.877054014E0,-1.551994085E-1,7.438898087E-2,2.347173691E-1,2.910546688E-1
3.882035004E0,-1.779887676E-1,1.076459885E-1,1.719713211E-1,2.698921924E-1
3.887015993E0,-1.727263033E-1,1.361327171E-1,1.239061356E-1,2.524266685E-1
3.891996931E0,-1.416480839E-1,1.076664925E-1,1.093559265E-1,2.088419784E-1
3.896977920E0,-1.513640285E-1,1.342778206E-1,1.138324738E-1,2.321625170E-1
3.901958910E0,-1.017657518E-1,1.062879562E-1,1.466493607E-1,2.077484846E-1
3.906909691E0,-8.081227541E-2,9.996700287E-2,1.743927002E-1,2.166491159E-1
3.911890681E0,-5.101561546E-4,1.033020020E-1,2.564783096E-1,2.765007906E-1
3.916871618E0,6.060808897E-2,1.063637733E-1,3.546075821E-1,3.751441456E-1
3.921852608E0,1.218847036E-1,8.756923676E-2,4.758739471E-1,4.989792238E-1
3.926833597E0,8.109074831E-2,1.109552383E-1,5.442266464E-1,5.613104462E-1
3.931814587E0,1.698392630E-2,8.133840561E-2,4.555149078E-1,4.630315553E-1
3.936763337E0,3.000354767E-2,3.955841064E-3,3.867797852E-1,3.879619360E-1
3.941744327E0,2.985000610E-3,-3.722572327E-2,2.616157532E-1,2.642677941E-1
3.946725264E0,-7.362723351E-2,-3.514671326E-2,1.326541901E-1,1.557350157E-1
3.951706254E0,-1.641080081E-1,-2.332448959E-2,5.215644836E-2,1.737692874E-1
3.956687243E0,-2.329138815E-1,-6.577014923E-3,-2.303504944E-2,2.341425780E-1
3.961668233E0,-2.735180259E-1,2.945756912E-2,-9.776973724E-2,2.919568125E-1
3.966575368E0,-2.528355420E-1,2.534437180E-2,-1.554899216E-1,2.979014337E-1
3.971556358E0,-2.212055326E-1,1.932811737E-2,-2.010393143E-1,2.995367584E-1
3.976537295E0,-1.499717236E-1,1.143169403E-2,-2.036561966E-1,2.531759228E-1
3.981518285E0,-5.349004269E-2,3.957080841E-2,-8.763885498E-2,1.100345512E-1
3.986499275E0,3.499448299E-2,3.935146332E-2,-6.068611145E-2,8.034896159E-2
3.991480264E0,1.039735675E-1,4.890680313E-2,-4.837512970E-2,1.246696888E-1
3.996463545E0,1.825031042E-1,3.228425980E-2,1.324367523E-1,2.277919003E-1
4.001444535E0,2.017921805E-1,4.418087006E-2,2.808732986E-1,3.486572003E-1
4.006425472E0,1.433029175E-1,5.328559875E-2,3.925609589E-1,4.212827882E-1
4.011406462E0,6.914484501E-2,9.036970139E-2,4.892778397E-1,5.023350445E-1
4.016387452E0,-4.195773602E-2,9.576511383E-2,5.830526352E-1,5.923527530E-1
4.021368441E0,-9.974724054E-2,7.686567307E-2,5.955400467E-1,6.087082971E-1
4.026314691E0,-1.215587258E-1,7.666110992E-2,4.537773132E-1,4.759908608E-1
4.031295681E0,-1.601394415E-1,1.000194550E-1,3.513336182E-1,3.988531601E-1
4.036276618E0,-1.368711889E-1,1.041030884E-1,2.593030930E-1,3.111418798E-1
4.041257608E0,-9.753865004E-2,1.036009789E-1,1.180706024E-1,1.848989406E-1
4.046238597E0,-9.684181213E-2,4.624509811E-2,4.684162140E-2,1.170943345E-1
4.051219587E0,-5.136865377E-2,3.495740891E-2,-1.451492310E-2,6.380785234E-2
4.056128025E0,-3.000092506E-2,2.417516708E-2,-3.757953644E-2,5.382114610E-2
4.061109014E0,1.733529568E-2,3.272104263E-2,1.306152344E-2,3.926553835E-2
4.066089952E0,1.196604967E-2,8.662605286E-2,4.649448395E-2,9.904037770E-2
4.071070941E0,2.087253332E-2,8.791494370E-2,3.446197510E-2,9.670743353E-2
4.076051931E0,6.782078743E-2,5.834674835E-2,1.246519089E-1,1.534343529E-1
4.081032920E0,8.355426788E-2,5.519104004E-2,2.069396973E-1,2.298943342E-1
4.086013806E0,8.490335941E-2,7.067346573E-2,3.101367950E-1,3.292235575E-1
4.090993597E0,9.127408266E-2,8.319234848E-2,3.723220825E-1,3.922698792E-1
4.095973441E0,6.223595142E-2,1.119308472E-1,3.533687592E-1,3.758607563E-1
4.100953233E0,-6.961762905E-3,1.094875336E-1,2.585897446E-1,2.808997012E-1
4.105933025E0,-7.560956478E-2,1.022677422E-1,1.978855133E-1,2.352321699E-1
4.110912816E0,-1.153087616E-1,7.393550873E-2,1.803436279E-1,2.264649953E-1
4.115865316E0,-1.215444803E-1,6.252717972E-2,1.344184875E-1,1.917056042E-1
4.120845108E0,-1.160126328E-1,8.725309372E-2,8.153724670E-2,1.664943120E-1
4.125824952E0,-1.318622828E-1,8.599328995E-2,5.028057098E-2,1.652593215E-1
4.130804743E0,-1.498127282E-1,5.416345596E-2,4.523944855E-2,1.656023586E-1
4.135784535E0,-1.509230137E-1,-1.039695740E-2,7.335090637E-2,1.681255729E-1
4.140764327E0,-1.640905738E-1,-2.673768997E-2,9.639644623E-2,1.921793311E-1
4.145718962E0,-1.441487968E-1,-4.963874817E-3,1.169080734E-1,1.856637102E-1
4.150698754E0,-8.640331030E-2,1.169824600E-2,1.753578186E-1,1.958385701E-1
4.155678597E0,-4.806715250E-2,4.465007782E-2,1.574077606E-1,1.705323538E-1
4.160658389E0,-3.169846535E-2,3.911924362E-2,9.459972382E-2,1.071644329E-1
4.165638181E0,-1.551073790E-2,7.447242737E-3,5.372905731E-2,5.641680613E-2
4.170617972E0,2.604901791E-3,6.763935089E-3,9.882545471E-2,9.909090185E-2
4.175566462E0,3.934520483E-2,2.255916595E-2,9.138584137E-2,1.020212385E-1
4.180546254E0,1.591008902E-2,4.289340973E-2,2.232074738E-2,5.090374538E-2
4.185526097E0,-1.953744888E-2,5.120992661E-2,8.475303650E-3,5.546169186E-2
4.190505889E0,-3.840982914E-2,6.416559219E-2,6.670951843E-3,7.508022239E-2
4.195485681E0,-4.546612501E-2,5.820274353E-2,2.617073059E-2,7.835582313E-2
4.200465472E0,-2.865892649E-2,8.806991577E-2,8.105754852E-2,1.230770909E-1
4.205416775E0,3.333163261E-2,9.858608246E-2,1.379032135E-1,1.727643183E-1
4.210396566E0,7.133638859E-2,9.212875366E-2,2.086505890E-1,2.389804508E-1
4.215376410E0,8.081293106E-2,6.885099411E-2,2.195367813E-1,2.438597703E-1
4.220356202E0,8.387595415E-2,6.936788559E-2,2.256097794E-1,2.504932170E-1
4.225335993E0,1.065351963E-1,3.632402420E-2,1.699905396E-1,2.038773316E-1
4.230315785E0,8.451014757E-2,5.881309509E-3,8.156013489E-2,1.175951123E-1
4.235266670E0,2.284342051E-2,3.044128418E-2,8.945465088E-4,3.806959228E-2
4.240246462E0,3.095245361E-2,2.885675430E-2,-8.382797241E-4,4.232575299E-2
4.245226306E0,2.005076408E-2,1.417636871E-3,-5.080223083E-3,2.073286042E-2
4.250206097E0,-1.003748178E-2,2.913951874E-3,-7.351684570E-2,7.425610250E-2
4.255185889E0,-4.482811689E-2,-1.910448074E-2,-1.082515717E-1,1.187137061E-1
4.260165681E0,-1.551163197E-2,-4.054260254E-2,-1.120100021E-1,1.201272406E-1
4.265115837E0,-1.790589094E-2,-4.939222336E-2,-1.349954605E-1,1.448585069E-1
4.270095629E0,1.934337616E-2,-5.074787140E-2,-1.246414185E-1,1.359595375E-1
4.275075420E0,1.053977013E-2,-2.814960480E-2,-4.791831970E-2,5.656546975E-2
4.280055264E0,1.537424326E-2,1.533985138E-3,2.813339233E-2,3.209685702E-2
4.285035056E0,6.279945374E-4,-2.343177795E-3,6.561088562E-2,6.565571697E-2
4.290014847E0,-1.671540737E-2,2.939558029E-2,1.147060394E-1,1.195867069E-1
4.294968545E0,-1.979708672E-2,3.959083557E-2,1.110849380E-1,1.195793559E-1
4.299948337E0,-2.772986889E-2,3.294324875E-2,1.574621201E-1,1.632437519E-1
4.304928181E0,-2.117413282E-2,4.773569107E-2,1.654310226E-1,1.734775587E-1
4.309907972E0,-2.411782742E-3,4.351234436E-2,2.112541199E-1,2.157022113E-1
4.314887764E0,2.385181189E-2,8.680009842E-2,2.614269257E-1,2.764908741E-1
4.319867556E0,2.912932634E-2,1.035022736E-1,3.396968842E-1,3.563077481E-1
4.324806358E0,2.568238974E-2,1.198115349E-1,4.055185318E-1,4.236268035E-1
4.329786150E0,1.633763313E-3,1.166505814E-1,4.804210663E-1,4.943828762E-1
4.334765993E0,-5.225831270E-2,1.177239418E-1,5.026741028E-1,5.189133948E-1
4.339745785E0,-3.858923912E-2,9.938335419E-2,4.489021301E-1,4.613884512E-1
4.344725577E0,-2.489048243E-2,9.733772278E-2,3.768329620E-1,3.899964739E-1
4.349705368E0,1.934432983E-2,1.067209244E-1,2.747545242E-1,2.953872160E-1
4.354633181E0,5.798518658E-3,8.738279343E-2,8.335971832E-2,1.209058230E-1
4.359612972E0,3.785908222E-3,5.397891998E-2,-9.216880798E-2,1.068791190E-1
4.364592816E0,-1.562839746E-2,4.262876511E-2,-2.711458206E-1,2.749209240E-1
4.369572608E0,-6.178396940E-2,2.242517471E-2,-3.942432404E-1,3.996847256E-1
4.374552400E0,-1.558965445E-1,2.690982819E-2,-4.359073639E-1,4.637273998E-1
4.379532191E0,-1.667804718E-1,3.850460052E-3,-4.468431473E-1,4.769689194E-1
4.384520316E0,-1.068643332E-1,1.039361954E-2,-3.797531128E-1,3.946396327E-1
4.389500108E0,-5.006796122E-2,-1.350259781E-2,-1.899480820E-1,1.968994534E-1
4.394479952E0,2.522772551E-2,5.817413330E-3,7.177925110E-2,7.630557857E-2
4.399459743E0,4.575622082E-2,-3.979206085E-3,3.410415649E-1,3.441203494E-1
4.404439535E0,1.330814958E-1,2.098846436E-2,5.372829437E-1,5.539171073E-1
4.409419327E0,2.202721834E-1,5.175113678E-2,6.303176880E-1,6.697002335E-1
4.414370160E0,1.961336136E-1,8.137655258E-2,5.994548798E-1,6.359533714E-1
4.419349952E0,1.469897628E-1,6.024503708E-2,5.287399292E-1,5.520881882E-1
4.424329795E0,7.053130865E-2,5.782365799E-2,3.827972412E-1,3.935123490E-1
4.429309587E0,-1.710051298E-2,4.573297501E-2,2.096633911E-1,2.152734775E-1
4.434289379E0,-1.017252207E-1,5.274724960E-2,1.068696976E-1,1.566889438E-1
4.439269170E0,-1.434158683E-1,5.769157410E-2,-2.848434448E-2,1.571871079E-1
4.444221150E0,-1.355935931E-1,5.340862274E-2,-1.604557037E-1,2.167582440E-1
4.449200941E0,-9.283083677E-2,1.867723465E-2,-2.487401962E-1,2.661542571E-1
4.454180785E0,-1.984333992E-2,1.561927795E-2,-2.130136490E-1,2.145053254E-1
4.459160577E0,7.377302647E-2,2.475309372E-2,-1.017179489E-1,1.280691853E-1
4.464140368E0,1.334012151E-1,-6.475448608E-3,-1.278591156E-2,1.341689053E-1
4.469120160E0,1.312107444E-1,1.706266403E-2,2.318382263E-2,1.343312457E-1
4.474071879E0,1.177047491E-1,4.037332535E-2,5.170440674E-2,1.347507293E-1
4.479051670E0,7.852792740E-2,-1.248788834E-2,5.618286133E-2,9.736065244E-2
4.484031514E0,-9.858191013E-3,-1.735591888E-2,1.057109833E-1,1.075789191E-1
4.489011306E0,-1.020988226E-1,-7.812500000E-3,1.119899750E-1,1.517463648E-1
4.493991097E0,-8.453583717E-2,1.840448380E-2,1.324186325E-1,1.581762530E-1
4.498970889E0,-8.183187246E-2,5.867815018E-2,1.004381180E-1,1.422230509E-1
4.503921410E0,-8.639502525E-2,4.402446747E-2,1.114664078E-1,1.477396839E-1
4.508901202E0,-9.338033199E-2,1.277732849E-2,1.319599152E-1,1.621621588E-1
4.513881045E0,-1.097924113E-1,-8.746623993E-3,1.332979202E-1,1.729138877E-1
4.518860837E0,-9.774178267E-2,-1.107597351E-2,1.583871841E-1,1.864474011E-1
4.523840629E0,-2.185976505E-2,3.879213333E-2,1.619501114E-1,1.679598688E-1
4.528820420E0,4.624104500E-2,4.780769348E-2,1.607627869E-1,1.739783993E-1
4.533772972E0,8.758234978E-2,6.381511688E-2,1.287412643E-1,1.682775989E-1
4.538752764E0,8.351987600E-2,4.404401779E-2,1.231174469E-1,1.551558923E-1
4.543732608E0,6.761848927E-2,2.215385437E-2,1.459970474E-1,1.624136423E-1
4.548712400E0,7.573586702E-2,4.062128067E-2,1.664161682E-1,1.872974934E-1
4.553692191E0,1.026859879E-1,7.784795761E-2,2.104787827E-1,2.467914799E-1
4.558671983E0,1.223614216E-1,9.798288345E-2,2.186193466E-1,2.690118616E-1
4.563622712E0,9.263044596E-2,1.035037041E-1,2.528810501E-1,2.885173163E-1
4.568602504E0,4.498732090E-2,7.328414917E-2,2.440671921E-1,2.587725252E-1
4.573582347E0,4.588997364E-2,4.337310791E-2,1.924877167E-1,2.025799527E-1
4.578562139E0,1.651906967E-2,1.618957520E-2,2.030000687E-1,2.043135088E-1
4.583541931E0,-5.968242884E-2,3.433275223E-2,1.611490250E-1,1.752419426E-1
4.588521722E0,-1.042283177E-1,3.561210632E-2,1.410636902E-1,1.789713078E-1
4.593467608E0,-9.165745974E-2,-5.867481232E-3,8.790206909E-2,1.271309994E-1
4.598446462E0,-8.179438114E-2,-4.196500778E-2,6.830120087E-2,1.145270130E-1
4.603425264E0,-8.907043934E-2,-3.504085541E-2,6.079578400E-2,1.133910581E-1
4.608404118E0,-5.397647619E-2,-4.489517212E-2,1.128253937E-1,1.328856874E-1
4.613382972E0,-5.542397499E-2,-2.636289597E-2,1.622028351E-1,1.734260044E-1
4.618361827E0,-3.132736683E-2,-5.098438263E-2,1.947154999E-1,2.037030610E-1
4.623325368E0,1.596176624E-2,-7.105255127E-2,2.533369064E-1,2.635959620E-1
4.628304222E0,7.947194576E-2,-6.766653061E-2,2.618436813E-1,2.818805828E-1
4.633283077E0,9.045374393E-2,-4.552459717E-2,2.442512512E-1,2.644107457E-1
4.638261879E0,6.589704752E-2,-5.001354218E-2,2.388429642E-1,2.527641921E-1
4.643240733E0,-1.774436235E-2,-3.560876846E-2,1.694154739E-1,1.740242788E-1
4.648219587E0,-6.725531816E-2,-2.860307693E-2,8.163452148E-2,1.095701097E-1
4.653172400E0,-1.119639874E-1,-1.919412613E-2,3.019809723E-2,1.175426477E-1
4.658151254E0,-1.398973465E-1,-7.250785828E-3,-3.517627716E-2,1.444341093E-1
4.663130056E0,-1.441888809E-1,9.542465210E-3,-1.000890732E-1,1.757820087E-1
4.668108962E0,-9.886038303E-2,2.887582779E-2,-1.717338562E-1,2.002491102E-1
4.673087764E0,-8.030354977E-2,4.836702347E-2,-2.215585709E-1,2.405747896E-1
4.678066618E0,-4.264432192E-2,3.720235825E-2,-1.951847076E-1,2.032230886E-1
4.683024170E0,-3.318279982E-2,-2.588272095E-2,-1.430807114E-1,1.491412197E-1
4.688002972E0,1.479458809E-2,-5.013322830E-2,-1.248798370E-1,1.353779676E-1
4.692981879E0,7.455170155E-2,-5.993604660E-2,-1.211013794E-1,1.543237829E-1
4.697960733E0,1.123977900E-1,-1.731824875E-2,-1.387748718E-1,1.794203165E-1
4.702939535E0,4.729712009E-2,1.814937592E-2,-2.372179031E-1,2.425670031E-1
4.707918389E0,-8.446758986E-2,-5.065870285E-2,-3.327140808E-1,3.469866532E-1
4.712875420E0,-1.420081258E-1,-1.991844177E-1,-2.257213593E-1,3.328526282E-1
4.717854275E0,-1.059782505E-1,-2.370204926E-1,-9.746551514E-4,2.596363869E-1
4.722833077E0,-9.584712982E-2,-1.559476852E-1,1.031847000E-1,2.101271880E-1
4.727811931E0,-1.908767223E-2,-3.026723862E-2,8.522701263E-2,9.243423958E-2
4.732790785E0,2.620506287E-2,6.129884720E-2,1.053180695E-1,1.246440923E-1
4.737769639E0,3.059345484E-2,7.107925415E-2,1.681528091E-1,1.851042600E-1
4.742689691E0,-3.416061401E-2,3.538608551E-2,1.902389526E-1,1.964942282E-1
4.747668545E0,-7.029020786E-2,4.032850266E-2,1.765642166E-1,1.942730656E-1
4.752647400E0,-5.669945478E-2,4.270219803E-2,1.203622818E-1,1.397332629E-1
4.757626254E0,-1.270818710E-2,6.168079376E-2,1.287975311E-1,1.433695308E-1
4.762605108E0,3.790521622E-2,1.065196991E-1,1.942481995E-1,2.247567901E-1
4.767583910E0,6.203109026E-2,1.126570702E-1,2.189426422E-1,2.539199720E-1
4.772574170E0,5.765420198E-2,8.759880066E-2,2.459363937E-1,2.673616776E-1
4.777553025E0,7.034134865E-2,8.150720596E-2,2.846908569E-1,3.043685496E-1
4.782531827E0,5.233740807E-2,6.556749344E-2,2.900609970E-1,3.019498012E-1
4.787510733E0,3.017753363E-2,2.813291550E-2,3.192472458E-1,3.219020789E-1
4.792489535E0,2.994006872E-2,3.334379196E-2,3.246431351E-1,3.277214996E-1
4.797468389E0,1.616239548E-3,-1.414346695E-2,3.111772537E-1,3.115027016E-1
4.802427764E0,2.370351553E-2,-9.204387665E-3,2.813014984E-1,2.824484208E-1
4.807406618E0,5.290150642E-2,-1.642990112E-2,2.304182053E-1,2.369832491E-1
4.812385472E0,9.381091595E-2,-3.557586670E-2,1.158723831E-1,1.532727615E-1
4.817364327E0,1.153916121E-1,-3.777313232E-2,-3.344058990E-2,1.259377096E-1
4.822343129E0,8.674079180E-2,-3.021383286E-2,-1.816291809E-1,2.035337810E-1
4.827321983E0,7.226270437E-2,-3.880500793E-2,-3.074789047E-1,3.182310543E-1
4.832277191E0,5.255526304E-2,-2.998971939E-2,-3.851156235E-1,3.898403293E-1
4.837256045E0,1.350712776E-2,-5.376100540E-2,-4.197225571E-1,4.233671139E-1
4.842234847E0,9.912133217E-3,-3.391695023E-2,-3.522186279E-1,3.539866830E-1
4.847213754E0,1.312243938E-2,-1.859188080E-3,-2.784042358E-1,2.787195248E-1
4.852192556E0,3.303390741E-2,2.552604675E-2,-1.056318283E-1,1.135821344E-1
4.857171410E0,8.852255344E-2,2.871561050E-2,1.061944962E-1,1.412023363E-1
4.862129639E0,1.061796546E-1,-9.077548981E-3,2.880182266E-1,3.071009929E-1
4.867108493E0,5.540066957E-2,-3.068065643E-2,3.903093338E-1,3.954135973E-1
4.872087347E0,-1.730144024E-3,-2.720355988E-3,3.827247620E-1,3.827383403E-1
4.877066202E0,-5.821442604E-2,-1.116609573E-2,3.208541870E-1,3.262836349E-1
4.882045004E0,-1.263145804E-1,-1.032114029E-2,2.382907867E-1,2.698970141E-1
4.887023858E0,-1.514779329E-1,1.429796219E-2,1.303014755E-1,2.003209186E-1
4.891941827E0,-1.340512037E-1,2.216959000E-2,-2.907085419E-2,1.389472220E-1
4.896920681E0,-1.171768308E-1,2.555990219E-2,-1.468858719E-1,1.896290527E-1
4.901899535E0,-5.086481571E-2,-4.203176498E-2,-1.878519058E-1,1.991035843E-1
4.906878389E0,7.696807384E-3,-7.080841064E-2,-2.119779587E-1,2.236240748E-1
4.911857243E0,3.971660137E-2,-5.658912659E-2,-1.788930893E-1,1.917875780E-1
4.916836045E0,6.935256720E-2,-7.566118240E-2,-1.223955154E-1,1.597343272E-1
4.921827295E0,1.086767316E-1,-7.346296310E-2,-1.874160767E-2,1.325091951E-1
4.926806150E0,1.170232296E-1,-8.826589584E-2,2.246475220E-2,1.482901538E-1
4.931785004E0,7.330238819E-2,-7.960844040E-2,-2.197742462E-2,1.104253191E-1
4.936763858E0,3.003430367E-2,-1.021213531E-1,-1.039447784E-1,1.487795252E-1
4.941742660E0,-5.719125271E-3,-1.363773346E-1,-1.661977768E-1,2.150655407E-1
4.946721514E0,-1.049572229E-2,-1.344594955E-1,-2.874460220E-1,3.175133567E-1
4.951677972E0,-2.492523193E-2,-1.203360558E-1,-3.247165680E-1,3.471928614E-1
4.956656827E0,-1.576018333E-2,-1.084036827E-1,-3.594484329E-1,3.757697669E-1
4.961635681E0,-2.824842930E-2,-1.152782440E-1,-3.607835770E-1,3.798049983E-1
4.966614535E0,2.088308334E-3,-1.407852173E-1,-3.076429367E-1,3.383326986E-1
4.971593337E0,-8.174061775E-3,-1.754679680E-1,-2.526359558E-1,3.077023712E-1
4.976572191E0,1.022684574E-2,-1.718487740E-1,-1.814661026E-1,2.501330364E-1
4.981493025E0,6.658262014E-2,-1.752796173E-1,-1.299610138E-1,2.281360442E-1
4.986471879E0,1.062826514E-1,-1.574091911E-1,-5.747985840E-2,1.984378733E-1
4.991450733E0,1.174800992E-1,-1.709332466E-1,5.495834351E-2,2.145697277E-1
4.996429587E0,1.191428304E-1,-1.943550110E-1,1.263551712E-1,2.606425016E-1
5.001408441E0,7.810878754E-2,-1.587886810E-1,1.903562546E-1,2.599044662E-1
5.006387243E0,-7.647395134E-3,-1.621627808E-1,1.544017792E-1,2.240427627E-1
5.011380368E0,-6.433540583E-2,-1.659030914E-1,6.196689606E-2,1.884218045E-1
5.016359222E0,-1.086798310E-1,-2.054271698E-1,-8.185768127E-2,2.463986764E-1
5.021338077E0,-1.361913085E-1,-1.899118423E-1,-2.292613983E-1,3.273764945E-1
5.026316931E0,-1.351916790E-1,-2.076306343E-1,-3.873825073E-1,4.598396213E-1
5.031295733E0,-1.368554831E-1,-2.010393143E-1,-5.040054321E-1,5.596138890E-1
5.036274587E0,-1.102350950E-1,-2.036414146E-1,-5.913362503E-1,6.350591806E-1
5.041230993E0,-9.120470285E-2,-2.365069389E-1,-6.663761139E-1,7.129592942E-1
5.046209847E0,-4.882675409E-2,-2.614364624E-1,-7.054395676E-1,7.539085218E-1
5.051188702E0,-2.125692368E-2,-2.570548058E-1,-6.922330856E-1,7.387257101E-1
5.056167556E0,1.545089483E-2,-2.762341499E-1,-6.436233521E-1,7.005676663E-1
5.061146358E0,7.336503267E-2,-3.021469116E-1,-5.219173431E-1,6.075137013E-1
5.066125212E0,9.074050188E-2,-2.898955345E-1,-3.703355789E-1,4.789798541E-1
5.071081670E0,5.601882935E-2,-3.041858673E-1,-2.650032043E-1,4.073006867E-1
5.076060525E0,2.982914448E-3,-2.902092934E-1,-2.268934250E-1,3.683896823E-1
5.081039379E0,-7.527369261E-2,-3.219780922E-1,-2.411222458E-1,4.092382656E-1
5.086018233E0,-1.405169964E-1,-3.037834167E-1,-2.789201736E-1,4.356900892E-1
5.090997035E0,-1.530492306E-1,-2.879910469E-1,-3.924846649E-1,5.103010114E-1
5.095975889E0,-1.610531211E-1,-2.981071472E-1,-5.456590652E-1,6.423003927E-1
5.100871514E0,-1.241532564E-1,-2.910103798E-1,-6.954374313E-1,7.640250605E-1
5.105849535E0,-7.837456465E-2,-2.880463600E-1,-7.873115540E-1,8.420052024E-1
5.110827504E0,-3.121471405E-2,-2.770986557E-1,-8.218545914E-1,8.678726823E-1
5.115805525E0,-3.479403257E-2,-2.988209724E-1,-8.231945038E-1,8.764438312E-1
5.120783493E0,-3.393858671E-2,-3.102197647E-1,-7.607173920E-1,8.222402815E-1
5.125761462E0,-4.736965895E-2,-3.330574036E-1,-6.419363022E-1,7.247436338E-1
5.130781358E0,-1.318264008E-2,-3.316102028E-1,-5.409622192E-1,6.346489039E-1
5.135759327E0,4.016286135E-2,-3.347725868E-1,-3.649301529E-1,4.968498333E-1
5.140737295E0,6.251758337E-2,-3.525443077E-1,-1.878004074E-1,4.043079645E-1
5.145715316E0,8.268481493E-2,-3.447294235E-1,-4.979515076E-2,3.579870264E-1
5.150693285E0,1.104982495E-1,-3.593411446E-1,1.208105087E-1,3.948811218E-1
5.155671306E0,1.531997919E-1,-3.228063583E-1,2.526082993E-1,4.375900754E-1
5.160631097E0,1.699296832E-1,-2.783474922E-1,2.580718994E-1,4.158780217E-1
5.165609066E0,1.038582921E-1,-2.899918556E-1,7.877063751E-2,3.179412438E-1
5.170587035E0,2.196878195E-2,-3.449549675E-1,-1.533298492E-1,3.781356895E-1
5.175565056E0,-3.086251020E-2,-3.947939873E-1,-3.834371567E-1,5.512157836E-1
5.180543025E0,-1.120641828E-1,-3.774909973E-1,-6.045932770E-1,7.215198297E-1
5.185521045E0,-1.454256773E-1,-3.909130096E-1,-7.599067688E-1,8.668447993E-1
5.190482191E0,-1.483119130E-1,-4.130525589E-1,-8.691110611E-1,9.736338513E-1
5.195460160E0,-1.662198305E-1,-3.796715736E-1,-9.492263794E-1,1.035765541E0
5.200438129E0,-1.679918766E-1,-4.126310349E-1,-9.694871902E-1,1.066954101E0
5.205416150E0,-1.087231636E-1,-4.567904472E-1,-9.374856949E-1,1.048502583E0
5.210394118E0,-2.920252085E-2,-4.454998970E-1,-9.558343887E-1,1.054960816E0
5.215372087E0,8.035129309E-2,-4.053697586E-1,-9.362459183E-1,1.023395032E0
5.220334847E0,1.392977834E-1,-3.867340088E-1,-8.361892700E-1,9.317615367E-1
5.225312868E0,1.745950580E-1,-3.776392937E-1,-7.442045212E-1,8.526049729E-1
5.230290837E0,1.531613469E-1,-3.826584816E-1,-6.531515121E-1,7.723294696E-1
5.235268858E0,9.199517965E-2,-3.947830200E-1,-5.581321716E-1,6.898030639E-1
5.240246827E0,5.791521072E-2,-3.856835365E-1,-5.065555573E-1,6.393000036E-1
5.245224847E0,5.371928215E-3,-4.053001404E-1,-5.052413940E-1,6.477390892E-1
5.250183285E0,-5.607670546E-2,-4.341998100E-1,-4.897279739E-1,6.568923507E-1
5.255161254E0,-1.074402928E-1,-4.080691338E-1,-5.171937943E-1,6.674977567E-1
5.260139222E0,-1.133266687E-1,-4.200015068E-1,-6.062793732E-1,7.462029737E-1
5.265117243E0,-1.193514466E-1,-4.434456825E-1,-6.234893799E-1,7.743564089E-1
5.270095212E0,-1.325702667E-1,-4.259433746E-1,-6.098680496E-1,7.556068237E-1
5.275073181E0,-1.006021500E-1,-4.107069969E-1,-5.917444229E-1,7.272980764E-1
5.280035733E0,-6.421786547E-2,-4.311947823E-1,-5.975418091E-1,7.396682284E-1
5.285013702E0,-6.621986628E-2,-4.610514641E-1,-5.676288605E-1,7.342724606E-1
5.289991670E0,-6.842327118E-2,-4.407701492E-1,-5.427007675E-1,7.024842999E-1
5.294969691E0,-6.141489744E-2,-4.112081528E-1,-5.583076477E-1,6.961116031E-1
5.299947660E0,-6.192165613E-2,-4.082241058E-1,-5.570192337E-1,6.933625594E-1
5.304925681E0,3.713011742E-3,-3.794298172E-1,-5.151624680E-1,6.398227419E-1
5.309885056E0,4.964780807E-2,-3.607864380E-1,-4.567880630E-1,5.841978203E-1
5.314863025E0,7.147610188E-2,-3.638849258E-1,-4.059123993E-1,5.498053731E-1
5.319840993E0,6.254392862E-2,-3.293085098E-1,-3.766679764E-1,5.042168205E-1
5.324819014E0,4.916870594E-2,-3.142428398E-1,-3.855733871E-1,4.998329330E-1
5.329796983E0,4.335570335E-2,-3.090639114E-1,-3.942871094E-1,5.028543954E-1
5.334774952E0,2.125495672E-2,-2.826042175E-1,-4.480562210E-1,5.301615736E-1
5.339734066E0,1.152992249E-2,-3.039751053E-1,-5.037231445E-1,5.884477972E-1
5.344712035E0,-2.683818340E-3,-2.703242302E-1,-5.495529175E-1,6.124465703E-1
5.349690004E0,4.082918167E-5,-2.771945000E-1,-5.832185745E-1,6.457404263E-1
5.354668025E0,-2.337676287E-2,-3.003778458E-1,-6.286239624E-1,6.970949787E-1
5.359645993E0,-1.339465380E-2,-2.754669189E-1,-6.786127090E-1,7.325139241E-1
5.364624014E0,-2.960526943E-2,-2.931389809E-1,-6.808881760E-1,7.419000217E-1
5.369582660E0,-4.069834948E-2,-2.889971733E-1,-6.096801758E-1,6.759331613E-1
5.374560629E0,-1.838499308E-2,-2.727398872E-1,-5.392198563E-1,6.045519890E-1
5.379538597E0,4.181993008E-2,-2.542400360E-1,-4.741039276E-1,5.395937700E-1
5.384516618E0,5.152511597E-2,-2.312984467E-1,-4.165620804E-1,4.792470927E-1
5.389494587E0,2.295976877E-2,-2.277593613E-1,-3.950033188E-1,4.565403591E-1
5.394472608E0,1.768708229E-3,-2.386136055E-1,-3.830661774E-1,4.513084060E-1
5.399434691E0,-6.928044558E-2,-2.779288292E-1,-3.878211975E-1,4.821301645E-1
5.404412660E0,-8.275008202E-2,-2.575201988E-1,-3.521537781E-1,4.440456196E-1
5.409390629E0,-7.012403011E-2,-2.300052643E-1,-3.691158295E-1,4.405295640E-1
5.414368650E0,-9.328365326E-2,-2.098937035E-1,-3.336439133E-1,4.050623009E-1
5.419346618E0,-7.590895891E-2,-2.184638977E-1,-3.507204056E-1,4.201112323E-1
5.424324639E0,-6.378918886E-2,-1.723222733E-1,-3.319950104E-1,3.794531768E-1
5.429285525E0,-3.539848328E-2,-2.166080475E-1,-3.444108963E-1,4.084004950E-1
5.434263493E0,-3.828006983E-2,-2.508592606E-1,-3.069143295E-1,3.982362842E-1
5.439241462E0,1.372855902E-2,-2.538323402E-1,-2.222957611E-1,3.376902955E-1
5.444219483E0,7.012432814E-2,-2.546386719E-1,-1.050033569E-1,2.842252269E-1
5.449197452E0,1.257526875E-1,-2.225327492E-1,-3.122997284E-2,2.575070369E-1
5.454175472E0,1.594560146E-1,-1.982727051E-1,-5.769729614E-4,2.544378491E-1
5.459136150E0,1.358301640E-1,-1.747069359E-1,2.771759033E-2,2.230260337E-1
5.464114118E0,8.881556988E-2,-1.873612404E-1,1.796817780E-2,2.081232694E-1
5.469092087E0,4.717713594E-2,-1.857914925E-1,-4.865837097E-2,1.977670293E-1
5.474070108E0,-2.703893185E-2,-1.867523193E-1,-1.004266739E-1,2.137593260E-1
5.479048077E0,-5.030524731E-2,-1.331510544E-1,-1.208724976E-1,1.867350579E-1
5.484026097E0,-2.090847492E-2,-1.182317734E-1,-1.719236374E-1,2.096989596E-1
5.488963129E0,-2.738940716E-2,-1.012063026E-1,-2.129678726E-1,2.373777793E-1
5.493941097E0,-1.727449894E-2,-7.958412170E-2,-3.011665344E-1,3.119828877E-1
5.498919066E0,-3.333091736E-4,-1.079769135E-1,-3.601341248E-1,3.759730213E-1
5.503897087E0,-1.235061884E-2,-1.029191017E-1,-4.256877899E-1,4.381266641E-1
5.508875056E0,-7.841467857E-3,-1.000609398E-1,-4.789199829E-1,4.893240545E-1
5.513853025E0,4.399418831E-2,-1.041078568E-1,-4.391841888E-1,4.534938656E-1
5.518840941E0,6.689506769E-2,-8.190345764E-2,-3.736963272E-1,3.883710486E-1
5.523818962E0,6.567019224E-2,-1.003785133E-1,-3.110551834E-1,3.333822839E-1
5.528796931E0,3.098720312E-2,-1.092014313E-1,-2.251615524E-1,2.521564674E-1
5.533774952E0,-1.055020094E-2,-1.204795837E-1,-1.280193329E-1,1.761124255E-1
5.538752920E0,-4.236418009E-2,-1.270904541E-1,-1.052207947E-1,1.703470660E-1
5.543730941E0,-5.472368002E-2,-9.581947327E-2,-7.540225983E-2,1.336471227E-1
5.548688181E0,-7.872164249E-2,-1.219449043E-1,-8.615970612E-2,1.687932216E-1
5.553666202E0,-3.342556953E-2,-1.290764809E-1,-7.058906555E-2,1.508669042E-1
5.558644170E0,1.191926003E-2,-1.578125954E-1,-7.165718079E-2,1.737286262E-1
5.563622191E0,5.243247747E-2,-1.579680443E-1,-6.789875031E-2,1.797590276E-1
5.568600160E0,5.002522469E-2,-1.678328514E-1,-1.258363724E-1,2.156506010E-1
5.573578181E0,3.349632025E-2,-1.919980049E-1,-2.473669052E-1,3.149216143E-1
5.578539535E0,-1.586681604E-2,-1.896910667E-1,-3.537330627E-1,4.016983151E-1
5.583517556E0,-5.301171541E-2,-2.486958504E-1,-4.214563370E-1,4.922248591E-1
5.588495525E0,-5.654722452E-2,-2.689080238E-1,-4.436435699E-1,5.218512537E-1
5.593473545E0,-5.995905399E-2,-2.342195511E-1,-3.659324646E-1,4.385891642E-1
5.598451514E0,-1.599508524E-2,-2.210617065E-1,-3.483200073E-1,4.128570556E-1
5.603429535E0,-3.322303295E-3,-1.960964203E-1,-2.999897003E-1,3.584113057E-1
5.608352712E0,-1.952797174E-2,-1.809239388E-1,-2.709999084E-1,3.264288034E-1
5.613330160E0,-5.245900154E-2,-1.944384575E-1,-2.778348923E-1,3.431479097E-1
5.618307608E0,-6.159597635E-2,-1.862716675E-1,-3.393354416E-1,3.919690553E-1
5.623285056E0,-8.028364182E-2,-1.826772690E-1,-3.576879501E-1,4.095816371E-1
5.628262556E0,-9.628188610E-2,-1.931185722E-1,-3.332777023E-1,3.970377959E-1
5.633239952E0,-1.097759008E-1,-1.676902771E-1,-3.257799149E-1,3.824961835E-1
5.638240629E0,-5.902272463E-2,-1.399016380E-1,-2.946968079E-1,3.315152469E-1
5.643218077E0,-3.215599060E-2,-1.644811630E-1,-2.378358841E-1,2.909535504E-1
5.648195525E0,1.608848572E-3,-1.746425629E-1,-2.028045654E-1,2.676421210E-1
5.653172972E0,1.138859987E-2,-1.681456566E-1,-1.846694946E-1,2.500109683E-1
5.658150420E0,-3.353697062E-2,-1.807765961E-1,-1.713991165E-1,2.513614195E-1
5.663127868E0,-5.685400963E-2,-1.768074036E-1,-1.605291367E-1,2.454849081E-1
5.668054275E0,-1.016511321E-1,-2.204065323E-1,-1.829700470E-1,3.039572836E-1
5.673031722E0,-1.034834385E-1,-2.160801888E-1,-1.886100769E-1,3.049151212E-1
5.678009222E0,-4.828751087E-2,-2.069449425E-1,-1.918783188E-1,2.863130841E-1
5.682986670E0,-5.303841829E-2,-1.884698868E-1,-1.095447540E-1,2.243524575E-1
5.687964066E0,1.339668036E-2,-2.014026642E-1,3.408050537E-2,2.047046287E-1
5.692941566E0,5.808639526E-2,-1.696567535E-1,1.387939453E-1,2.267624365E-1
5.697939639E0,1.710659266E-2,-1.386704445E-1,1.454896927E-1,2.017160836E-1
5.702917087E0,-9.059786797E-3,-1.155920029E-1,9.776210785E-2,1.516608736E-1
5.707894535E0,3.329634666E-3,-1.309499741E-1,1.965045929E-2,1.324580036E-1
5.712871983E0,-3.177970648E-2,-1.175751686E-1,-1.053819656E-1,1.610566009E-1
5.717849431E0,-4.029887915E-2,-1.350092888E-1,-2.461166382E-1,2.835928548E-1
5.722826879E0,-2.976423502E-2,-1.354379654E-1,-2.931575775E-1,3.243003506E-1
5.727792504E0,1.791536808E-3,-1.259622574E-1,-2.901163101E-1,3.162865367E-1
5.732769952E0,1.617008448E-2,-1.497244835E-1,-2.847557068E-1,3.221252942E-1
5.737747400E0,8.818745613E-3,-1.686382294E-1,-2.603616714E-1,3.103301833E-1
5.742724847E0,2.965521812E-2,-1.802597046E-1,-2.884044647E-1,3.413943883E-1
5.747702295E0,2.658849955E-2,-1.820049286E-1,-2.308492661E-1,2.951679623E-1
5.752679743E0,2.378195524E-2,-1.528992653E-1,-1.405096054E-1,2.090136740E-1
5.757604900E0,6.933331490E-3,-1.265878677E-1,-1.031026840E-1,1.634096778E-1
5.762582347E0,2.311229706E-3,-1.148977280E-1,-6.831932068E-2,1.336950233E-1
5.767559847E0,7.515490055E-3,-1.106729507E-1,-5.984687805E-2,1.260421891E-1
5.772537295E0,2.733957767E-2,-1.019392014E-1,-4.899024963E-2,1.163576291E-1
5.777514743E0,4.966425896E-2,-1.077337265E-1,-1.165285110E-1,1.662888701E-1
5.782492139E0,4.819262028E-2,-1.088762283E-1,-2.451972961E-1,2.725771006E-1
5.787491566E0,-1.720798016E-2,-1.430478096E-1,-3.396720886E-1,3.689660123E-1
5.792469014E0,-1.033521295E-1,-1.529440880E-1,-4.406232834E-1,4.777263176E-1
5.797446462E0,-1.558490992E-1,-1.527400017E-1,-5.006055832E-1,5.460992581E-1
5.802423910E0,-1.606722474E-1,-1.781740189E-1,-5.270814896E-1,5.791169560E-1
5.807401358E0,-1.681985855E-1,-1.838035583E-1,-5.441265106E-1,5.984548202E-1
5.812378806E0,-1.522904038E-1,-1.959366798E-1,-5.423116684E-1,5.963937418E-1
5.817344275E0,-1.035518050E-1,-2.408800125E-1,-4.551601410E-1,5.252779366E-1
5.822321722E0,-7.912439108E-2,-2.352652550E-1,-3.356304169E-1,4.174424346E-1
5.827299170E0,-3.357189894E-2,-2.556810379E-1,-2.575569153E-1,3.644659520E-1
5.832276618E0,2.832812071E-2,-2.404417992E-1,-1.373004913E-1,2.783274441E-1
5.837254066E0,7.796317339E-2,-1.900415421E-1,-8.362770081E-3,2.055820518E-1
5.842231514E0,2.966183424E-2,-1.500535011E-1,8.889675140E-2,1.769138492E-1
5.847191566E0,-4.456967115E-2,-1.323943138E-1,1.310644150E-1,1.915531018E-1
5.852169014E0,-1.183704734E-1,-1.176791191E-1,1.327428818E-1,2.132618501E-1
5.857146462E0,-1.514824629E-1,-8.430433273E-2,2.765464783E-2,1.755532302E-1
5.862123910E0,-1.157381535E-1,-4.886770248E-2,-6.938648224E-2,1.435195333E-1
5.867101358E0,-2.125549316E-2,-3.743076324E-2,-1.252326965E-1,1.324238887E-1
5.872078806E0,7.938468456E-2,-2.833175659E-2,-1.830482483E-1,2.015224002E-1
5.877033077E0,1.198198795E-1,-1.676702499E-2,-2.119674683E-1,2.440658605E-1
5.882010525E0,1.268957853E-1,-3.135299683E-2,-1.646900177E-1,2.102578243E-1
5.886987972E0,1.129621863E-1,-3.386259079E-2,-1.273860931E-1,1.735924748E-1
5.891965420E0,8.079791069E-2,-3.873395920E-2,-1.141977310E-1,1.451542067E-1
5.896942868E0,7.106447220E-2,-7.690095901E-2,-6.550693512E-2,1.235114377E-1
5.901920316E0,1.024857759E-1,-9.600925446E-2,3.275203705E-2,1.442005796E-1
5.906893910E0,8.450794220E-2,-1.199493408E-1,1.065082550E-1,1.813103556E-1
5.911871358E0,4.330360889E-2,-1.036410332E-1,8.953380585E-2,1.436418069E-1
5.916848806E0,-2.839732170E-2,-1.281709671E-1,2.773761749E-2,1.341774203E-1
5.921826254E0,-5.204159021E-2,-1.765236855E-1,-4.051494598E-2,1.884420322E-1
5.926803702E0,-4.972624779E-2,-2.078051567E-1,-1.366958618E-1,2.536561482E-1
5.931781150E0,-6.000226736E-2,-1.627225876E-1,-2.629489899E-1,3.149937839E-1
5.936745108E0,-5.892705917E-2,-1.439948082E-1,-3.501749039E-1,3.831832021E-1
5.941722556E0,-9.176874161E-2,-1.557960510E-1,-4.772844315E-1,5.103864614E-1
5.946700004E0,-1.227729321E-1,-1.716022491E-1,-5.679950714E-1,6.059199006E-1
5.951677452E0,-1.303304434E-1,-1.889858246E-1,-5.988826752E-1,6.413751827E-1
5.956654900E0,-1.313163042E-1,-1.817502975E-1,-5.775976181E-1,6.195935368E-1
5.961632347E0,-1.328551173E-1,-1.502079964E-1,-4.712610245E-1,5.121522016E-1
5.966556775E0,-1.083083153E-1,-1.352138519E-1,-3.446168900E-1,3.857126881E-1
5.971534222E0,-3.637474775E-2,-1.060147285E-1,-1.311807632E-1,1.725416981E-1
5.976511722E0,5.692207813E-2,-1.057076454E-1,7.338333130E-2,1.407101368E-1
5.981489118E0,1.191372871E-1,-1.036272049E-1,2.598972321E-1,3.041033739E-1
5.986466618E0,1.246501207E-1,-4.541349411E-2,3.549938202E-1,3.789731526E-1
5.991444014E0,7.870054245E-2,-6.459951401E-2,4.497232437E-1,4.611050515E-1
5.996442608E0,6.018304825E-2,-9.398269653E-2,4.537858963E-1,4.673075927E-1
6.001420056E0,2.587234974E-2,-9.043455124E-2,3.369216919E-1,3.498056789E-1
6.006397504E0,-2.942258120E-2,-5.397272110E-2,1.546802521E-1,1.664473589E-1
6.011374952E0,-1.539164782E-2,-4.883241653E-2,-6.960868835E-3,5.167166943E-2
6.016352400E0,-1.577275991E-2,-6.265354156E-2,-1.744232178E-1,1.860045836E-1
6.021329847E0,-3.084838390E-2,-7.369995117E-2,-3.714904785E-1,3.799848434E-1
6.026297087E0,-6.053936481E-2,-9.597539902E-2,-4.982929230E-1,5.110500259E-1
6.031274535E0,-8.129918575E-2,-9.840154648E-2,-5.982046127E-1,6.116708107E-1
6.036251983E0,-7.897073030E-2,-1.333603859E-1,-6.524696350E-1,6.706250766E-1
6.041229431E0,-1.009059548E-1,-1.031422615E-1,-5.783739090E-1,5.961012636E-1
6.046206879E0,-1.016793251E-1,-1.011614799E-1,-4.433879852E-1,4.660099094E-1
6.051184327E0,-2.431017160E-2,-1.346416473E-1,-2.312173843E-1,2.686649148E-1
6.056148285E0,4.278361797E-2,-1.348280907E-1,-4.039764404E-3,1.415110303E-1
6.061125733E0,5.484008789E-2,-1.214084625E-1,1.669521332E-1,2.135894772E-1
6.066103181E0,5.298995972E-2,-9.925889969E-2,2.940883636E-1,3.148781203E-1
6.071080629E0,7.540422678E-2,-1.041784286E-1,3.706531525E-1,3.923298381E-1
6.076058077E0,3.409934044E-2,-8.600473404E-2,3.162631989E-1,3.295178148E-1
6.081035525E0,1.493573189E-2,-8.982610703E-2,2.079114914E-1,2.269779589E-1
6.085994535E0,-4.156887531E-2,-9.612178802E-2,1.361265182E-1,1.717492314E-1
6.090971983E0,-8.072364330E-2,-9.775018692E-2,-1.577472687E-2,1.277507246E-1
6.095949431E0,-6.726473570E-2,-1.064023972E-1,-1.688346863E-1,2.105971654E-1
6.100926879E0,-3.992718458E-2,-9.806394577E-2,-2.732477188E-1,2.930444222E-1
6.105904327E0,-1.542973518E-2,-1.155471802E-1,-3.769798279E-1,3.945922176E-1
6.110881775E0,8.539199829E-3,-1.183052063E-1,-4.039821625E-1,4.210351854E-1
6.115847972E0,1.551532745E-2,-8.736038208E-2,-4.428577423E-1,4.516586561E-1
6.120825056E0,4.858475924E-2,-1.273355484E-1,-4.603652954E-1,4.801156381E-1
6.125802087E0,7.190704346E-2,-1.404881477E-1,-4.019117355E-1,4.317876628E-1
6.130779170E0,7.622557878E-2,-1.509394646E-1,-3.345785141E-1,3.748811050E-1
6.135756150E0,3.547525406E-2,-1.232647896E-1,-2.630805969E-1,2.926843051E-1
6.140733233E0,-1.678264141E-2,-1.361241341E-1,-1.993513107E-1,2.419759947E-1
6.145696097E0,-7.088452578E-2,-1.273660660E-1,-1.623640060E-1,2.181944115E-1
6.150673129E0,-1.103531122E-1,-1.018629074E-1,-1.257848740E-1,1.958971562E-1
6.155650160E0,-1.331511736E-1,-8.372926712E-2,-7.521629333E-2,1.743482606E-1
6.160627243E0,-1.703711748E-1,-8.240318298E-2,-2.264881134E-2,1.906032277E-1
6.165604275E0,-1.836072803E-1,-8.828783035E-2,1.052284241E-2,2.040027072E-1
6.170581306E0,-1.802989841E-1,-6.797742844E-2,5.416870117E-3,1.927640965E-1
6.175547035E0,-1.272627711E-1,-7.873964310E-2,4.551219940E-2,1.564196426E-1
6.180524014E0,-5.329525471E-2,-7.551956177E-2,1.329832077E-1,1.619509861E-1
6.185501097E0,1.057440042E-2,-6.072235107E-2,1.771144867E-1,1.875328325E-1
6.190478181E0,6.451177597E-2,-5.840301514E-2,1.641216278E-1,1.857648786E-1
6.195455212E0,1.063468456E-1,-7.317399979E-2,1.205806732E-1,1.766459300E-1
6.200432243E0,1.125636697E-1,-4.042959213E-2,5.130767822E-2,1.301445715E-1
6.205400108E0,6.195628643E-2,-4.355859756E-2,-4.593181610E-2,8.857575617E-2
6.210377191E0,5.688071251E-2,-5.374002457E-2,-1.257581711E-1,1.481165868E-1
6.215354222E0,-1.956212521E-2,-2.558898926E-2,-1.694040298E-1,1.724389702E-1
6.220331254E0,-5.517339706E-2,-5.216360092E-2,-2.008743286E-1,2.147455259E-1
6.225308337E0,-5.024725199E-2,-3.537988663E-2,-2.013978958E-1,2.105650378E-1
6.230285368E0,-2.151924372E-2,-4.700469971E-2,-1.592960358E-1,1.674746150E-1
6.235247660E0,4.665911198E-3,-9.412240982E-2,-1.033220291E-1,1.398436286E-1
6.240224691E0,3.798991442E-2,-1.101965904E-1,2.181053162E-3,1.165816415E-1
6.245201722E0,6.649529934E-2,-1.192913055E-1,8.081150055E-2,1.586900723E-1
6.250178806E0,5.916047096E-2,-1.073570251E-1,9.963226318E-2,1.579622741E-1
6.255155837E0,3.759235144E-2,-9.119415283E-2,3.538990021E-2,1.047950544E-1
6.260132868E0,-3.158372641E-2,-1.181101799E-1,-3.056812286E-2,1.260236347E-1
6.265097556E0,-9.336823225E-2,-1.068625450E-1,-1.149168015E-1,1.826009353E-1
6.270074587E0,-1.026428938E-1,-1.311416626E-1,-1.867713928E-1,2.502343951E-1
6.275051566E0,-8.358979225E-2,-1.336035728E-1,-2.985219955E-1,3.375685854E-1
6.280028702E0,-3.141224384E-3,-9.528779984E-2,-2.955036163E-1,3.105028492E-1
6.285005733E0,5.278825760E-3,-8.785057068E-2,-2.950572968E-1,3.079032269E-1
6.289982764E0,-9.941995144E-3,-8.504152298E-2,-2.353429794E-1,2.504340669E-1
6.294949743E0,-2.489095926E-2,-8.925199509E-2,-1.809625626E-1,2.033050111E-1
6.299926722E0,1.027721167E-2,-9.336996078E-2,-1.151981354E-1,1.486411149E-1
6.304903806E0,3.113442659E-2,-6.890916824E-2,-5.002117157E-2,9.066390457E-2
6.309880889E0,7.594668865E-2,-7.554149628E-2,1.458358765E-2,1.081068832E-1
6.314857920E0,1.087735891E-1,-4.440546036E-2,7.166671753E-2,1.376214264E-1
6.319834952E0,9.648811817E-2,-4.224967957E-2,1.117382050E-1,1.535591704E-1
6.324785212E0,3.490948677E-2,-6.415843964E-2,1.492214203E-1,1.661385263E-1
6.329762243E0,-2.819871902E-2,-7.671689987E-2,1.461668015E-1,1.674675620E-1
6.334739275E0,-1.072458029E-1,-8.935880661E-2,3.870582581E-2,1.448613113E-1
6.339716306E0,-1.263429523E-1,-1.186547279E-1,-7.015609741E-2,1.869849300E-1
6.344693389E0,-1.289181113E-1,-1.024136543E-1,-1.686735153E-1,2.357099718E-1
6.349670420E0,-1.364839077E-1,-9.542942047E-2,-2.808113098E-1,3.264806626E-1
6.354649275E0,-1.489574313E-1,-1.022319794E-1,-3.376512527E-1,3.829465530E-1
6.359626306E0,-1.826663613E-1,-1.084637642E-1,-3.539199829E-1,4.127841349E-1
6.364603337E0,-1.996036768E-1,-1.403264999E-1,-2.610177994E-1,3.573002183E-1
6.369580420E0,-1.928691268E-1,-1.812624931E-1,-1.760873795E-1,3.179014890E-1
6.374557452E0,-1.769336462E-1,-1.672892570E-1,-1.298160553E-1,2.759409699E-1
6.379534483E0,-1.352093816E-1,-1.108536720E-1,-1.241970062E-1,2.144644722E-1
6.384496306E0,-2.521663904E-2,-1.096639633E-1,-1.042718887E-1,1.534102034E-1
6.389473337E0,3.601026535E-2,-9.437942505E-2,-1.057834625E-1,1.462680964E-1
6.394450368E0,3.949940205E-2,-6.019449234E-2,-1.381607056E-1,1.557946091E-1
6.399427452E0,4.246395826E-2,-5.956649780E-2,-1.915988922E-1,2.050889829E-1
6.404404483E0,5.439037085E-2,-4.219579697E-2,-2.042312622E-1,2.155207790E-1
6.409381514E0,8.008795977E-2,-3.233432770E-3,-1.907939911E-1,2.069465714E-1
6.414350733E0,8.164167404E-2,4.270505905E-2,-7.540225983E-2,1.190570695E-1
6.419327712E0,7.868266106E-2,3.352975845E-2,1.127033234E-1,1.414823132E-1
6.424304795E0,6.190818548E-2,3.831624985E-2,2.210168839E-1,2.326998526E-1
6.429281879E0,6.003677845E-2,2.372932434E-2,2.763080597E-1,2.837492545E-1
6.434258910E0,7.764953375E-2,3.725671768E-2,3.480129242E-1,3.585115180E-1
6.439235941E0,1.005354524E-1,1.704263687E-2,3.788871765E-1,3.923688586E-1
6.444200993E0,5.999916792E-2,-5.090999603E-2,4.215259552E-1,4.288074845E-1
6.449177972E0,1.315140724E-2,-4.519796371E-2,3.714256287E-1,3.743965986E-1
6.454155056E0,-2.315998077E-3,-6.844329834E-2,2.530670166E-1,2.621693419E-1
6.459132087E0,1.315093040E-2,-6.078577042E-2,1.072902679E-1,1.240123319E-1
6.464109170E0,-4.671454430E-3,-7.933044434E-2,-1.589488983E-2,8.104189909E-2
6.469086202E0,-1.278704405E-2,-9.760951996E-2,-1.001100540E-1,1.404035249E-1
6.474050316E0,-3.744226694E-2,-1.346459389E-1,-1.836776733E-1,2.308006497E-1
6.479027347E0,-4.062157869E-2,-1.306767464E-1,-1.906948090E-1,2.347147947E-1
6.484004379E0,-5.579555035E-2,-1.217517853E-1,-2.286558151E-1,2.649907969E-1
6.488981462E0,-1.042899489E-1,-1.149473190E-1,-2.379608154E-1,2.841032018E-1
6.493958493E0,-1.171354651E-1,-1.174297333E-1,-2.995700836E-1,3.424218078E-1
6.498935525E0,-1.116406322E-1,-1.220173836E-1,-2.989768982E-1,3.416709796E-1
6.503901775E0,-1.449633837E-1,-1.477503777E-1,-2.580509186E-1,3.308093609E-1
6.508878806E0,-1.143094897E-1,-1.326990128E-1,-2.745466232E-1,3.256555477E-1
6.513855837E0,-7.722777128E-2,-8.422851562E-2,-3.052816391E-1,3.259684811E-1
6.518832868E0,-1.697444916E-2,-9.280776978E-2,-2.789287567E-1,2.944531633E-1
6.523809952E0,2.621996403E-2,-1.318802834E-1,-1.817121506E-1,2.260513245E-1
6.528786983E0,1.002171636E-1,-1.017436981E-1,-1.405715942E-2,1.435021383E-1
6.533754066E0,1.503342390E-1,-1.006970406E-1,1.404676437E-1,2.290664452E-1
6.538731150E0,1.792680025E-1,-4.062175751E-2,2.178325653E-1,2.850231051E-1
6.543708181E0,1.636204720E-1,-6.001281738E-2,2.069110870E-1,2.705279931E-1
6.548685264E0,1.276512742E-1,-6.290388107E-2,1.700334549E-1,2.217275848E-1
6.553662295E0,4.749411345E-2,-9.666156769E-2,8.115196228E-2,1.348509936E-1
6.558639327E0,-5.711257458E-3,-1.277503967E-1,-2.838802338E-2,1.309910768E-1
6.563603493E0,-9.895884991E-2,-1.298346519E-1,-1.133842468E-1,1.987608569E-1
6.568580525E0,-1.229321361E-1,-5.322360992E-2,-1.906700134E-1,2.330238545E-1
6.573557556E0,-9.509134293E-2,-2.685499191E-2,-2.911710739E-1,3.074803219E-1
6.578534587E0,-1.134026051E-1,-5.259370804E-2,-3.648471832E-1,3.856678831E-1
6.583511618E0,-9.667181969E-2,-7.997465134E-2,-4.405126572E-1,4.580314255E-1
6.588488702E0,-5.462133884E-2,-8.989191055E-2,-4.683189392E-1,4.799861197E-1
6.593437920E0,3.416323662E-2,-7.309770584E-2,-4.414978027E-1,4.488103287E-1
6.598414952E0,9.603655338E-2,-4.402923584E-2,-3.819370270E-1,3.962795551E-1
6.603392035E0,1.028441191E-1,-5.995321274E-2,-3.325948715E-1,3.532571997E-1
6.608369066E0,6.684058905E-2,-5.894088745E-2,-1.887388229E-1,2.087199939E-1
6.613346097E0,1.231604815E-2,-6.268787384E-2,-1.046180725E-2,6.473719163E-2
6.618323181E0,3.930884600E-2,-5.251264572E-2,2.306470871E-1,2.397933321E-1
6.623303337E0,2.361100912E-2,-5.256032944E-2,4.106864929E-1,4.147088900E-1
6.628280004E0,2.487170696E-2,-3.190326691E-2,4.850616455E-1,4.867455395E-1
6.633256618E0,-3.039205074E-2,-1.218891144E-2,5.045633316E-1,5.056247639E-1
6.638233285E0,-5.860596895E-2,-1.708221436E-2,5.028657913E-1,5.065574654E-1
6.643209952E0,-4.334092140E-2,-1.778364182E-2,4.302072525E-1,4.327504749E-1
6.648186566E0,-5.175411701E-2,-2.140188217E-2,3.156795502E-1,3.206089637E-1
6.653153337E0,-1.030874252E-2,-3.955411911E-2,2.141647339E-1,2.180305753E-1
6.658130004E0,-1.209998131E-2,-5.048513412E-2,1.420440674E-1,1.512338434E-1
6.663106618E0,-1.629775763E-2,-6.137132645E-2,7.293033600E-2,9.670000270E-2
6.668083285E0,-3.999888897E-3,-6.749677658E-2,1.870441437E-2,7.015460838E-2
6.673059900E0,-1.350575686E-2,-7.110261917E-2,-2.796649933E-2,7.758938720E-2
6.678036566E0,-1.137113571E-2,-4.138278961E-2,-6.474113464E-2,7.767401443E-2
6.683003754E0,4.279965162E-2,-4.739856720E-2,-9.652042389E-2,1.157351571E-1
6.687980368E0,6.553918123E-2,-5.089235306E-2,-7.344245911E-2,1.108115999E-1
6.692957035E0,7.624191046E-2,-2.809953690E-2,-6.250667572E-2,1.025158397E-1
6.697933702E0,8.700317144E-2,-2.689170837E-2,-6.591796875E-2,1.124183901E-1
6.702910368E0,1.933294535E-2,-4.004621506E-2,-9.300613403E-2,1.030902667E-1
6.707886983E0,1.415371895E-2,-6.245899200E-2,-9.144973755E-2,1.116445607E-1
6.712852920E0,-5.498921871E-2,-7.745647430E-2,-1.066026688E-1,1.427846230E-1
6.717829587E0,-7.129442692E-2,-9.689855576E-2,-1.288557053E-1,1.762839136E-1
6.722806202E0,-7.312911749E-2,-1.042861938E-1,-1.485643387E-1,1.956906763E-1
6.727782868E0,-5.126434565E-2,-9.013605118E-2,-1.586523056E-1,1.895338886E-1
6.732759535E0,-4.157149792E-2,-7.825469971E-2,-1.640224457E-1,1.864278685E-1
6.737736150E0,-2.983313799E-2,-6.642913818E-2,-1.812267303E-1,1.953099442E-1
6.742667608E0,-1.843512058E-2,-7.845544815E-2,-2.172727585E-1,2.317381337E-1
6.747644275E0,3.278779984E-2,-9.719324112E-2,-3.030405045E-1,3.199298568E-1
6.752620941E0,5.022019148E-2,-1.153755188E-1,-3.170404434E-1,3.410985499E-1
6.757597608E0,4.375743866E-2,-1.116223335E-1,-3.097686768E-1,3.321609427E-1
6.762574222E0,-2.943813801E-3,-1.123771667E-1,-2.813386917E-1,3.029665874E-1
6.767550837E0,-8.713960648E-3,-9.146785736E-2,-2.271823883E-1,2.450594613E-1
6.772552920E0,9.165942669E-3,-6.335592270E-2,-1.569747925E-1,1.695260243E-1
6.777529587E0,5.566346645E-2,-6.390380859E-2,-1.159257889E-1,1.435998147E-1
6.782506202E0,9.967225790E-2,-2.406311035E-2,5.526542664E-3,1.026846383E-1
6.787482868E0,1.151532531E-1,-5.842733383E-2,1.521978378E-1,1.995951073E-1
6.792459483E0,1.048873067E-1,-5.967569351E-2,2.075700760E-1,2.400997125E-1
6.797436150E0,8.537244797E-2,-3.273820877E-2,2.579002380E-1,2.736289056E-1
6.802404639E0,8.029830456E-2,-2.526283264E-2,2.675523758E-1,2.804822672E-1
6.807381306E0,3.483217955E-2,-5.854558945E-2,2.131633759E-1,2.237844757E-1
6.812357920E0,-1.974177361E-2,-3.699350357E-2,1.877756119E-1,1.924004609E-1
6.817334587E0,-6.683576107E-2,-5.827331543E-2,1.577987671E-1,1.810062130E-1
6.822311254E0,-5.668717623E-2,-6.758642197E-2,1.566410065E-1,1.797714251E-1
6.827287868E0,-1.574605703E-2,-4.839849472E-2,1.721677780E-1,1.795329953E-1
6.832256150E0,3.681784868E-2,-2.488565445E-2,1.615734100E-1,1.675733171E-1
6.837232816E0,6.756925583E-2,-2.793788910E-2,1.274442673E-1,1.469291368E-1
6.842209431E0,1.171447635E-1,-1.443910599E-2,1.174058914E-1,1.664798088E-1
6.847186097E0,1.450186372E-1,-2.018451691E-2,1.193914413E-1,1.889236251E-1
6.852162764E0,1.466155052E-1,-9.463310242E-3,1.000900269E-1,1.777742222E-1
6.857139379E0,6.510615349E-2,-3.232622147E-2,1.048316956E-1,1.275675516E-1
6.862105108E0,-1.087248325E-2,-5.510234833E-2,1.048316956E-1,1.189292398E-1
6.867081775E0,-5.046135187E-2,-6.377077103E-2,6.700038910E-2,1.053665574E-1
6.872058389E0,-1.112627983E-1,-4.143571854E-2,-3.787040710E-3,1.187883443E-1
6.877035056E0,-1.670404673E-1,-9.529590607E-2,-6.921672821E-2,2.043888032E-1
6.882011722E0,-1.914304495E-1,-7.007741928E-2,-1.556167603E-1,2.564625465E-1
6.886988337E0,-1.895474195E-1,-6.610441208E-2,-2.391061783E-1,3.122015087E-1
6.891958806E0,-1.875586510E-1,-8.064031601E-2,-3.198299408E-1,3.794368184E-1
6.896935472E0,-1.546940804E-1,-7.319927216E-2,-3.787641525E-1,4.156328610E-1
6.901912139E0,-9.839391708E-2,-1.317405701E-1,-4.232816696E-1,4.540972501E-1
6.906888806E0,-9.485036135E-2,-1.536545753E-1,-4.582061768E-1,4.925030152E-1
6.911865472E0,-8.189040422E-2,-1.797108650E-1,-3.909244537E-1,4.379771248E-1
6.916842087E0,-1.917755604E-2,-1.624670029E-1,-3.053760529E-1,3.464359094E-1
6.921807035E0,-1.177185774E-2,-1.618361473E-1,-1.873588562E-1,2.478565234E-1
6.926783702E0,-2.148258686E-2,-1.375999451E-1,-5.595588684E-2,1.500876667E-1
6.931760316E0,-8.110517263E-2,-8.310604095E-2,3.658866882E-2,1.217513604E-1
6.936736983E0,-1.263381839E-1,-7.219934464E-2,1.594820023E-1,2.158902293E-1
6.941713650E0,-1.147650480E-1,-8.315515518E-2,2.079753876E-1,2.516735145E-1
6.946690264E0,-5.139225721E-2,-5.162477493E-2,1.850328445E-1,1.988553118E-1
6.951655837E0,1.791656017E-3,-1.126194000E-2,1.292629242E-1,1.297649602E-1
6.956632504E0,8.315628767E-2,1.445293427E-2,9.773635864E-2,1.291365606E-1
6.961609118E0,1.543507576E-1,7.095766068E-2,4.027271271E-2,1.745881937E-1
6.966585785E0,1.896791458E-1,1.056752205E-1,3.785991669E-2,2.204059978E-1
6.971562452E0,1.729590893E-1,7.846832275E-2,1.159858704E-2,1.902804548E-1
6.976539066E0,1.284204125E-1,7.309627533E-2,-3.124809265E-2,1.510341389E-1
6.981475056E0,9.445798397E-2,6.790876389E-2,-4.774379730E-2,1.257512669E-1
6.986451722E0,4.709196091E-2,6.542730331E-2,-2.630138397E-2,8.479473804E-2
6.991428337E0,-1.594448090E-2,2.040147781E-2,2.806377411E-2,3.818405669E-2
6.996405004E0,-6.405490637E-2,-4.565429688E-2,4.396915436E-2,9.011455148E-2
7.001381670E0,-1.285705566E-1,-1.088032722E-1,1.025276184E-1,1.971812684E-1
7.006358337E0,-1.525042057E-1,-1.216449738E-1,1.321792603E-1,2.356403812E-1
7.011358285E0,-1.406458020E-1,-1.393585205E-1,1.878452301E-1,2.729246587E-1
7.016334952E0,-9.358787537E-2,-1.429314613E-1,2.147130966E-1,2.743898812E-1
7.021311566E0,-5.879455805E-2,-1.278891563E-1,2.154579163E-1,2.573607391E-1
7.026288233E0,-4.813283682E-2,-1.369647980E-1,1.450700760E-1,2.052351159E-1
7.031264900E0,-2.827656269E-2,-1.485390663E-1,1.363182068E-2,1.518197772E-1
7.036241514E0,-9.063720703E-3,-1.053376198E-1,-1.523265839E-1,1.854226343E-1
7.041211879E0,-2.152287960E-2,-1.166443825E-1,-2.957401276E-1,3.186398741E-1
7.046188545E0,-5.091410875E-2,-9.177541733E-2,-3.407745361E-1,3.565701308E-1
7.051165212E0,-5.193483829E-2,-5.935907364E-2,-3.524923325E-1,3.612084876E-1
7.056141879E0,-5.312949419E-2,-5.046510696E-2,-2.479743958E-1,2.585744982E-1
7.061118545E0,-5.436450243E-2,-3.674983978E-2,-1.063938141E-1,1.250027741E-1
7.066095160E0,1.540362835E-3,-6.125307083E-2,1.005649567E-1,1.177608675E-1
7.071054222E0,1.689404249E-2,-5.503416061E-2,2.584657669E-1,2.647993961E-1
7.076030889E0,2.539491653E-2,-4.223251343E-2,3.654022217E-1,3.687102800E-1
7.081007504E0,5.116462708E-2,-4.192161560E-2,3.671436310E-1,3.730545358E-1
7.085984170E0,7.284241915E-2,-3.024673462E-2,3.001880646E-1,3.103767986E-1
7.090960837E0,5.224591494E-2,-2.360725403E-2,1.958284378E-1,2.040483157E-1
7.095937452E0,4.666465521E-2,-3.601980209E-2,5.665111542E-2,8.175796638E-2
7.100888858E0,1.539880037E-2,-5.289459229E-2,1.642227173E-3,5.511495129E-2
7.105865525E0,8.262157440E-3,-6.005287170E-2,-3.071784973E-3,6.069634675E-2
7.110842191E0,-4.660516977E-2,-1.474428177E-2,-3.155803680E-2,5.818372093E-2
7.115818858E0,-1.181318164E-1,-1.493740082E-2,-4.551887512E-2,1.274763507E-1
7.120795472E0,-1.564251781E-1,-5.295038223E-2,-3.565979004E-2,1.689502883E-1
7.125772139E0,-1.975721121E-1,-5.973386765E-2,-3.771018982E-2,2.098211925E-1
7.130761618E0,-1.940187216E-1,-6.167554855E-2,-8.008003235E-2,2.187691687E-1
7.135737920E0,-1.603327394E-1,-5.878591537E-2,-8.168983459E-2,1.893029324E-1
7.140714275E0,-8.227497339E-2,-3.206968307E-2,-6.667041779E-2,1.106461948E-1
7.145690629E0,2.595293522E-2,-1.033782959E-2,-4.701328278E-2,5.468705811E-2
7.150666931E0,7.403272390E-2,-3.002166748E-3,3.183555603E-2,8.064341164E-2
7.155643285E0,1.125694513E-1,-1.019001007E-2,1.006116867E-1,1.513222693E-1
7.160611097E0,1.561257839E-1,-2.940559387E-2,1.665067673E-1,2.301400724E-1
7.165587400E0,1.619547009E-1,-2.987623215E-2,1.987724304E-1,2.581325115E-1
7.170563754E0,1.610346437E-1,-7.022857666E-3,1.834611893E-1,2.442119673E-1
7.175540108E0,1.201643944E-1,1.180171967E-3,9.471511841E-2,1.530092420E-1
7.180516462E0,2.769809961E-2,-4.779672623E-2,6.736755371E-3,5.565155553E-2
7.185492764E0,-4.733282328E-2,-6.537628174E-2,-8.769798279E-2,1.191863690E-1
7.190423910E0,-6.953793764E-2,-7.776689529E-2,-1.316146851E-1,1.679453485E-1
7.195400212E0,-1.010088325E-1,-1.111154556E-1,-1.325864792E-1,2.003212499E-1
7.200376514E0,-8.026534319E-2,-1.013154984E-1,-7.182121277E-2,1.478703558E-1
7.205352868E0,-2.436625957E-2,-5.353164673E-2,-1.137151718E-1,1.280253573E-1
7.210329222E0,-2.373516560E-3,-5.342769623E-2,-1.767530441E-1,1.846667022E-1
7.215305525E0,1.429373026E-2,-5.309200287E-2,-2.488613129E-1,2.548627563E-1
7.220308441E0,3.293764591E-2,-9.034299850E-2,-2.825746536E-1,2.984881585E-1
7.225284743E0,3.484445810E-2,-7.456731796E-2,-2.735033035E-1,2.856194640E-1
7.230261097E0,9.384459257E-2,-6.080341339E-2,-2.077751160E-1,2.359541512E-1
7.235237452E0,1.028167009E-1,-1.135015488E-2,-9.045791626E-2,1.374144629E-1
7.240213754E0,5.013763905E-2,-1.932907104E-2,8.050823212E-2,9.679344645E-2
7.245190108E0,-3.535491228E-2,-2.752351761E-2,2.193222046E-1,2.238520567E-1
7.250161514E0,-7.523328066E-2,-7.186889648E-2,3.430709839E-1,3.585008853E-1
7.255137816E0,-1.054549217E-1,-5.472755432E-2,3.925189972E-1,4.101060947E-1
7.260114170E0,-8.815211058E-2,-3.351211548E-2,3.682270050E-1,3.801118042E-1
7.265090525E0,-4.959326982E-2,-3.179454803E-2,2.777957916E-1,2.839733923E-1
7.270066879E0,-1.589381695E-2,-4.211807251E-2,1.763048172E-1,1.819613531E-1
7.275043181E0,1.276898384E-2,-7.121086121E-3,1.621723175E-2,2.183472971E-2
7.280012972E0,1.255404949E-2,-4.578924179E-2,-6.903171539E-2,8.378327132E-2
7.284989275E0,-8.942782879E-3,-4.828166962E-2,-1.441974640E-1,1.523285975E-1
7.289965629E0,1.480370760E-2,-1.488780975E-2,-1.974792480E-1,1.985921702E-1
7.294941983E0,4.545849562E-2,1.370143890E-2,-1.649198532E-1,1.716180708E-1
7.299918337E0,8.072561026E-2,-1.468896866E-2,-1.209144592E-1,1.461256186E-1
7.304894639E0,3.507250547E-2,-2.864408493E-2,-2.737045288E-2,5.291224747E-2
7.309863493E0,-2.678352594E-2,-4.490423203E-2,5.591201782E-2,7.654999055E-2
7.314839795E0,-2.167958021E-2,-7.792758942E-2,1.244029999E-1,1.483873976E-1
7.319816150E0,1.673555374E-2,-7.048273087E-2,1.472854614E-1,1.641368370E-1
7.324792504E0,1.442116499E-2,-6.583738327E-2,1.749305725E-1,1.874652934E-1
7.329768806E0,3.123134375E-2,-2.826356888E-2,1.264801025E-1,1.333095739E-1
7.334745160E0,1.706999540E-2,-2.906417847E-2,7.370758057E-2,8.104886579E-2
7.339713493E0,-3.732186556E-2,-4.400348663E-2,6.644725800E-2,8.800265098E-2
7.344689795E0,-3.913527727E-2,-6.590080261E-2,5.210781097E-2,9.268068664E-2
7.349666150E0,-3.890830278E-2,-4.721927643E-2,-3.098011017E-2,6.858048788E-2
7.354642504E0,-3.894191980E-2,-4.521942139E-2,-7.302761078E-2,9.430960250E-2
7.359618858E0,-3.688371181E-2,-5.249452591E-2,-7.445144653E-2,9.828072720E-2
7.364595160E0,7.038116455E-4,-8.790302277E-2,-7.127761841E-2,1.131721505E-1
7.369562868E0,4.279184341E-2,-8.001661301E-2,-8.727169037E-2,1.258973715E-1
7.374539170E0,1.081257463E-1,-4.127168655E-2,-4.850578308E-2,1.254884063E-1
7.379515525E0,1.516869664E-1,-2.667379379E-2,3.509807587E-2,1.579629766E-1
7.384491879E0,1.215068698E-1,-2.988815308E-3,1.300230026E-1,1.779854871E-1
7.389468233E0,8.246111870E-2,1.544237137E-2,1.791572571E-1,1.978272623E-1
7.394444535E0,6.173789501E-3,2.155590057E-2,1.852445602E-1,1.865966764E-1
7.399413962E0,-6.915849447E-2,-1.545953751E-2,2.246866226E-1,2.355970565E-1
7.404390264E0,-1.101468801E-1,-1.680946350E-2,2.734174728E-1,2.952490605E-1
7.409366618E0,-1.173576713E-1,-1.622247696E-2,2.530870438E-1,2.794441688E-1
7.414342972E0,-1.101428866E-1,1.259565353E-2,1.641750336E-1,1.980998425E-1
7.419319275E0,-1.244847775E-1,-1.355171204E-2,7.843780518E-2,1.477585801E-1
7.424295629E0,-8.875459433E-2,-5.857276917E-2,2.671813965E-2,1.096449100E-1
7.429261514E0,-5.814707279E-2,-6.734800339E-2,-6.745529175E-2,1.116559538E-1
7.434237868E0,-4.949688911E-2,-8.532047272E-2,-2.037048340E-1,2.263298135E-1
7.439214170E0,-7.451206446E-2,-1.124277115E-1,-3.127813339E-1,3.406232536E-1
7.444190525E0,-9.027886391E-2,-1.197476387E-1,-4.093408585E-1,4.359469104E-1
7.449166827E0,-1.182639003E-1,-1.452565193E-1,-4.745931625E-1,5.102200275E-1
7.454143181E0,-1.204173565E-1,-1.627755165E-1,-4.944839478E-1,5.343319035E-1
7.459077191E0,-9.200102091E-2,-1.249742508E-1,-5.334835052E-1,5.555964377E-1
7.464053493E0,-4.533797503E-2,-9.171628952E-2,-4.488782883E-1,4.603901904E-1
7.469029795E0,-2.546787262E-2,-8.678579330E-2,-3.438272476E-1,3.555243489E-1
7.474006202E0,6.165385246E-3,-9.122323990E-2,-1.589832306E-1,1.833994522E-1
7.478982504E0,6.140691042E-2,-8.854722977E-2,1.958751678E-2,1.095221044E-1
7.483958806E0,1.067868471E-1,-3.885364532E-2,1.921730042E-1,2.232565788E-1
7.488942816E0,1.189997196E-1,-1.138544083E-2,3.730220795E-1,3.917091182E-1
7.493919118E0,1.151211262E-1,-2.511310577E-2,4.861192703E-1,5.001954486E-1
7.498895472E0,8.805125952E-2,-3.972530365E-3,5.535802841E-1,5.605532412E-1
7.503871827E0,5.454182625E-2,1.396894455E-2,5.352792740E-1,5.382321464E-1
7.508848129E0,3.574305773E-2,4.542732239E-2,4.604272842E-1,4.640414765E-1
7.513824483E0,-1.814085245E-2,7.226467133E-3,3.389368057E-1,3.394988522E-1
7.518812035E0,-6.422704458E-2,4.895210266E-3,1.876039505E-1,1.983540234E-1
7.523788337E0,-1.938694715E-2,4.068851471E-2,6.833839417E-2,8.186296517E-2
7.528764691E0,-1.288801432E-2,2.895450592E-2,-5.484199524E-2,6.334120908E-2
7.533741045E0,9.992718697E-3,-1.395225525E-3,-1.438827515E-1,1.442360817E-1
7.538717347E0,-1.037651300E-2,9.306430817E-3,-2.371377945E-1,2.375470801E-1
7.543693702E0,7.300376892E-3,-2.490282059E-2,-2.585115433E-1,2.598108235E-1
7.548664222E0,1.744359732E-2,-6.566762924E-2,-1.919488907E-1,2.036194815E-1
7.553640577E0,-3.541290760E-3,-9.183645248E-2,-5.466365814E-2,1.069326436E-1
7.558616879E0,-1.025539637E-2,-8.700037003E-2,1.977920532E-2,8.980787550E-2
7.563593233E0,-2.183729410E-2,-8.244705200E-2,1.008768082E-1,1.321003945E-1
7.568569535E0,2.391397953E-3,-1.091985703E-1,1.244935989E-1,1.656161306E-1
7.573545889E0,-4.039621353E-2,-9.067964554E-2,8.384609222E-2,1.299415998E-1
7.578513962E0,-7.106590271E-2,-4.631471634E-2,2.699089050E-2,8.901642347E-2
7.583490316E0,-8.238452673E-2,-2.603101730E-2,-1.754283905E-2,8.816221021E-2
7.588466618E0,-6.992417574E-2,-7.968902588E-3,-1.260204315E-1,1.443400254E-1
7.593442972E0,-6.255197525E-2,-1.586055756E-2,-1.553630829E-1,1.682319661E-1
7.598419275E0,-8.636128902E-2,-4.240179062E-2,-1.679735184E-1,1.935750164E-1
7.603395629E0,-9.350049496E-2,-5.406093597E-2,-1.688137054E-1,2.004070720E-1
7.608363806E0,-1.970428228E-2,-5.113077164E-2,-1.008987427E-1,1.148179900E-1
7.613340108E0,2.037554979E-2,-3.616189957E-2,2.334690094E-2,4.762272350E-2
7.618316462E0,3.875666857E-2,-2.575874329E-3,8.968925476E-2,9.773881985E-2
7.623292816E0,2.638149261E-2,-9.889125824E-3,7.719421387E-2,8.217496344E-2
7.628269118E0,2.875304222E-2,-4.108333588E-2,7.912826538E-2,9.367956184E-2
7.633245472E0,4.093140364E-2,-7.462882996E-2,9.777832031E-2,1.296358052E-1
7.638215733E0,5.801194906E-2,-9.387207031E-2,4.749107361E-2,1.201363970E-1
7.643191827E0,5.147963762E-2,-6.783580780E-2,2.136325836E-2,8.779657577E-2
7.648167868E0,2.143406868E-2,-4.915046692E-2,5.483055115E-2,7.669144045E-2
7.653143962E0,-1.301079988E-2,-4.260444641E-2,5.243682861E-2,6.880436587E-2
7.658120056E0,-9.719675779E-2,-6.945419312E-2,3.586769104E-2,1.247300522E-1
7.663096150E0,-1.098358631E-1,-7.230949402E-2,-3.279876709E-2,1.355298450E-1
7.668063962E0,-1.204155684E-1,-3.469514847E-2,-1.460275650E-1,1.924258615E-1
7.673040056E0,-9.564858675E-2,-5.654096603E-2,-1.871519089E-1,2.176496496E-1
7.678016150E0,-8.789914846E-2,-6.596231461E-2,-2.328720093E-1,2.575007960E-1
7.682992191E0,-6.369692087E-2,-4.150390625E-2,-2.523736954E-1,2.635760878E-1
7.687968285E0,-4.474103451E-2,-5.964803696E-2,-2.220029831E-1,2.341900360E-1
7.692944379E0,-3.564250469E-2,-7.746934891E-2,-1.492061615E-1,1.718556568E-1
7.697915889E0,-6.046295166E-4,-5.722236633E-2,-3.419685364E-2,6.666475519E-2
7.702908910E0,5.079162121E-2,-2.764272690E-2,6.084823608E-2,8.394293877E-2
7.707885004E0,4.264736176E-2,-2.247667313E-2,1.576852798E-1,1.648897989E-1
7.712827608E0,7.532614470E-2,-3.426313400E-2,2.229576111E-1,2.378194415E-1
7.717803597E0,8.451271057E-2,-1.307868958E-2,1.952104568E-1,2.131210286E-1
7.722780837E0,3.471589088E-2,-3.264045715E-2,1.226224899E-1,1.315555683E-1
7.727756879E0,2.138239145E-2,-7.347202301E-2,6.488895416E-2,1.003290646E-1
7.732732972E0,-1.543313265E-2,-4.023408890E-2,-2.093219757E-2,4.790741475E-2
7.737709066E0,-4.253602028E-2,-4.746675491E-2,-8.713054657E-2,1.079543329E-1
7.742685108E0,-4.824101925E-2,-1.891183853E-2,-1.171808243E-1,1.281257162E-1
7.747661202E0,-5.426841974E-2,4.935264587E-3,-9.959506989E-2,1.135279532E-1
7.752637295E0,-6.287443638E-2,7.526874542E-3,-1.250743866E-1,1.401907656E-1
7.757581775E0,-5.261874199E-2,-1.346826553E-2,-6.253623962E-2,8.283059490E-2
7.762557868E0,-4.727411270E-2,-2.952337265E-2,4.223918915E-2,6.993297051E-2
7.767533962E0,-5.621218681E-2,-5.276679993E-3,1.130037308E-1,1.263229847E-1
7.772510056E0,-1.504766941E-2,2.328300476E-2,1.310358047E-1,1.339362266E-1
7.777486097E0,-4.520857334E-2,-5.467891693E-3,1.489286423E-1,1.557352029E-1
7.782462191E0,-7.959550619E-2,6.221771240E-3,1.334943771E-1,1.555471111E-1
7.787465733E0,-7.334262133E-2,-6.152629852E-3,1.373128891E-1,1.557941734E-1
7.792441775E0,-7.220149040E-2,-2.558279037E-2,1.625223160E-1,1.796692449E-1
7.797417920E0,-2.851790190E-2,7.231712341E-3,1.995153427E-1,2.016728548E-1
7.802393962E0,-1.397347450E-2,1.564502716E-2,2.102975845E-1,2.113411908E-1
7.807370004E0,2.404803038E-2,4.797458649E-3,2.258567810E-1,2.271840859E-1
7.812346150E0,7.375210524E-2,-2.511167526E-2,2.033510208E-1,2.177650269E-1
7.817318233E0,9.938806295E-2,-4.313516617E-2,2.310447693E-1,2.551868238E-1
7.822294275E0,9.861373901E-2,-4.232883453E-2,2.325630188E-1,2.561287908E-1
7.827270420E0,7.898896933E-2,-2.043819427E-2,1.914587021E-1,2.081187441E-1
7.832246462E0,2.658993006E-2,-1.545000076E-2,1.649761200E-1,1.678178985E-1
7.837222556E0,1.298141479E-2,1.064443588E-2,8.892917633E-2,9.049983176E-2
7.842198650E0,-9.832978249E-3,-1.089763641E-2,6.324768066E-3,1.598276045E-2
7.847166097E0,-6.082868576E-2,-3.691482544E-2,-8.753204346E-2,1.128037764E-1
7.852142191E0,-9.703254700E-2,-5.769062042E-2,-1.760158539E-1,2.091054846E-1
7.857118285E0,-7.837378979E-2,-3.735017776E-2,-3.092021942E-1,3.211595921E-1
7.862094327E0,-7.917416096E-2,-5.239820480E-2,-3.250846863E-1,3.386652815E-1
7.867070420E0,-7.778012753E-2,-6.443548203E-2,-3.339776993E-1,3.489165849E-1
7.872046462E0,-6.722533703E-2,-5.931949615E-2,-3.002481461E-1,3.133480457E-1
7.876993650E0,-2.230226994E-3,-8.496952057E-2,-2.003641129E-1,2.176478143E-1
7.881969743E0,5.511301756E-2,-7.485342026E-2,-5.375957489E-2,1.073804969E-1
7.886945837E0,6.210285425E-2,-1.078228951E-1,1.012611389E-1,1.604255574E-1
7.891921879E0,4.997521639E-2,-1.124391556E-1,1.008234024E-1,1.590768507E-1
7.896897920E0,2.380263805E-2,-1.125602722E-1,7.441425323E-2,1.370177417E-1
7.901874066E0,-3.079491854E-2,-1.009850502E-1,4.833698273E-2,1.161153361E-1
7.906867920E0,-7.292181253E-2,-7.767915726E-2,-1.788806915E-2,1.080352962E-1
7.911844014E0,-7.671576738E-2,-4.734134674E-2,-3.848075867E-2,9.801673767E-2
7.916820108E0,-6.391483545E-2,-2.182865143E-2,-5.661964417E-2,8.813274261E-2
7.921796150E0,-4.661154747E-2,1.057147980E-3,-7.220077515E-2,8.594594726E-2
7.926772243E0,-1.528465748E-2,-1.403522491E-2,-1.067714691E-1,1.087692737E-1
