"Time (s)","Linear Acceleration x (m/s^2)","Linear Acceleration y (m/s^2)","Linear Acceleration z (m/s^2)","Absolute acceleration (m/s^2)"
5.625047600E-2,8.463191986E-2,8.642959595E-2,-2.360696793E-1,2.652574794E-1
6.125104800E-2,6.623578072E-2,3.504562378E-2,-2.395038605E-1,2.509531302E-1
6.625167300E-2,4.239553213E-2,-1.767778397E-2,-2.367219925E-1,2.411372782E-1
7.125224600E-2,-2.165389061E-2,-9.537744522E-2,-2.580032349E-1,2.759192223E-1
7.625287100E-2,-8.664074540E-2,-1.499471664E-1,-2.844886780E-1,3.330534182E-1
8.106349600E-2,-1.673902273E-1,-1.402645111E-1,-3.087949753E-1,3.782168135E-1
8.606412100E-2,-1.821184456E-1,-1.302952766E-1,-3.371410370E-1,4.047320919E-1
9.106469400E-2,-1.909639835E-1,-1.105742455E-1,-3.015832901E-1,3.736929055E-1
9.606531900E-2,-1.655347347E-1,-4.845952988E-2,-2.918491364E-1,3.390073640E-1
1.010658920E-1,-1.053995192E-1,-3.923988342E-2,-2.986764908E-1,3.191496095E-1
1.060665170E-1,-6.101068854E-2,-2.551746368E-2,-3.117914200E-1,3.187276810E-1
1.109503190E-1,-1.973006129E-2,-1.874780655E-2,-3.126792908E-1,3.138615849E-1
1.159509440E-1,-5.833357573E-3,1.065397263E-2,-2.074966431E-1,2.078518513E-1
1.209515170E-1,5.073547363E-4,2.661228180E-3,-1.162891388E-1,1.163206918E-1
1.259521420E-1,-3.420719504E-2,2.461671829E-2,2.143573761E-2,4.728219389E-2
1.309527150E-1,-4.448810220E-2,-2.455234528E-3,1.544132233E-1,1.607129831E-1
1.359533400E-1,-7.044082880E-2,-1.274681091E-2,3.656635284E-1,3.726046264E-1
1.407981840E-1,-9.281340241E-2,-7.267951965E-3,5.475988388E-1,5.554562441E-1
1.457988090E-1,-9.340485930E-2,1.324319839E-2,6.222772598E-1,6.293876692E-1
1.507993820E-1,-1.673718095E-1,-4.652500153E-3,6.611146927E-1,6.819879803E-1
1.558000070E-1,-1.858041435E-1,3.928041458E-2,6.564664841E-1,6.833845004E-1
1.608005800E-1,-1.855519563E-1,9.217548370E-2,6.053266525E-1,6.398016916E-1
1.658012050E-1,-1.720887572E-1,8.257102966E-2,5.322008133E-1,5.653938636E-1
1.706080800E-1,-1.364419162E-1,9.157848358E-2,4.281520844E-1,4.586035570E-1
1.756087050E-1,-9.545809031E-2,1.163887978E-1,3.054075241E-1,3.404884066E-1
1.806092780E-1,-5.854320526E-2,8.271121979E-2,2.080888748E-1,2.314507131E-1
1.856099030E-1,-3.479191661E-2,9.001350403E-2,1.464786530E-1,1.754106728E-1
1.906104760E-1,-2.132660151E-2,1.022882462E-1,9.836101532E-2,1.435012145E-1
1.956111010E-1,1.460996270E-2,1.008305550E-1,7.249069214E-2,1.250406025E-1
2.004900590E-1,6.311747432E-2,9.526395798E-2,1.285753250E-1,1.720193345E-1
2.054906840E-1,9.611228108E-2,1.438035965E-1,1.782789230E-1,2.483956911E-1
2.104912570E-1,1.166886687E-1,1.237635612E-1,3.034152985E-1,3.478426481E-1
2.154918820E-1,9.741026163E-2,1.041450500E-1,3.951683044E-1,4.201106275E-1
2.204924550E-1,7.887920737E-2,7.075357437E-2,4.336824417E-1,4.464397584E-1
2.254930800E-1,6.088659167E-2,4.713678360E-2,4.414472580E-1,4.481124134E-1
2.303440690E-1,4.593226314E-2,4.009151459E-2,3.468322754E-1,3.521501521E-1
2.353446940E-1,2.457568049E-2,3.996467590E-2,2.806529999E-1,2.845474402E-1
2.403452670E-1,-3.293496370E-2,2.796936035E-2,1.438941956E-1,1.502415937E-1
2.453458920E-1,-4.207104445E-3,4.821777344E-3,-3.645992279E-2,3.701722889E-2
2.503464650E-1,-1.124650240E-3,6.151199341E-3,-1.755380630E-1,1.756494056E-1
2.553470900E-1,2.146759629E-2,2.690124512E-2,-3.143320084E-1,3.162106041E-1
2.601906320E-1,4.372212291E-2,3.618717194E-2,-3.709564209E-1,3.752729695E-1
2.651912570E-1,3.044846654E-2,2.748870850E-2,-3.497276306E-1,3.521251962E-1
2.701918300E-1,2.663779259E-2,3.118944168E-2,-2.637224197E-1,2.668929897E-1
2.751924550E-1,-3.771394491E-3,-3.523683548E-2,-1.914787292E-1,1.947304849E-1
2.801930280E-1,-2.263125777E-2,-2.758407593E-2,-1.184005737E-1,1.236598194E-1
2.851936010E-1,-4.188111424E-2,-6.492805481E-2,4.488754272E-2,8.935642967E-2
2.900393820E-1,-4.484337568E-2,-7.162237167E-2,2.147369385E-1,2.307653466E-1
2.950400070E-1,-2.930659056E-2,-6.705284119E-2,3.465013504E-1,3.541442440E-1
3.000405800E-1,-1.877540350E-2,-6.801414490E-2,4.386997223E-1,4.443375811E-1
3.050412050E-1,-6.717815995E-2,-7.451820374E-2,3.981389999E-1,4.105855954E-1
3.100417780E-1,-1.404989064E-1,-1.073722839E-1,3.234815598E-1,3.686584728E-1
3.150424030E-1,-1.794605255E-1,-1.116447449E-1,1.962537766E-1,2.884201347E-1
3.198903190E-1,-2.244665921E-1,-1.204237938E-1,8.062553406E-2,2.671846137E-1
3.248909440E-1,-2.258745581E-1,-9.574985504E-2,1.621818542E-2,2.458665904E-1
3.298915170E-1,-8.526763320E-2,-6.844091415E-2,-1.927089691E-2,1.110229502E-1
3.348921420E-1,2.759107947E-2,-2.209663391E-2,-4.278659821E-2,5.549974669E-2
3.398927150E-1,1.035323143E-1,5.005836487E-2,-1.087160110E-1,1.582528074E-1
3.448933400E-1,1.146217883E-1,4.149055481E-2,-1.809864044E-1,2.182102176E-1
3.497350070E-1,1.061653197E-1,4.286623001E-2,-2.240419388E-1,2.516016278E-1
3.547356320E-1,9.211808443E-2,4.556179047E-3,-2.336406708E-1,2.511861128E-1
3.597362050E-1,7.036268711E-2,-3.322076797E-2,-1.699552536E-1,1.869206125E-1
3.647368300E-1,1.027967632E-1,-2.162933350E-3,-5.055046082E-2,1.145740018E-1
3.697374030E-1,1.510709524E-1,-3.805971146E-2,3.898334503E-2,1.605947555E-1
3.747380280E-1,1.399623156E-1,-2.900457382E-2,1.345033646E-1,1.962698911E-1
3.795871420E-1,7.534402609E-2,1.489353180E-2,1.792955399E-1,1.950523780E-1
3.845877670E-1,2.402570844E-2,5.059289932E-2,2.095565796E-1,2.169120471E-1
3.895883400E-1,-1.325905323E-4,3.100681305E-2,2.514781952E-1,2.533825619E-1
3.945889650E-1,-7.114708424E-3,3.488254547E-2,2.812795639E-1,2.835235513E-1
3.995895380E-1,-2.092543244E-2,4.536533356E-2,3.062295914E-1,3.102780202E-1
4.045901630E-1,-2.299779654E-2,-1.397609711E-3,3.098630905E-1,3.107185009E-1
4.094326630E-1,-3.744071722E-2,-7.665157318E-3,2.664318085E-1,2.691588202E-1
4.144332880E-1,-4.267230630E-2,-2.122259140E-2,2.663450241E-1,2.705753056E-1
4.194338610E-1,-3.176429868E-2,-2.524805069E-2,2.143678665E-1,2.181742811E-1
4.244344860E-1,2.838575840E-2,-2.902507782E-2,1.275262833E-1,1.338325795E-1
4.294350590E-1,6.133994460E-2,-3.254413605E-2,7.009315491E-2,9.866488717E-2
4.344356840E-1,9.129068255E-2,-7.426738739E-3,5.350208282E-2,1.060736444E-1
4.392812570E-1,1.281665564E-1,1.065206528E-2,4.164600372E-2,1.351832915E-1
4.442818820E-1,1.576370895E-1,1.222181320E-2,7.237720490E-2,1.738887129E-1
4.492824550E-1,1.517279744E-1,2.813434601E-2,6.713771820E-2,1.682866390E-1
4.542830800E-1,1.039393842E-1,2.035093307E-2,9.262180328E-2,1.406995185E-1
4.592836530E-1,5.975344777E-2,1.266431808E-2,1.059436798E-1,1.222903216E-1
4.642842780E-1,2.359843254E-2,-2.028942108E-3,5.517387390E-2,6.004297616E-2
4.691319860E-1,-2.403581142E-2,-2.630233765E-3,7.520675659E-3,2.532190599E-2
4.741326110E-1,-3.573662043E-2,8.477687836E-3,2.680587769E-2,4.547012546E-2
4.791331840E-1,-1.367926598E-5,4.292774200E-2,-1.321220398E-2,4.491495914E-2
4.841338090E-1,4.006648064E-2,5.085897446E-2,1.595497131E-2,6.668222599E-2
4.891343820E-1,8.672773838E-3,2.782964706E-2,3.300094604E-2,4.403145128E-2
4.941350070E-1,-6.501704454E-2,7.435798645E-3,4.837989807E-3,6.561945846E-2
4.989813610E-1,-1.402034760E-1,-2.208852768E-2,2.666759491E-2,1.444163368E-1
5.039819860E-1,-1.554781199E-1,-2.270364761E-2,6.714916229E-2,1.708739634E-1
5.089825590E-1,-7.121521235E-2,-4.172801971E-3,1.284542084E-1,1.469336666E-1
5.139831840E-1,-4.985782504E-2,2.122783661E-2,1.536254883E-1,1.629024690E-1
5.189837570E-1,-5.324512720E-3,1.544237137E-2,1.715173721E-1,1.722934306E-1
5.239843820E-1,7.806003094E-3,7.285594940E-3,1.892843246E-1,1.895852556E-1
5.288015690E-1,1.343330741E-2,-2.219438553E-2,1.642580032E-1,1.662941253E-1
5.337970900E-1,3.783887625E-2,-8.598327637E-3,1.489400864E-1,1.539118615E-1
5.387926110E-1,4.785066843E-2,-9.284496307E-3,3.649616241E-2,6.089218515E-2
5.437880800E-1,4.355004430E-2,-1.933193207E-2,-6.304740906E-2,7.902724685E-2
5.487836010E-1,5.586433411E-2,1.819610596E-3,-1.570291519E-1,1.666802009E-1
5.537791210E-1,5.148357153E-2,2.062034607E-2,-2.383842468E-1,2.447504973E-1
5.586513610E-1,-5.041658878E-3,1.821374893E-2,-2.764549255E-1,2.771001350E-1
5.636468820E-1,-1.014232039E-1,-1.235055923E-2,-2.645187378E-1,2.835654514E-1
5.686424030E-1,-1.542598009E-1,1.443576813E-2,-2.005662918E-1,2.534389769E-1
5.736378710E-1,-1.637108624E-1,4.327583313E-2,-8.023548126E-2,1.873813669E-1
5.786333920E-1,-1.347658038E-1,5.270576477E-2,2.718639374E-2,1.472372898E-1
5.836289130E-1,-8.440071344E-2,3.810119629E-2,9.575366974E-2,1.332064070E-1
5.884989650E-1,-1.995688677E-2,2.574872971E-2,1.353473663E-1,1.392127292E-1
5.934944860E-1,4.435548186E-2,-1.297521591E-2,2.222576141E-1,2.270114800E-1
5.984900070E-1,8.936998248E-2,5.450248718E-4,1.969928741E-1,2.163180142E-1
6.034855280E-1,9.380117059E-2,-1.232290268E-2,1.197977066E-1,1.526499395E-1
6.084809960E-1,7.473704219E-2,-3.668975830E-2,2.412509918E-2,8.668208725E-2
6.134764650E-1,3.923675418E-2,-4.607343674E-2,-7.813549042E-2,9.883035624E-2
6.183477150E-1,5.140358210E-2,-5.257034302E-2,-8.713150024E-2,1.140081907E-1
6.233432360E-1,7.505229115E-2,-1.804876328E-2,-1.224918365E-1,1.447855458E-1
6.283387570E-1,8.390781283E-2,3.347253799E-2,-1.222772598E-1,1.520284846E-1
6.333342260E-1,9.001788497E-2,6.855726242E-2,-9.863853455E-2,1.501095545E-1
6.383297460E-1,1.991823316E-2,6.086874008E-2,-1.357746124E-2,6.546821355E-2
6.433252670E-1,-3.065520525E-2,6.273889542E-2,1.040401459E-1,1.253006886E-1
6.481962570E-1,-2.607229352E-2,7.139921188E-2,2.137222290E-1,2.268365119E-1
6.531917780E-1,-2.627348900E-2,9.137821198E-2,2.752475739E-1,2.912069724E-1
6.581872980E-1,-4.061862826E-2,8.419942856E-2,3.486003876E-1,3.609177842E-1
6.631827670E-1,-3.120180964E-2,3.822946548E-2,3.909282684E-1,3.940303999E-1
6.681782880E-1,-5.245888233E-2,-8.578300476E-4,3.667144775E-1,3.704486175E-1
6.731738090E-1,-7.071858644E-2,-3.791522980E-2,3.192882538E-1,3.292167555E-1
6.780625590E-1,-3.843754530E-2,-2.509784698E-2,2.343940735E-1,2.388470818E-1
6.830580280E-1,1.270452142E-2,-3.165006638E-2,1.408414841E-1,1.449118877E-1
6.880535480E-1,1.594036818E-3,-4.053211212E-2,5.520343781E-2,6.850410653E-2
6.930490170E-1,2.107104659E-2,-3.741884232E-2,1.303672791E-2,4.487889303E-2
6.980445380E-1,1.811444759E-3,-8.072853088E-4,-6.927585602E-2,6.930423702E-2
7.030400590E-1,1.044958830E-2,-1.891994476E-2,-1.414756775E-1,1.431171741E-1
7.078931320E-1,1.380857825E-2,-1.251459122E-2,-1.848754883E-1,1.858123731E-1
7.128886530E-1,-4.593968391E-3,-4.612112045E-2,-1.972455978E-1,2.026180845E-1
7.178841730E-1,3.171622753E-3,-4.568433762E-2,-1.860265732E-1,1.915802804E-1
7.228796420E-1,-1.050704718E-2,-5.891036987E-2,-1.419696808E-1,1.540656353E-1
7.278751630E-1,6.881177425E-3,-3.854227066E-2,-1.221628189E-1,1.282833253E-1
7.328706840E-1,2.652966976E-2,-1.579427719E-2,-2.184772491E-2,3.782334800E-2
7.377432360E-1,5.827391148E-2,4.355430603E-3,3.961753845E-2,7.060005586E-2
7.427387570E-1,7.598793507E-2,3.599119186E-2,7.453441620E-2,1.123606309E-1
7.477342780E-1,3.207755089E-2,4.815912247E-2,4.749011993E-2,7.485707608E-2
7.527297460E-1,1.484245062E-2,1.943588257E-2,4.701328278E-2,5.299340175E-2
7.577252670E-1,-2.322167158E-2,2.869129181E-2,7.992172241E-2,8.803361841E-2
7.627207880E-1,-2.959227562E-2,2.330684662E-2,1.435775757E-1,1.484366266E-1
7.675894340E-1,-1.884633303E-2,5.811691284E-3,1.688203812E-1,1.699684710E-1
7.725849550E-1,-1.232460141E-2,1.907348633E-4,2.105293274E-1,2.108898525E-1
7.775804760E-1,5.145108700E-2,3.983497620E-3,1.688041687E-1,1.765160899E-1
7.825759440E-1,6.225496531E-2,1.011514664E-2,1.274404526E-1,1.421937616E-1
7.875714650E-1,3.697431087E-2,-1.222467422E-2,1.275253296E-2,4.097766979E-2
7.925669860E-1,1.852762699E-2,-2.460193634E-2,-1.058511734E-1,1.102406420E-1
7.974411530E-1,-2.154785395E-2,-4.102945328E-2,-1.168708801E-1,1.257240179E-1
8.024366730E-1,-6.848543882E-3,-2.817058563E-2,-1.138868332E-1,1.175189143E-1
8.074321940E-1,3.398013115E-2,-6.246566772E-4,-8.272457123E-2,8.943374192E-2
8.124276630E-1,4.147338867E-2,8.085727692E-3,-3.542709351E-2,5.514072827E-2
8.174231840E-1,6.827104092E-2,2.167940140E-2,-2.908706665E-3,7.168955326E-2
8.224187050E-1,2.593824267E-2,2.798032761E-2,2.699279785E-2,4.673652000E-2
8.272877670E-1,-2.101668715E-2,2.687740326E-2,8.053684235E-2,8.746587289E-2
8.322832880E-1,-6.306317449E-2,2.057170868E-2,1.362762451E-1,1.515631029E-1
8.372788090E-1,-1.096062064E-1,2.574348450E-2,2.036819458E-1,2.327285598E-1
8.422742780E-1,-1.626926363E-1,1.617479324E-2,2.873868942E-1,3.306383898E-1
8.472697980E-1,-1.723397970E-1,2.036237717E-2,3.350629807E-1,3.773364984E-1
8.522653190E-1,-1.795434952E-1,3.827953339E-2,3.184700012E-1,3.675926156E-1
8.571348510E-1,-1.845200658E-1,3.416442871E-2,2.405366898E-1,3.050782883E-1
8.621303710E-1,-2.040206790E-1,6.303930283E-2,8.029270172E-2,2.281344102E-1
8.671258920E-1,-2.356825620E-1,4.911088943E-2,-8.820056915E-2,2.563932329E-1
8.721213610E-1,-1.866045296E-1,3.582239151E-2,-1.629123688E-1,2.502897004E-1
8.771168820E-1,-1.544606686E-1,-2.914571762E-2,-1.612482071E-1,2.251856018E-1
8.821124030E-1,-4.380053282E-2,-5.264186859E-2,-1.124086380E-1,1.316258140E-1
8.869741730E-1,7.097432017E-2,-3.267240524E-2,-8.327484131E-2,1.141908025E-1
8.919696940E-1,1.231274903E-1,-3.622102737E-2,-6.886291504E-2,1.456517860E-1
8.969651630E-1,1.250063181E-1,-7.759380341E-2,-6.653690338E-2,1.614761202E-1
9.019606840E-1,7.214111090E-2,-9.717798233E-2,-5.000591278E-2,1.309522487E-1
9.069562050E-1,2.198371291E-2,-9.984064102E-2,-4.793071747E-2,1.129105438E-1
9.119517260E-1,-4.457214475E-2,-9.059762955E-2,-5.480766296E-3,1.011169885E-1
9.168600590E-1,-7.741680741E-2,-5.083227158E-2,5.102729797E-2,1.057405648E-1
9.218555800E-1,-8.656498790E-2,-4.023790359E-2,8.113574982E-2,1.252820654E-1
9.268511010E-1,-5.090162158E-2,1.244497299E-2,1.873502731E-1,1.945404258E-1
9.318465690E-1,8.640885353E-4,4.974794388E-2,3.001937866E-1,3.042891948E-1
9.368420900E-1,2.833035588E-2,5.251741409E-2,3.128566742E-1,3.184964465E-1
9.418376110E-1,4.823687673E-2,4.749393463E-2,3.162765503E-1,3.234398342E-1
9.467076110E-1,5.601698160E-2,3.477239609E-2,2.629947662E-1,2.711333045E-1
9.517031320E-1,5.432513356E-2,4.319858551E-2,1.461982727E-1,1.618371801E-1
9.566986530E-1,5.055913329E-2,6.833457947E-2,7.303714752E-2,1.120725909E-1
9.616941210E-1,7.581445575E-2,1.031732559E-1,-3.064632416E-2,1.316501030E-1
9.666896420E-1,7.767459750E-2,8.843374252E-2,-1.171960831E-1,1.660987411E-1
9.716851630E-1,8.709949255E-2,1.028790474E-1,-1.795978546E-1,2.245569179E-1
9.765558920E-1,5.891847610E-2,5.838298798E-2,-1.919326782E-1,2.090887684E-1
9.815514130E-1,3.856721520E-2,2.446269989E-2,-1.618146896E-1,1.681363957E-1
9.865469340E-1,4.474526644E-2,-4.169988632E-2,-1.656217575E-1,1.765547676E-1
9.915424030E-1,3.950649500E-2,-9.028100967E-2,-1.316356659E-1,1.644365300E-1
9.965379230E-1,2.970653772E-2,-1.263604164E-1,-4.817485809E-2,1.384566725E-1
1.001533444E0,2.691546082E-2,-1.360616684E-1,7.026576996E-2,1.554815039E-1
1.006404069E0,1.442036033E-2,-1.245632172E-1,9.047698975E-2,1.546286763E-1
1.011399590E0,-4.597118497E-2,-9.674835205E-2,9.403800964E-2,1.425368048E-1
1.016395111E0,-1.302855313E-1,-1.170811653E-1,1.144571304E-1,2.092432882E-1
1.021390580E0,-2.357854396E-1,-1.329460144E-1,1.919937134E-1,3.318599136E-1
1.026386101E0,-2.935541868E-1,-1.112456322E-1,1.694641113E-1,3.567460389E-1
1.031381621E0,-2.468097806E-1,-7.833957672E-2,1.094083786E-1,2.811091432E-1
1.036253861E0,-1.626373529E-1,-3.158998489E-2,2.855777740E-2,1.681201427E-1
1.041245267E0,-7.424086332E-2,-3.030109406E-2,1.247596741E-2,8.115116666E-2
1.046236673E0,4.241615534E-3,-6.689882278E-2,-4.157066345E-2,7.887689048E-2
1.051228080E0,8.005309105E-2,-1.037931442E-2,-4.776668549E-2,9.379703512E-2
1.056219486E0,1.221715510E-1,-1.673698425E-3,-3.025722504E-2,1.258737018E-1
1.061210892E0,1.425887048E-1,-2.367019653E-3,-3.199577332E-2,1.461535871E-1
1.066103392E0,1.010589898E-1,-3.638267517E-4,2.311992645E-2,1.036705492E-1
1.071094798E0,3.383687139E-2,-1.505899429E-2,9.680557251E-2,1.036485699E-1
1.076086205E0,-3.500565886E-2,-8.285522461E-3,1.342515945E-1,1.389875414E-1
1.081077611E0,-7.936549187E-2,-2.294063568E-2,1.476173401E-1,1.691627416E-1
1.086069017E0,-6.612259150E-2,-1.850557327E-2,1.394996643E-1,1.554825061E-1
1.091060423E0,-6.485143304E-2,-9.394168854E-3,1.172180176E-1,1.342908129E-1
1.095949694E0,-3.969535232E-2,-9.757995605E-3,3.528594971E-5,4.087714176E-2
1.100941101E0,-3.140550852E-2,-1.003646851E-2,-7.820510864E-2,8.487093544E-2
1.105932507E0,7.426917553E-3,-3.053188324E-3,-1.558523178E-1,1.560590466E-1
1.110923913E0,1.697152853E-2,-3.628349304E-2,-1.664371490E-1,1.711895126E-1
1.115915319E0,-7.319957018E-3,-5.718088150E-2,-1.627521515E-1,1.726600643E-1
1.120906726E0,-6.028589606E-2,-8.251333237E-2,-1.591558456E-1,1.891386330E-1
1.125800215E0,-6.333729625E-2,-6.720972061E-2,-1.389617920E-1,1.668506496E-1
1.130791621E0,-5.717971921E-2,-6.879472733E-2,-3.807544708E-2,9.722126551E-2
1.135783028E0,-5.359056592E-2,-2.317142487E-2,7.877826691E-2,9.805548951E-2
1.140774434E0,-7.851719856E-2,-1.392459869E-2,1.734762192E-1,1.909262778E-1
1.145765840E0,-8.414044976E-2,1.132440567E-2,2.154197693E-1,2.315459662E-1
1.150757246E0,-6.546717882E-2,1.910352707E-2,2.573328018E-1,2.662162038E-1
1.155648653E0,-6.770992279E-2,2.641010284E-2,2.658300400E-1,2.755861704E-1
1.160640059E0,-7.145297527E-2,4.535913467E-2,2.030401230E-1,2.199733400E-1
1.165631465E0,-5.545344949E-2,5.698060989E-2,1.288814545E-1,1.514341582E-1
1.170622871E0,1.387238503E-3,6.384992599E-2,6.238365173E-2,8.927741867E-2
1.175614278E0,1.048105955E-2,7.805299759E-2,1.053619385E-2,7.945523534E-2
1.180605684E0,-1.384115219E-2,7.348966599E-2,-3.394412994E-2,8.212498072E-2
1.185459590E0,-2.888262272E-2,5.994272232E-2,-1.067991257E-1,1.258307955E-1
1.190450996E0,-4.444813728E-2,7.065105438E-2,-1.649723053E-1,1.848866407E-1
1.195442403E0,-3.925678134E-2,5.982398987E-3,-2.063941956E-1,2.101795612E-1
1.200433809E0,-5.846324563E-2,8.966922760E-3,-2.477684021E-1,2.547303238E-1
1.205425215E0,-1.369014382E-2,1.480484009E-2,-2.320451736E-1,2.329196555E-1
1.210416621E0,5.202353001E-2,2.570867538E-2,-1.477584839E-1,1.587449313E-1
1.215331153E0,9.832340479E-2,2.702903748E-2,-2.422332764E-3,1.019996495E-1
1.220322559E0,1.111596823E-1,-1.468181610E-2,6.106758118E-2,1.276764667E-1
1.225313965E0,1.194579899E-1,-8.011960983E-2,1.241893768E-1,1.900325355E-1
1.230305371E0,1.017641723E-1,-9.325599670E-2,2.108058929E-1,2.519756976E-1
1.235296778E0,6.300032139E-2,-1.092100143E-1,2.067241669E-1,2.421378717E-1
1.240288184E0,1.045507193E-2,-1.113142967E-1,2.623510361E-1,2.851810781E-1
1.245193444E0,-4.857146740E-2,-1.163363457E-1,2.584238052E-1,2.875346864E-1
1.250184851E0,-4.769814014E-2,-9.802722931E-2,2.048978806E-1,2.320939286E-1
1.255176257E0,6.696283817E-4,-6.346178055E-2,1.828203201E-1,1.935229068E-1
1.260167663E0,5.135995150E-2,-2.937364578E-2,1.491365433E-1,1.604442714E-1
1.265159069E0,6.367406249E-2,-7.320880890E-3,6.102275848E-2,8.849722360E-2
1.270150476E0,4.496216774E-2,-1.901626587E-3,-6.921195984E-2,8.255609061E-2
1.275040788E0,4.767289758E-2,-3.276348114E-3,-1.605529785E-1,1.675132787E-1
1.280032194E0,-2.362295985E-2,-1.358556747E-2,-2.419195175E-1,2.434495119E-1
1.285023601E0,-8.267575502E-2,-6.493568420E-3,-2.778377533E-1,2.899504510E-1
1.290015007E0,-1.130342484E-1,2.475929260E-2,-2.756881714E-1,2.989878454E-1
1.295006413E0,-1.220640540E-1,8.458566666E-2,-2.143325806E-1,2.607543353E-1
1.299997819E0,-1.145063341E-1,1.109323502E-1,-1.631364822E-1,2.281034824E-1
1.304888965E0,-5.259093642E-2,6.358337402E-2,-1.124467850E-1,1.394737663E-1
1.309880371E0,-7.994353771E-3,3.085613251E-2,-4.790210724E-2,5.753800903E-2
1.314871778E0,5.564987659E-4,2.667474747E-2,-4.077816010E-2,4.873099818E-2
1.319863184E0,3.516232967E-2,1.280260086E-2,-9.832382202E-3,3.869071926E-2
1.324854590E0,2.474007010E-2,-1.073741913E-2,7.087326050E-2,7.583127516E-2
1.329845996E0,9.994059801E-3,-4.385566711E-2,9.877681732E-2,1.085359867E-1
1.334739330E0,4.575580359E-2,-3.882455826E-2,1.597537994E-1,1.706523259E-1
1.339730736E0,2.002450824E-2,-2.213525772E-2,1.751546860E-1,1.776798092E-1
1.344722142E0,2.595907450E-2,-5.811691284E-3,1.263809204E-1,1.291502472E-1
1.349713548E0,3.926587105E-2,-2.772045135E-2,8.992481232E-2,1.019642286E-1
1.354704955E0,2.650928497E-2,-3.989505768E-2,5.373573303E-2,7.198532365E-2
1.359696361E0,6.570041180E-3,-5.201148987E-2,3.626823425E-3,5.255011292E-2
1.364586986E0,-2.090546489E-2,-4.975700378E-2,-3.281593323E-3,5.407001704E-2
1.369578392E0,-6.298217177E-2,-5.223369598E-2,-3.863048553E-2,9.048440402E-2
1.374569798E0,-2.937245369E-2,-7.831287384E-2,-5.946826935E-2,1.026261288E-1
1.379561205E0,1.757022738E-2,-7.073402405E-2,-4.219055176E-2,8.421435570E-2
1.384552611E0,5.181196332E-2,-3.439426422E-2,-7.747077942E-2,9.934367931E-2
1.389544017E0,6.172281504E-2,-8.132553101E-2,-1.030349731E-1,1.450508655E-1
1.394437246E0,7.405111194E-2,-8.000659943E-2,-1.357116699E-1,1.740755023E-1
1.399428653E0,7.211187482E-2,-4.977035522E-2,-1.469736099E-1,1.711094760E-1
1.404420059E0,8.682227135E-2,-4.322671890E-2,-9.179878235E-2,1.335427739E-1
1.409411465E0,8.971527219E-2,-7.237052917E-2,-3.234195709E-2,1.197176919E-1
1.414402819E0,9.770089388E-2,-4.677152634E-2,4.805564880E-2,1.185005727E-1
1.419394278E0,5.374893546E-2,-5.482816696E-2,1.183614731E-1,1.410833593E-1
1.424286257E0,4.118278623E-2,-6.556797028E-2,1.360177994E-1,1.565120518E-1
1.429277663E0,6.204476953E-2,-6.003475189E-2,1.181354523E-1,1.463205725E-1
1.434269069E0,4.032748938E-2,-6.191587448E-2,9.338855743E-2,1.190852828E-1
1.439260476E0,2.390375733E-2,-5.454874039E-2,4.759693146E-2,7.623924565E-2
1.444251882E0,-1.427769661E-3,-3.052282333E-2,-2.401924133E-2,3.886650518E-2
1.449243288E0,-2.631953359E-2,-1.377725601E-2,-9.032535553E-2,9.508522747E-2
1.454127923E0,-2.491948009E-2,1.972579956E-2,-1.324691772E-1,1.362283765E-1
1.459119330E0,-6.168082356E-2,8.053779602E-3,-1.411256790E-1,1.542266016E-1
1.464110736E0,-9.585180879E-2,1.813316345E-2,-8.096694946E-2,1.267755015E-1
1.469102142E0,-9.182095528E-2,1.634216309E-2,-7.100105286E-3,9.353376726E-2
1.474093548E0,-9.259089828E-2,3.132534027E-2,8.270931244E-2,1.280436713E-1
1.479084955E0,-7.465401292E-2,2.248096466E-2,1.099939346E-1,1.348231474E-1
1.483993028E0,-9.049719572E-2,6.528377533E-3,1.299753189E-1,1.585116578E-1
1.488984382E0,-1.016625464E-1,-4.523277283E-3,1.117830276E-1,1.511660631E-1
1.493975788E0,-8.431550860E-2,-2.265977859E-2,9.377479553E-2,1.281260428E-1
1.498967194E0,-5.784845352E-2,-2.050399780E-4,8.064937592E-2,9.925123401E-2
1.503958601E0,-2.916762233E-2,-1.120948792E-2,9.852123260E-2,1.033578061E-1
1.508950007E0,2.054601908E-2,-8.013725281E-3,8.544635773E-2,8.824646589E-2
1.513941413E0,4.104343057E-2,3.782129288E-2,3.454017639E-2,6.563563950E-2
1.518807090E0,5.883380771E-2,7.380104065E-2,6.790161133E-4,9.438469999E-2
1.523798496E0,6.940186024E-2,7.157325745E-2,-2.108001709E-2,1.019005226E-1
1.528755684E0,6.325864792E-2,1.265544891E-1,7.131576538E-3,1.416635261E-1
1.533747090E0,5.020895600E-2,1.835145950E-1,5.882072449E-2,1.991442278E-1
1.538700371E0,1.369926333E-2,2.140431404E-1,1.123495102E-1,2.421250673E-1
1.543691726E0,-6.266912818E-2,2.374343872E-1,1.724138260E-1,3.000483882E-1
1.548683132E0,-1.120791435E-1,2.751760483E-1,2.009258270E-1,3.586847919E-1
1.553618757E0,-1.349628866E-1,2.391438484E-1,2.694845200E-1,3.847423391E-1
1.558610163E0,-7.182475924E-2,2.796449661E-1,3.943519592E-1,4.887469395E-1
1.563601517E0,-2.344906330E-2,2.842750549E-1,4.872417450E-1,5.645942645E-1
1.568592976E0,2.930429578E-2,3.007845879E-1,5.532035828E-1,6.303683955E-1
1.573584382E0,4.844036698E-2,3.030762672E-1,6.232700348E-1,6.947425632E-1
1.578575788E0,2.960112691E-2,2.842364311E-1,6.569623947E-1,7.164259652E-1
1.583478288E0,3.766453266E-2,2.395863533E-1,7.140102386E-1,7.540761623E-1
1.588469694E0,2.015921474E-2,2.172856331E-1,7.322177887E-1,7.640434087E-1
1.593461101E0,5.624800920E-3,2.454166412E-1,6.787919998E-1,7.218168363E-1
1.598452507E0,-8.286473155E-2,2.640428543E-1,5.995798111E-1,6.603644013E-1
1.603443913E0,-1.376389265E-1,2.474889755E-1,5.183410645E-1,5.906544897E-1
1.608435319E0,-2.583169937E-2,3.051838875E-1,6.869697571E-1,7.521515333E-1
1.613268601E0,8.000540733E-2,4.215373993E-1,8.804779053E-1,9.794569852E-1
1.618260007E0,6.138786674E-2,4.299869537E-1,9.631233215E-1,1.056533853E0
1.623251413E0,9.444147348E-3,4.308652878E-1,9.312705994E-1,1.026157404E0
1.628219069E0,-4.446709156E-2,3.863978386E-1,9.211778641E-1,9.999246317E-1
1.633210476E0,-1.072230935E-1,3.398189545E-1,9.135951996E-1,9.806273004E-1
1.638201048E0,-1.690154374E-1,3.768248558E-1,9.036521912E-1,9.935544638E-1
1.643192351E0,-2.035583109E-1,4.467434883E-1,9.507980347E-1,1.070061976E0
1.648183809E0,-1.705749333E-1,4.754700661E-1,1.059403419E0,1.173670821E0
1.653175215E0,-1.160382330E-1,5.466256142E-1,1.171886444E0,1.298299762E0
1.658166621E0,-9.748834372E-2,6.098761559E-1,1.245520592E0,1.390242586E0
1.663158028E0,-1.387050152E-1,6.460909843E-1,1.259369850E0,1.422211328E0
1.668149434E0,-1.707067192E-1,6.055717468E-1,1.263854980E0,1.411802867E0
1.672998288E0,-2.645685077E-1,5.697422028E-1,1.282788277E0,1.428337648E0
1.677989694E0,-2.340524346E-1,5.292501450E-1,1.318304062E0,1.439726313E0
1.682981101E0,-1.135397255E-1,5.504374504E-1,1.384633064E0,1.494349818E0
1.687972507E0,-6.993982196E-2,5.541448593E-1,1.377120972E0,1.486078825E0
1.692963913E0,-5.425691605E-3,5.332937241E-1,1.277443886E0,1.384302899E0
1.697955319E0,3.682607412E-2,5.118031502E-1,1.193296432E0,1.298943802E0
1.702873496E0,3.310802579E-2,4.327731133E-1,1.050857544E0,1.136965385E0
1.707864903E0,4.536652565E-2,3.940968513E-1,9.076271057E-1,9.905339030E-1
1.712856309E0,8.289641142E-2,3.954620361E-1,7.279691696E-1,8.325870219E-1
1.717847663E0,9.350934625E-2,3.726320267E-1,5.429306030E-1,6.651107162E-1
1.722839121E0,7.070475817E-2,3.757920265E-1,4.617643356E-1,5.995374148E-1
1.727830528E0,6.967410445E-2,3.954257965E-1,3.623313904E-1,5.408327633E-1
1.732722611E0,1.217642426E-2,3.817152977E-1,3.040475845E-1,4.881595717E-1
1.737714017E0,-6.485551596E-3,3.609876633E-1,2.343616486E-1,4.304410967E-1
1.742705423E0,-3.244549036E-3,3.333711624E-1,1.770849228E-1,3.774995747E-1
1.747696830E0,-9.643524885E-3,3.250575066E-1,1.297588348E-1,3.501324540E-1
1.752688236E0,-2.612483501E-2,2.766404152E-1,7.561779022E-2,2.879765208E-1
1.757679642E0,-1.222082973E-2,2.263679504E-1,7.653331757E-2,2.392679384E-1
1.762567767E0,1.530385017E-2,2.101302147E-1,1.105298996E-1,2.379196790E-1
1.767559173E0,9.711131454E-2,2.015380859E-1,1.321668625E-1,2.598389637E-1
1.772550580E0,1.665487885E-1,1.412773132E-1,1.913423538E-1,2.903612828E-1
1.777541986E0,1.835031211E-1,1.128258705E-1,2.117729187E-1,3.020775424E-1
1.782533392E0,1.722767353E-1,7.779741287E-2,2.793540955E-1,3.372987128E-1
1.787524798E0,1.638186872E-1,2.907562256E-2,3.842239380E-1,4.187003566E-1
1.792380996E0,1.508051455E-1,3.777265549E-2,4.502048492E-1,4.762912677E-1
1.797372403E0,1.020943224E-1,3.449010849E-2,4.824018478E-1,4.942917773E-1
1.802363809E0,3.599613905E-3,7.235050201E-3,5.073490143E-1,5.074133674E-1
1.807355215E0,-1.017751694E-1,5.599021912E-2,5.108623505E-1,5.239021195E-1
1.812346621E0,-1.327292025E-1,1.254863739E-1,5.477333069E-1,5.773869125E-1
1.817338028E0,-1.563282609E-1,1.418619156E-1,5.155572891E-1,5.571020074E-1
1.822265423E0,-1.418583095E-1,1.651611328E-1,4.551858902E-1,5.045752416E-1
1.827256830E0,-8.457323909E-2,1.836361885E-1,4.118728638E-1,4.588181976E-1
1.832248236E0,-7.487356663E-2,1.735959053E-1,4.068326950E-1,4.486138997E-1
1.837239642E0,-2.904641628E-2,2.089123726E-1,4.231147766E-1,4.727728714E-1
1.842231048E0,-3.501975536E-2,2.205009460E-1,4.960622787E-1,5.439897378E-1
1.847222455E0,-4.266563058E-2,2.107930183E-1,4.637508392E-1,5.111935969E-1
1.852115996E0,-7.396483421E-2,2.111063004E-1,4.267206192E-1,4.817957592E-1
1.857107403E0,-6.940716505E-2,2.283706665E-1,4.135818481E-1,4.775148804E-1
1.862098809E0,-6.982147694E-2,2.290925980E-1,4.194402695E-1,4.829995825E-1
1.867090215E0,-8.484131098E-2,2.704296112E-1,4.536457062E-1,5.349062062E-1
1.872081621E0,-7.139453292E-2,2.808732986E-1,4.873943329E-1,5.670451701E-1
1.877073028E0,-7.711154222E-2,2.722744942E-1,5.683488846E-1,6.349016024E-1
1.881964226E0,-1.137727201E-1,2.566971779E-1,6.533432007E-1,7.111223600E-1
1.886955632E0,-1.457048953E-1,2.578587532E-1,6.948947906E-1,7.553805817E-1
1.891947038E0,-1.659314930E-1,2.326021194E-1,7.101392746E-1,7.654637782E-1
1.896938444E0,-1.320341229E-1,2.216782570E-1,7.253541946E-1,7.698785404E-1
1.901929851E0,-6.086862087E-2,2.391147614E-1,6.788272858E-1,7.222792687E-1
1.906921257E0,2.330303192E-2,3.253026009E-1,6.659708023E-1,7.415402369E-1
1.911776569E0,-2.044230700E-2,3.562288284E-1,4.750642776E-1,5.941405002E-1
1.916767976E0,-9.970068932E-4,3.087534904E-1,3.688173294E-1,4.809947342E-1
1.921759382E0,1.159843504E-1,2.687358856E-1,6.150579453E-1,6.811516878E-1
1.926750788E0,1.504456997E-1,2.121648788E-1,8.379354477E-1,8.773731583E-1
1.931742194E0,9.157991409E-2,1.509160995E-1,9.735612869E-1,9.894362684E-1
1.936733601E0,8.942699432E-2,1.323637962E-1,1.063158035E0,1.075091796E0
1.941662351E0,5.475893617E-2,1.752638817E-1,9.598064423E-1,9.772125541E-1
1.946653757E0,-2.279812098E-2,2.148938179E-1,7.269678116E-1,7.584070849E-1
1.951645163E0,-4.596903920E-2,2.322406769E-1,5.795621872E-1,6.260520852E-1
1.956636569E0,-9.563103318E-2,2.227783203E-1,5.120906830E-1,5.665795108E-1
1.961627976E0,-1.097845137E-1,2.108812332E-1,3.692626953E-1,4.391793166E-1
1.966619382E0,-6.452816725E-2,1.658740044E-1,2.513599396E-1,3.079933261E-1
1.971508028E0,1.153343916E-2,1.427750587E-1,1.628513336E-1,2.168831355E-1
1.976499434E0,4.686045647E-2,1.200976372E-1,9.870052338E-2,1.623611350E-1
1.981490840E0,4.660221934E-2,1.075415611E-1,2.533626556E-2,1.199119701E-1
1.986482246E0,2.994820476E-2,1.048665047E-1,-1.669216156E-2,1.103290851E-1
1.991473653E0,1.099094748E-2,5.018758774E-2,-3.236293793E-2,6.072029843E-2
1.996465059E0,-1.992347836E-2,5.563879013E-2,-7.655239105E-2,9.671033313E-2
2.001329434E0,-6.989356875E-2,6.136083603E-2,-4.213714600E-2,1.021068177E-1
2.006320840E0,-1.028286219E-1,5.300378799E-2,-1.525592804E-2,1.166870617E-1
2.011312246E0,-1.520512402E-1,6.173753738E-2,4.206943512E-2,1.694135194E-1
2.016303653E0,-1.575766802E-1,6.836509705E-2,8.920574188E-2,1.935506678E-1
2.021295059E0,-1.269256771E-1,7.043886185E-2,1.025342941E-1,1.777218113E-1
2.026286465E0,-1.246761382E-1,1.036219597E-1,1.393594742E-1,2.137819286E-1
2.031169278E0,-9.149834514E-2,1.032638550E-1,1.402454376E-1,1.967337126E-1
2.036160684E0,-7.772207260E-2,1.196494102E-1,1.529464722E-1,2.091633938E-1
2.041152090E0,-4.039782286E-2,8.852815628E-2,1.725969315E-1,1.981386366E-1
2.046143496E0,-1.099050045E-2,7.899475098E-2,2.158880234E-1,2.301490830E-1
2.051134903E0,1.536884904E-2,9.803867340E-2,2.564659119E-1,2.749955399E-1
2.056126309E0,5.518525839E-3,8.845996857E-2,2.776937485E-1,2.914951768E-1
2.061053080E0,-7.339844108E-2,9.077930450E-2,2.845354080E-1,3.075526161E-1
2.066044486E0,-1.611778587E-1,6.701898575E-2,3.221645355E-1,3.664148394E-1
2.071035892E0,-1.793245524E-1,4.841613770E-2,3.712453842E-1,4.151199258E-1
2.076027298E0,-1.328791976E-1,4.413938522E-2,4.413270950E-1,4.630062325E-1
2.081018705E0,-5.083391070E-2,8.489942551E-2,4.847536087E-1,4.947505029E-1
2.086010111E0,1.906397939E-2,1.299228668E-1,4.898691177E-1,5.071638188E-1
2.090901673E0,3.397193551E-2,1.529383659E-1,4.760656357E-1,5.011813301E-1
2.095893080E0,3.857582808E-3,9.965276718E-2,4.434118271E-1,4.544882874E-1
2.100884486E0,-3.800252080E-2,8.030986786E-2,4.441633224E-1,4.529623864E-1
2.105875892E0,-4.161703587E-2,8.021926880E-2,4.021072388E-1,4.121375259E-1
2.110867298E0,-4.788696766E-2,1.136240959E-1,3.389091492E-1,3.606424937E-1
2.115858705E0,-7.609000802E-2,1.612935066E-1,2.713546753E-1,3.247131725E-1
2.120751934E0,-1.092106104E-1,1.852631569E-1,2.516489029E-1,3.310235113E-1
2.125743340E0,-1.115913689E-1,2.451291084E-1,2.888889313E-1,3.949654770E-1
2.130734746E0,-1.212288737E-1,2.379865646E-1,4.137182236E-1,4.924396545E-1
2.135726153E0,-1.449497193E-1,1.787967682E-1,4.970359802E-1,5.477439832E-1
2.140717559E0,-1.183020175E-1,1.341681480E-1,5.773715973E-1,6.044455481E-1
2.145708965E0,-7.471558452E-2,1.086287498E-1,6.429176331E-1,6.562969654E-1
2.150601309E0,-2.364581823E-2,7.590341568E-2,7.175340652E-1,7.219249185E-1
2.155589382E0,-1.744276285E-2,4.764604568E-2,7.157821655E-1,7.175782216E-1
2.160577455E0,3.675702214E-2,6.664752960E-2,6.881513596E-1,6.923476479E-1
2.165565476E0,4.556638002E-2,7.312488556E-2,6.396245956E-1,6.454015550E-1
2.170553548E0,1.610276103E-2,4.817438126E-2,5.205078125E-1,5.229803560E-1
2.175541569E0,-7.275074720E-2,5.155038834E-2,3.693428040E-1,3.799529189E-1
2.180414798E0,-1.093601286E-1,5.944061279E-2,2.575893402E-1,2.860858130E-1
2.185402871E0,-1.036716700E-1,1.073813438E-1,1.421899796E-1,2.061469341E-1
2.190390944E0,-6.300386786E-2,1.169557571E-1,3.963279724E-2,1.386322297E-1
2.195378965E0,6.276071072E-4,1.407880783E-1,-7.458686829E-3,1.409869104E-1
2.200367038E0,4.904243350E-2,1.741604805E-1,-1.388263702E-2,1.814655914E-1
2.205355111E0,7.076051831E-2,1.717090607E-1,3.462791443E-3,1.857499486E-1
2.210298705E0,4.233607650E-2,1.670489311E-1,6.097412109E-2,1.827991581E-1
2.215286778E0,-9.569644928E-3,1.386113167E-1,1.061601639E-1,1.748560997E-1
2.220274851E0,-2.024477720E-2,7.943296432E-2,1.581306458E-1,1.781144238E-1
2.225262871E0,-2.094456553E-2,4.906654358E-2,2.240056992E-1,2.302710442E-1
2.230250944E0,-2.355131507E-2,3.311061859E-2,2.109718323E-1,2.148489970E-1
2.235239017E0,-2.332770824E-2,1.021814346E-2,1.552381516E-1,1.573133056E-1
2.240144121E0,-2.268049121E-2,-1.934099197E-2,9.268093109E-2,9.735622035E-2
2.245132194E0,2.134829760E-3,-1.036262512E-2,8.273696899E-2,8.341071595E-2
2.250120267E0,2.460536361E-2,-5.564737320E-2,4.649448395E-2,7.657539487E-2
2.255108288E0,6.589296460E-2,-4.082489014E-2,5.620002747E-3,7.771833033E-2
2.260096309E0,9.006807208E-2,-5.172634125E-2,-3.281688690E-2,1.089257548E-1
2.265084434E0,8.049777150E-2,-6.457805634E-2,-7.110023499E-2,1.253214267E-1
2.269994382E0,8.942294121E-2,-5.314922333E-2,-9.026050568E-2,1.377253108E-1
2.274982403E0,3.854781389E-2,-2.725124359E-2,-9.991073608E-2,1.105021240E-1
2.279970528E0,-1.427900791E-2,1.060247421E-2,-3.124523163E-2,3.595228819E-2
2.284958548E0,-2.136099339E-2,1.978254318E-2,1.365346909E-1,1.396043082E-1
2.289946621E0,-5.194371939E-2,9.297752380E-2,2.459230423E-1,2.679946131E-1
2.294934694E0,-4.639714956E-2,1.152901649E-1,3.949804306E-1,4.140701126E-1
2.299843496E0,-9.546923637E-2,1.227054596E-1,4.979038239E-1,5.216121382E-1
2.304831569E0,-1.396976411E-1,7.970905304E-2,5.289630890E-1,5.528751338E-1
2.309819590E0,-1.459737718E-1,7.692623138E-2,5.885696411E-1,6.112611631E-1
2.314807663E0,-1.524723768E-1,1.282706261E-1,5.933389664E-1,6.259011969E-1
2.319795736E0,-1.542478055E-1,1.456942558E-1,5.910692215E-1,6.279984286E-1
2.324783809E0,-1.130788028E-1,1.081895828E-1,5.508823395E-1,5.726806732E-1
2.329691517E0,-7.202273607E-2,1.302938461E-1,4.611816406E-1,4.846155863E-1
2.334679590E0,-2.391481400E-2,1.381917000E-1,4.124794006E-1,4.356697376E-1
2.339667611E0,2.710580826E-3,1.938257217E-1,3.378858566E-1,3.895415379E-1
2.344655684E0,-1.819664240E-2,1.755948067E-1,3.255405426E-1,3.703259359E-1
2.349643757E0,-3.664582968E-2,1.791844368E-1,3.297767639E-1,3.770977237E-1
2.354631830E0,-5.995795131E-2,1.779375076E-1,3.340187073E-1,3.831777777E-1
2.359540423E0,-4.305231571E-2,1.813936234E-1,3.002614975E-1,3.534319105E-1
2.364528496E0,-7.436648011E-2,1.464691162E-1,2.978734970E-1,3.401649535E-1
2.369516569E0,-1.275120974E-1,1.209912300E-1,2.980937958E-1,3.460608672E-1
2.374504590E0,-1.141236722E-1,9.543609619E-2,2.818555832E-1,3.187080652E-1
2.379492663E0,-8.899903297E-2,7.697963715E-2,2.991399765E-1,3.214520461E-1
2.384480736E0,-5.891588330E-2,8.951139450E-2,2.854080200E-1,3.048624427E-1
2.389351101E0,7.326751947E-3,8.282089233E-2,2.813205719E-1,2.933500395E-1
2.394339226E0,2.642452717E-2,9.050941467E-2,2.748174667E-1,2.905423374E-1
2.399327246E0,7.946211100E-2,7.932281494E-2,3.038644791E-1,3.239443744E-1
2.404315267E0,8.769533038E-2,6.821918488E-2,3.587760925E-1,3.755856929E-1
2.409303392E0,1.316058636E-2,1.885366440E-2,4.062700272E-1,4.069201355E-1
2.414291413E0,-2.291485667E-2,1.968479156E-2,3.346519470E-1,3.360126595E-1
2.419238705E0,-7.815402746E-2,-1.002788544E-3,2.067079544E-1,2.209914840E-1
2.424226778E0,-1.006065011E-1,-2.147340775E-2,1.226024628E-1,1.600441788E-1
2.429214851E0,-9.296408296E-2,-2.260780334E-2,4.390144348E-2,1.052652375E-1
2.434202871E0,-1.005917788E-2,-1.408243179E-2,-1.994228363E-2,2.640448108E-2
2.439190944E0,8.864572644E-2,2.088689804E-2,-2.406311035E-2,9.419851701E-2
2.444179017E0,1.627829075E-1,3.902244568E-2,-3.532505035E-2,1.710815169E-1
2.449048288E0,1.818242669E-1,2.394485474E-2,-1.096916199E-2,1.837219165E-1
2.454036413E0,1.629806757E-1,2.332115173E-2,-3.495216370E-3,1.646778470E-1
2.459024434E0,1.279155612E-1,-1.288557053E-2,1.813411713E-2,1.298355688E-1
2.464012455E0,6.243178248E-2,-6.794071198E-2,9.429264069E-2,1.319271386E-1
2.469000528E0,2.336561680E-3,-6.813859940E-2,1.841936111E-1,1.964067581E-1
2.473988601E0,-2.868941426E-2,-7.831668854E-2,2.949781418E-1,3.065431296E-1
2.478935944E0,-4.271313548E-2,-5.334424973E-2,3.196201324E-1,3.268440760E-1
2.483923965E0,-5.425137281E-2,-7.188940048E-2,3.324728012E-1,3.444553105E-1
2.488912038E0,-6.560501456E-2,-5.973243713E-2,2.788791656E-1,2.926526457E-1
2.493900111E0,-2.933040261E-2,-5.717611313E-2,1.996002197E-1,2.096893611E-1
2.498888132E0,-9.611427784E-3,-4.247379303E-2,7.330036163E-2,8.526045774E-2
2.503876205E0,1.752117276E-2,-3.505229950E-3,-1.904678345E-2,2.611624191E-2
2.508756309E0,3.770017624E-2,5.155086517E-3,-8.974075317E-2,9.747451454E-2
2.513744382E0,2.491807938E-2,3.835010529E-2,-1.341896057E-1,1.417691487E-1
2.518732455E0,1.935663819E-2,4.121208191E-2,-1.905879974E-1,1.959512692E-1
2.523720476E0,4.179251194E-2,3.047370911E-2,-1.993446350E-1,2.059454892E-1
2.528708548E0,2.299955487E-2,3.926372528E-2,-1.654758453E-1,1.716183995E-1
2.533696621E0,3.777712584E-3,2.664232254E-2,-8.200073242E-2,8.630298130E-2
2.538606673E0,-1.324158907E-2,4.026699066E-2,9.580898285E-2,1.047670340E-1
2.543594746E0,5.678743124E-3,4.168748856E-2,2.579908371E-1,2.613988654E-1
2.548582819E0,-2.730768919E-2,2.835464478E-2,3.549232483E-1,3.570997171E-1
2.553570840E0,-9.596705437E-3,-4.504680634E-3,4.632415771E-1,4.633628683E-1
2.558558913E0,-1.305097342E-2,1.919174194E-2,4.902667999E-1,4.908158371E-1
2.563546986E0,-1.631486416E-2,-6.971359253E-4,4.603824615E-1,4.606719784E-1
2.568451934E0,-2.680784464E-2,-3.043460846E-2,4.524059296E-1,4.542202671E-1
2.573440007E0,-4.415702820E-2,-1.741933823E-2,3.899879456E-1,3.928662293E-1
2.578428080E0,-3.728589416E-2,1.691818237E-2,3.613071442E-1,3.636197399E-1
2.583416101E0,2.416247129E-2,3.454208374E-2,2.995023727E-1,3.024543798E-1
2.588404173E0,6.608182192E-2,7.833480835E-2,2.167329788E-1,2.397422230E-1
2.593392246E0,1.931494474E-2,5.563926697E-2,1.202096939E-1,1.338624878E-1
2.598301726E0,6.995201111E-4,5.010652542E-2,7.422065735E-2,8.955366657E-2
2.603289798E0,-4.165589809E-3,6.396341324E-2,4.983997345E-2,8.119540212E-2
2.608277871E0,4.748016596E-3,4.236364365E-2,8.016395569E-2,9.079362178E-2
2.613265892E0,4.664668441E-2,4.969739914E-2,1.766252518E-1,1.893204273E-1
2.618253965E0,1.051516831E-1,6.181430817E-2,2.460899353E-1,2.746600470E-1
2.623242038E0,1.091790795E-1,5.462408066E-2,3.103075027E-1,3.334585549E-1
2.628152351E0,1.090829968E-1,5.901765823E-2,3.385210037E-1,3.605255250E-1
2.633140423E0,1.094965637E-1,2.259540558E-2,3.144273758E-1,3.337133867E-1
2.638128496E0,6.998568773E-2,9.745121002E-3,2.575187683E-1,2.670372257E-1
2.643116517E0,6.200054288E-2,-3.906726837E-2,2.226858139E-1,2.344339790E-1
2.648104590E0,7.560762763E-2,-1.397657394E-2,1.502056122E-1,1.687411743E-1
2.653092663E0,1.058593392E-1,2.737903595E-2,9.028530121E-2,1.418000244E-1
2.657999434E0,1.188499928E-1,6.602764130E-3,-2.136898041E-2,1.209361426E-1
2.662984746E0,6.702983379E-2,-4.522800446E-3,-3.941249847E-2,7.788966156E-2
2.667970111E0,1.977461576E-2,-4.401445389E-2,-3.117656708E-2,5.744811498E-2
2.672955423E0,-3.250876069E-2,-5.204486847E-2,-3.024387360E-2,6.841183922E-2
2.677940788E0,-3.531613946E-2,-6.688308716E-2,-2.466964722E-2,7.955607172E-2
2.682926101E0,-4.105064273E-2,1.650810242E-3,-4.922866821E-3,4.137771212E-2
2.687843132E0,-6.335189939E-2,-1.297664642E-2,-4.502582550E-2,7.879835957E-2
2.692828444E0,2.714365721E-3,-1.274538040E-2,-5.655670166E-2,5.803854758E-2
2.697813809E0,9.964099526E-2,-3.013610840E-4,-4.443645477E-2,1.091009499E-1
2.702799173E0,1.013698578E-1,-2.083539963E-2,-1.364135742E-2,1.043841395E-1
2.707784486E0,2.524340153E-2,-3.155565262E-2,-4.580497742E-3,4.066902375E-2
2.712769798E0,-2.837005258E-2,-3.501415253E-2,8.037948608E-2,9.215048857E-2
2.717724121E0,-1.386661083E-1,-4.338550568E-2,1.219787598E-1,1.897087492E-1
2.722709434E0,-1.773485392E-1,-1.905965805E-2,1.303319931E-1,2.209122074E-1
2.727694798E0,-1.785264909E-1,2.052783966E-3,8.434963226E-2,1.974608375E-1
2.732680111E0,-1.637700796E-1,-1.299858093E-3,5.568885803E-2,1.729843274E-1
2.737665476E0,-1.186117828E-1,-1.213693619E-2,4.649162292E-2,1.279747289E-1
2.742650788E0,-4.768249393E-2,5.532741547E-3,4.929637909E-2,6.880671804E-2
2.747569955E0,1.848316193E-2,1.647472382E-3,6.394958496E-2,6.658746772E-2
2.752555267E0,6.340169907E-2,-1.390457153E-2,4.747772217E-2,8.041919333E-2
2.757540632E0,7.768526673E-2,-2.180576324E-2,2.402305603E-3,8.072337363E-2
2.762525944E0,6.861323118E-2,-4.562330246E-2,-4.741477966E-2,9.506535936E-2
2.767511309E0,2.422466874E-2,-6.398773193E-2,-7.808971405E-2,1.038232530E-1
2.772496621E0,-2.682149410E-2,-7.427930832E-2,-4.717254639E-2,9.198944137E-2
2.777387663E0,-6.324839592E-2,-4.095840454E-2,1.633739471E-2,7.710292443E-2
2.782372976E0,-4.481038451E-2,-3.336238861E-2,3.144550323E-2,6.410802764E-2
2.787358340E0,-1.260945201E-2,1.736593246E-2,1.222257614E-1,1.240955706E-1
2.792343653E0,-4.037255049E-2,4.177331924E-2,2.145147324E-1,2.222420380E-1
2.797329017E0,-7.784312963E-2,7.061862946E-2,3.274888992E-1,3.439411618E-1
2.802314330E0,-1.271443218E-1,8.461523056E-2,4.444732666E-1,4.699807449E-1
2.807268340E0,-1.646011919E-1,1.050634384E-1,5.394191742E-1,5.736766720E-1
2.812253653E0,-2.521625757E-1,1.340680122E-1,5.128517151E-1,5.870068809E-1
2.817239017E0,-2.656577229E-1,1.406636238E-1,5.011882782E-1,5.844227674E-1
2.822224330E0,-2.363840193E-1,1.653170586E-1,5.304841995E-1,6.038382402E-1
2.827209694E0,-1.977593750E-1,2.175321579E-1,5.599241257E-1,6.324112875E-1
2.832195007E0,-1.475062966E-1,2.043271065E-1,5.373048782E-1,5.934679487E-1
2.837114226E0,-5.929663777E-2,1.927413940E-1,5.105695724E-1,5.489504755E-1
2.842099538E0,2.333492041E-3,1.616120338E-1,4.012413025E-1,4.325719333E-1
2.847084903E0,1.373973489E-2,1.162366867E-1,2.929534912E-1,3.154702770E-1
2.852070215E0,3.457975388E-2,7.356452942E-2,2.117271423E-1,2.267948019E-1
2.857055580E0,2.900904417E-2,7.178783417E-2,8.596515656E-2,1.156936728E-1
2.862040892E0,3.533938527E-2,3.721570969E-2,-2.948188782E-2,5.918667847E-2
2.866963548E0,5.365273356E-2,-1.291275024E-3,-1.204986572E-1,1.319098541E-1
2.871948861E0,5.998069048E-2,-2.431106567E-2,-1.969919205E-1,2.073512186E-1
2.876934226E0,3.564965725E-2,-4.391765594E-2,-2.091712952E-1,2.166847694E-1
2.881919538E0,3.531968594E-2,-7.448482513E-2,-2.264041901E-1,2.409446548E-1
2.886904903E0,4.674401879E-2,-9.004402161E-2,-2.366285324E-1,2.574606600E-1
2.891890215E0,3.869393468E-2,-1.336803436E-1,-1.899023056E-1,2.354369141E-1
2.896779278E0,6.596064568E-2,-1.481647491E-1,-1.722087860E-1,2.365575314E-1
2.901764590E0,6.187459826E-2,-1.530537605E-1,-7.862091064E-2,1.828528565E-1
2.906749955E0,8.617985249E-2,-1.484494209E-1,-3.091526031E-2,1.744131614E-1
2.911735267E0,7.467275858E-2,-1.371531487E-1,4.511070251E-2,1.625484006E-1
2.916720632E0,6.108492613E-2,-1.311006546E-1,1.064558029E-1,1.795872707E-1
2.921705944E0,-4.406124353E-3,-9.936189651E-2,8.672142029E-2,1.319575884E-1
2.926626986E0,-4.539200664E-2,-4.912090302E-2,1.005287170E-1,1.207448563E-1
2.931612298E0,-7.177159190E-2,-1.642656326E-2,8.835506439E-2,1.150113507E-1
2.936597611E0,-1.002870202E-1,2.282905579E-2,7.643795013E-2,1.281460590E-1
2.941582976E0,-1.331932992E-1,3.790473938E-2,1.003017426E-1,1.709902447E-1
2.946568288E0,-1.207699627E-1,4.330921173E-2,1.334962845E-1,1.851548802E-1
2.951553653E0,-8.461859822E-2,3.436231613E-2,1.070499420E-1,1.407151947E-1
2.956473965E0,-2.497732639E-2,3.515338898E-2,5.698204041E-2,7.146034228E-2
2.961459278E0,-8.515596390E-3,3.393411636E-2,6.176757812E-2,7.098783940E-2
2.966444642E0,-1.091316342E-2,4.484224319E-2,5.924797058E-2,7.510157075E-2
2.971430007E0,-5.809387565E-2,3.704357147E-2,9.453773499E-2,1.169808015E-1
2.976415319E0,-4.968968034E-2,5.593061447E-2,1.126222610E-1,1.352075133E-1
2.981400632E0,-4.590737820E-2,7.733535767E-2,5.912208557E-2,1.076274404E-1
2.986359173E0,-1.087529212E-1,7.500314713E-2,2.734565735E-2,1.349090617E-1
2.991344486E0,-1.118572801E-1,9.447479248E-2,-2.100372314E-2,1.479144818E-1
2.996329851E0,-4.161599278E-2,6.879663467E-2,3.075504303E-2,8.608565775E-2
3.001315163E0,4.035621881E-3,9.094285965E-2,5.353164673E-2,1.056055262E-1
3.006300528E0,1.570406556E-2,8.439397812E-2,1.212682724E-1,1.485764285E-1
3.011285892E0,2.694642544E-2,2.999687195E-2,2.100429535E-1,2.138783871E-1
3.016173236E0,5.471080542E-2,3.740596771E-2,2.745428085E-1,2.824291634E-1
3.021158548E0,9.440663457E-2,3.734207153E-2,3.053884506E-1,3.218216101E-1
3.026143913E0,7.720398903E-2,-3.500938416E-3,3.623037338E-1,3.704547314E-1
3.031129278E0,1.287993789E-2,2.681779861E-2,4.332256317E-1,4.342459385E-1
3.036114590E0,-4.350864887E-2,4.460906982E-2,4.372415543E-1,4.416595390E-1
3.041099955E0,-5.887663364E-2,5.701065063E-2,4.224758148E-1,4.303515846E-1
3.046056778E0,-1.050828248E-1,3.819227219E-2,3.699531555E-1,3.864794781E-1
3.051042090E0,-7.758694887E-2,1.219987869E-2,3.061113358E-1,3.160264570E-1
3.056027455E0,-4.836404324E-2,1.952600479E-2,2.737827301E-1,2.787065282E-1
3.061012767E0,-5.074274540E-2,2.887248993E-3,1.444234848E-1,1.531055367E-1
3.065998132E0,-2.964940667E-2,8.020401001E-3,1.601791382E-2,3.464083878E-2
3.070983444E0,-2.530053258E-2,1.122379303E-2,-1.139554977E-1,1.172686912E-1
3.075906361E0,5.128204823E-3,1.733493805E-2,-1.956319809E-1,1.964654436E-1
3.080891673E0,4.017612338E-2,1.695060730E-2,-2.508659363E-1,2.546274965E-1
3.085877038E0,4.670524597E-2,5.284786224E-3,-2.465791702E-1,2.510191151E-1
3.090862351E0,3.910657763E-2,-1.138687134E-3,-2.235403061E-1,2.269380741E-1
3.095847715E0,6.480559707E-2,-3.339242935E-2,-1.960735321E-1,2.091880727E-1
3.100833028E0,3.310468793E-2,-2.742004395E-2,-1.260423660E-1,1.331707821E-1
3.105754642E0,1.107180119E-2,-4.788351059E-2,-2.557373047E-2,5.540244632E-2
3.110739955E0,-1.801219583E-2,-6.376171112E-2,7.186603546E-2,9.774825859E-2
3.115725319E0,-1.830440760E-2,-4.901742935E-2,1.473226547E-1,1.563384927E-1
3.120710632E0,-8.772939444E-3,-4.661655426E-2,1.605577469E-1,1.674182119E-1
3.125695996E0,-3.702968359E-3,-5.383205414E-2,1.404609680E-1,1.504688857E-1
3.130681309E0,-1.953288913E-2,-4.073143005E-3,1.466960907E-1,1.480468415E-1
3.135564642E0,-3.948268294E-2,-4.507541656E-3,1.433010101E-1,1.487090437E-1
3.140549955E0,-8.897393942E-3,2.147483826E-2,1.041326523E-1,1.066955555E-1
3.145535319E0,4.934400320E-3,1.175165176E-2,1.150960922E-1,1.157996549E-1
3.150520632E0,-3.873109818E-2,-4.872798920E-3,1.092767715E-1,1.160398851E-1
3.155505996E0,-5.652046204E-2,-1.191186905E-2,9.642982483E-2,1.124062559E-1
3.160491361E0,-3.466922045E-2,-7.071495056E-3,1.288890839E-1,1.336576104E-1
3.165451101E0,-4.235097766E-2,-3.112554550E-2,1.684207916E-1,1.764311989E-1
3.170434434E0,-4.119277000E-2,-7.771968842E-3,1.555490494E-1,1.610985865E-1
3.175417715E0,-4.999914765E-2,2.221775055E-2,1.358337402E-1,1.464388889E-1
3.180400996E0,-4.938662052E-2,2.093315125E-2,1.448707581E-1,1.544822697E-1
3.185384226E0,-4.365548491E-2,3.613996506E-2,3.512287140E-2,6.667469185E-2
3.190367507E0,1.247978210E-2,3.227472305E-2,-3.337955475E-2,4.807907429E-2
3.195299226E0,4.774191976E-2,3.112792969E-2,6.351470947E-4,5.699686237E-2
3.200282507E0,3.861695528E-2,5.869197845E-2,8.092880249E-3,7.072137075E-2
3.205265788E0,7.347911596E-2,6.939363480E-2,5.946159363E-3,1.012423520E-1
3.210249017E0,6.581684947E-2,3.976917267E-2,3.720283508E-3,7.698886464E-2
3.215232351E0,2.730971575E-2,1.757001877E-2,2.999210358E-2,4.420466503E-2
3.220215580E0,-3.981602192E-2,-2.591419220E-2,4.185676575E-2,6.331547834E-2
3.225147715E0,-5.953079462E-2,-6.655931473E-2,4.646682739E-2,1.006639157E-1
3.230130996E0,-4.646578431E-2,-8.775997162E-2,2.725124359E-2,1.029733558E-1
3.235114278E0,-7.874369621E-3,-7.052946091E-2,7.459735870E-2,1.029620147E-1
3.240097559E0,3.757908940E-2,-5.557537079E-2,7.865810394E-2,1.033823346E-1
3.245080788E0,3.040239215E-2,-3.343105316E-2,1.134643555E-1,1.221314895E-1
3.250064069E0,4.692476988E-2,-3.508472443E-2,1.574125290E-1,1.679630203E-1
3.254996413E0,1.813012362E-2,-1.283311844E-2,1.819181442E-1,1.832692050E-1
3.259979694E0,-5.343297124E-2,2.809333801E-2,1.896772385E-1,1.990521862E-1
3.264962976E0,-1.081774980E-1,2.350187302E-2,1.855306625E-1,2.160470686E-1
3.269946257E0,-9.622402489E-2,2.839851379E-2,1.862068176E-1,2.115148162E-1
3.274929486E0,-6.541600823E-2,3.543090820E-2,1.941127777E-1,2.078806722E-1
3.279912767E0,-1.824292541E-2,4.458665848E-2,2.044315338E-1,2.100310131E-1
3.284743965E0,4.979759455E-3,3.674554825E-2,2.314424515E-1,2.343942014E-1
3.289727298E0,1.398399472E-2,4.704475403E-3,2.181072235E-1,2.186056842E-1
3.294710580E0,3.481754661E-2,-1.786994934E-2,1.884155273E-1,1.924370224E-1
3.299693809E0,4.114413261E-2,-2.169609070E-2,1.307048798E-1,1.387347310E-1
3.304677090E0,2.343240380E-2,-3.543758392E-2,5.471801758E-2,6.927453609E-2
3.309660371E0,3.182592988E-2,-2.303552628E-2,-3.245258331E-2,5.095778103E-2
3.314692194E0,3.523823619E-2,-2.748680115E-2,-7.131481171E-2,8.416091668E-2
3.319675423E0,4.120817780E-2,1.093053818E-2,-1.360282898E-1,1.425527489E-1
3.324658757E0,7.120996714E-3,4.191398621E-3,-1.766214371E-1,1.768146161E-1
3.329641986E0,-2.623230219E-2,-9.168148041E-3,-1.886262894E-1,1.906621768E-1
3.334625267E0,-5.198481679E-2,-3.151512146E-2,-2.387628555E-1,2.463804482E-1
3.339608548E0,-5.376741290E-2,-3.897237778E-2,-2.150812149E-1,2.250993335E-1
3.344510840E0,-5.813971162E-2,-6.248998642E-2,-1.918592453E-1,2.099885580E-1
3.349494121E0,-7.246217132E-2,-6.650018692E-2,-2.093629837E-1,2.313134239E-1
3.354477403E0,-8.694514632E-2,-6.522130966E-2,-1.533393860E-1,1.879527733E-1
3.359460684E0,-5.165103078E-2,-1.017565727E-1,-1.050109863E-1,1.550791292E-1
3.364443965E0,2.583444118E-3,-1.258153915E-1,-6.912803650E-2,1.435788019E-1
3.369427194E0,7.794198394E-2,-1.115617752E-1,1.390361786E-2,1.368001942E-1
3.374390007E0,7.708591223E-2,-9.976339340E-2,1.152114868E-1,1.707883463E-1
3.379373236E0,8.844721317E-2,-8.811664581E-2,1.468009949E-1,1.927121815E-1
3.384356569E0,6.649014354E-2,-8.880281448E-2,1.403112411E-1,1.788690120E-1
3.389339798E0,2.089440823E-2,-5.663490295E-2,1.531000137E-1,1.645712695E-1
3.394323132E0,-5.567610264E-2,-5.606794357E-2,1.019010544E-1,1.289467626E-1
3.399306361E0,-6.781524420E-2,-3.957986832E-2,8.477497101E-2,1.155520187E-1
3.404240423E0,-1.251825690E-1,9.542942047E-3,6.330680847E-2,1.406040374E-1
3.409223757E0,-1.535546929E-1,3.213882446E-3,4.224777222E-3,1.536464171E-1
3.414207038E0,-1.435353160E-1,1.114511490E-2,-4.009151459E-2,1.494454083E-1
3.419190267E0,-1.072954088E-1,-4.992961884E-3,-7.678508759E-2,1.320347837E-1
3.424173601E0,-9.650409222E-3,2.918243408E-4,-7.748794556E-2,7.808711332E-2
3.429156830E0,2.799570560E-2,-1.347589493E-2,-8.769226074E-2,9.303382111E-2
3.434087819E0,5.619058013E-2,-4.127788544E-2,-1.453924179E-1,1.612457761E-1
3.439071101E0,7.243257761E-2,-7.575464249E-2,-1.552228928E-1,1.872949294E-1
3.444054434E0,7.661542296E-2,-1.240015030E-1,-1.864547729E-1,2.366678646E-1
3.449037715E0,9.024980664E-2,-1.455245018E-1,-2.222785950E-1,2.805889912E-1
3.454020996E0,7.749012113E-2,-1.784462929E-1,-2.888412476E-1,3.482485673E-1
3.459004226E0,4.337680340E-2,-1.798572540E-1,-3.075256348E-1,3.588902269E-1
3.463938236E0,2.390182018E-2,-2.141141891E-1,-2.835130692E-1,3.560840398E-1
3.468921569E0,8.782416582E-2,-2.216491699E-1,-3.097553253E-1,3.908833588E-1
3.473904798E0,1.085962057E-1,-2.598466873E-1,-3.382434845E-1,4.401387186E-1
3.478888080E0,8.162730932E-2,-2.858409882E-1,-3.474912643E-1,4.572945079E-1
3.483871413E0,1.021412909E-1,-2.854342461E-1,-3.305501938E-1,4.485186537E-1
3.488854642E0,1.105302572E-1,-3.016576767E-1,-3.446302414E-1,4.711520932E-1
3.493785788E0,1.045003831E-1,-3.107218742E-1,-3.062715530E-1,4.486320067E-1
3.498769069E0,7.738596201E-2,-2.769975662E-1,-2.848463058E-1,4.047884099E-1
3.503752351E0,8.160156012E-2,-2.579550743E-1,-2.754058838E-1,3.860673980E-1
3.508735632E0,5.247470737E-2,-2.321434021E-1,-2.635622025E-1,3.551185557E-1
3.513718913E0,4.517018795E-3,-2.209057808E-1,-2.588834763E-1,3.403533777E-1
3.518702194E0,-6.929081678E-2,-2.004632950E-1,-2.778854370E-1,3.495812724E-1
3.523633028E0,-9.034502506E-2,-2.065129280E-1,-2.586135864E-1,3.430609276E-1
3.528616309E0,-9.724456072E-2,-1.914381981E-1,-2.654581070E-1,3.414280229E-1
3.533599590E0,-9.975558519E-2,-2.077202797E-1,-2.791690826E-1,3.619865579E-1
3.538582923E0,-9.306758642E-2,-2.051577568E-1,-3.567361832E-1,4.219146658E-1
3.543566205E0,-6.990879774E-2,-2.026119232E-1,-4.051465988E-1,4.583476824E-1
3.548549434E0,-7.290509343E-2,-2.023577690E-1,-4.104566574E-1,4.633988422E-1
3.553443548E0,-4.218125343E-2,-2.254471779E-1,-4.325904846E-1,4.896327354E-1
3.558426830E0,-1.815637946E-2,-1.957573891E-1,-4.476137161E-1,4.888851075E-1
3.563410111E0,-8.676052094E-4,-2.039728165E-1,-4.698486328E-1,5.122142133E-1
3.568393392E0,-9.530425072E-3,-2.188024521E-1,-5.396604538E-1,5.824077158E-1
3.573376673E0,-8.463561535E-3,-2.330212593E-1,-5.616464615E-1,6.081260452E-1
3.578359955E0,-5.175262690E-3,-2.181739807E-1,-5.623016357E-1,6.031664768E-1
3.583330267E0,-3.299978375E-2,-2.342333794E-1,-5.344896317E-1,5.844941643E-1
3.588313496E0,-1.085662842E-2,-2.474808693E-1,-4.928140640E-1,5.515708012E-1
3.593296778E0,-9.964108467E-4,-2.867512703E-1,-4.229679108E-1,5.110079622E-1
3.598280059E0,2.293956280E-2,-2.782869339E-1,-3.845281601E-1,4.752175786E-1
3.603263392E0,1.559996605E-2,-3.056282997E-1,-3.605976105E-1,4.729510051E-1
3.608246621E0,-1.097902656E-2,-2.948818207E-1,-3.391513824E-1,4.495547657E-1
3.613139538E0,-2.347204089E-2,-2.941269875E-1,-2.986488342E-1,4.198246630E-1
3.618122871E0,-5.498382449E-2,-3.484396935E-1,-2.178688049E-1,4.146085589E-1
3.623106101E0,-8.162972331E-2,-3.292007446E-1,-1.826000214E-1,3.852003502E-1
3.628089382E0,-9.382653236E-2,-3.059616089E-1,-1.686906815E-1,3.617630029E-1
3.633072715E0,-7.024258375E-2,-2.976083755E-1,-1.617889404E-1,3.459485901E-1
3.638055944E0,-4.207745194E-2,-2.995195389E-1,-2.258434296E-1,3.774754572E-1
3.643027090E0,2.556294203E-3,-3.113512993E-1,-2.986345291E-1,4.314264111E-1
3.648010319E0,1.838207245E-2,-3.304600716E-1,-4.704608917E-1,5.752175329E-1
3.652993601E0,-3.705471754E-3,-3.611927032E-1,-5.815248489E-1,6.845765475E-1
3.657976882E0,2.692201734E-2,-3.415827751E-1,-6.989068985E-1,7.783793677E-1
3.662960215E0,4.811361432E-2,-3.406496048E-1,-8.084602356E-1,8.786154026E-1
3.667943444E0,7.432171702E-2,-3.319082260E-1,-8.771018982E-1,9.407414777E-1
3.672874590E0,6.967040896E-2,-3.321003914E-1,-9.241456985E-1,9.844744324E-1
3.677856153E0,9.842377901E-2,-3.626918793E-1,-9.900646210E-1,1.058990365E0
3.682837715E0,1.006327271E-1,-3.638343811E-1,-1.010660172E0,1.078858835E0
3.687819278E0,7.660120726E-2,-3.928465843E-1,-1.005288124E0,1.082035303E0
3.692800840E0,7.422080636E-2,-4.164237976E-1,-9.645671844E-1,1.053236612E0
3.697782403E0,8.860522509E-2,-3.848214149E-1,-8.887434006E-1,9.725241588E-1
3.702725163E0,6.252771616E-2,-3.745884895E-1,-8.208255768E-1,9.044229538E-1
3.707706726E0,4.125526547E-2,-3.904104233E-1,-7.630548477E-1,8.581229493E-1
3.712688288E0,2.255785465E-2,-3.634381294E-1,-6.415739059E-1,7.377080774E-1
3.717669851E0,-2.956366539E-2,-3.676652908E-1,-6.065616608E-1,7.099076170E-1
3.722651413E0,-4.087027907E-2,-4.103012085E-1,-5.122194290E-1,6.575607994E-1
3.727632976E0,-7.827261090E-2,-4.243083000E-1,-4.066581726E-1,5.929038745E-1
3.732549642E0,-9.406390786E-2,-4.123239517E-1,-3.635988235E-1,5.577303689E-1
3.737531205E0,-5.988672376E-2,-3.794274330E-1,-3.753385544E-1,5.370573778E-1
3.742512767E0,-3.564569354E-2,-3.923263550E-1,-3.938922882E-1,5.570832245E-1
3.747494330E0,4.681766033E-3,-4.005613327E-1,-4.216775894E-1,5.816212596E-1
3.752475892E0,-2.926003933E-2,-4.089226723E-1,-4.609928131E-1,6.169183702E-1
3.757457455E0,-3.483018279E-2,-4.173541069E-1,-4.903879166E-1,6.448859596E-1
3.762395944E0,2.350637317E-2,-4.116072655E-1,-5.265760422E-1,6.687715744E-1
3.767377507E0,5.039906502E-2,-3.939428329E-1,-5.506277084E-1,6.789122879E-1
3.772359069E0,2.972918749E-2,-3.620777130E-1,-5.959157944E-1,6.979253032E-1
3.777340632E0,4.853069782E-3,-3.517222404E-1,-6.029062271E-1,6.980171956E-1
3.782322194E0,-1.491871476E-2,-3.413076401E-1,-5.932922363E-1,6.846233643E-1
3.787303757E0,2.028003335E-2,-3.761620522E-1,-6.241235733E-1,7.289989053E-1
3.792244330E0,5.441933870E-3,-3.843493462E-1,-6.667118073E-1,7.695834383E-1
3.797225892E0,5.033215880E-2,-3.588700294E-1,-7.067613602E-1,7.942497368E-1
3.802207455E0,7.376524806E-2,-3.643479347E-1,-7.441854477E-1,8.318670025E-1
3.807189017E0,1.064857244E-1,-3.337669373E-1,-7.719974518E-1,8.477733444E-1
3.812170580E0,1.270425618E-1,-3.481554985E-1,-7.665433884E-1,8.514345717E-1
3.817152142E0,1.498611569E-1,-3.504147530E-1,-7.588319778E-1,8.491612544E-1
3.822090944E0,1.033840477E-1,-3.525314331E-1,-7.298622131E-1,8.171080240E-1
3.827072507E0,5.467659235E-2,-3.331365585E-1,-7.130594254E-1,7.889380460E-1
3.832054069E0,-1.757618785E-2,-3.471579552E-1,-6.607570648E-1,7.466106528E-1
3.837035632E0,-5.153876543E-2,-3.229975700E-1,-6.374120712E-1,7.164341024E-1
3.842017194E0,-7.351920009E-2,-3.037762642E-1,-5.786275864E-1,6.576435016E-1
3.846998757E0,-8.815586567E-2,-2.918710709E-1,-5.298204422E-1,6.112854322E-1
3.851939278E0,-9.276103973E-2,-2.777462006E-1,-4.267692566E-1,5.175708268E-1
3.856920840E0,1.251703501E-2,-2.591114044E-1,-3.197832108E-1,4.117726289E-1
3.861902403E0,1.009629369E-1,-2.642912865E-1,-2.707786560E-1,3.916177719E-1
3.866883965E0,1.416706145E-1,-2.385520935E-1,-2.792139053E-1,3.936217337E-1
3.871865528E0,1.253712475E-1,-2.606472969E-1,-3.231658936E-1,4.336947750E-1
3.876847090E0,7.333689928E-2,-2.635102272E-1,-3.287563324E-1,4.276641986E-1
3.881790892E0,4.738557339E-2,-2.091693878E-1,-3.533716202E-1,4.133627067E-1
3.886772455E0,-3.456771374E-4,-2.052030563E-1,-3.753614426E-1,4.277904001E-1
3.891754017E0,-6.951683760E-2,-1.941418648E-1,-3.757696152E-1,4.286332442E-1
3.896735580E0,-4.347175360E-2,-1.901111603E-1,-3.857593536E-1,4.322526177E-1
3.901717142E0,-2.997380495E-2,-1.550946236E-1,-3.695878983E-1,4.019303245E-1
3.906698705E0,-4.948049784E-3,-1.654615402E-1,-3.535642624E-1,3.903968393E-1
3.911629903E0,2.002811432E-2,-1.616144180E-1,-2.877273560E-1,3.306166615E-1
3.916611465E0,5.443271995E-2,-1.555466652E-1,-1.843681335E-1,2.472838343E-1
3.921593028E0,8.423638344E-2,-1.997609138E-1,-1.102151871E-1,2.432027517E-1
3.926574590E0,7.849931717E-2,-1.679329872E-1,-1.006517410E-1,2.109369668E-1
3.931556153E0,3.969165683E-2,-1.698603630E-1,-1.480636597E-1,2.288030110E-1
3.936537715E0,-3.283202648E-3,-1.957607269E-1,-1.878433228E-1,2.713266583E-1
3.941473601E0,-5.099177361E-4,-2.333717346E-1,-2.082719803E-1,3.127936130E-1
3.946455215E0,-1.393252611E-2,-2.587270737E-1,-2.333335876E-1,3.486809101E-1
3.951436778E0,-3.273159266E-3,-2.124595642E-1,-2.891530991E-1,3.588304540E-1
3.956418340E0,3.376621008E-2,-2.138047218E-1,-3.470458984E-1,4.090152462E-1
3.961399903E0,5.377846956E-2,-2.386188507E-1,-3.903408051E-1,4.606484818E-1
3.966381465E0,5.200821161E-2,-2.058854103E-1,-4.429378510E-1,4.912103379E-1
3.971358653E0,3.341436386E-2,-2.062673569E-1,-4.572954178E-1,5.027741455E-1
3.976340215E0,3.844347596E-2,-1.636924744E-1,-4.692459106E-1,4.984624877E-1
3.981321778E0,4.307386279E-2,-1.070351601E-1,-4.597978592E-1,4.740526917E-1
3.986303340E0,2.386406064E-2,-1.007890701E-1,-3.886346817E-1,4.022000073E-1
3.991284903E0,-1.925376058E-2,-8.537817001E-2,-3.369045258E-1,3.480873435E-1
3.996266465E0,-7.591634989E-3,-4.434633255E-2,-2.568912506E-1,2.608013512E-1
4.001210788E0,-8.493065834E-4,-4.229545593E-2,-1.938428879E-1,1.984053732E-1
4.006192351E0,-3.574907780E-3,-7.892417908E-2,-1.286087036E-1,1.509370884E-1
4.011173913E0,8.260756731E-3,-8.721590042E-2,-8.981323242E-2,1.254642184E-1
4.016155476E0,-1.285377145E-2,-1.007618904E-1,-4.155826569E-2,1.097509337E-1
4.021137038E0,-4.925876856E-3,-1.051740646E-1,-5.347251892E-3,1.054250503E-1
4.026118601E0,1.502808928E-2,-7.909584045E-2,-2.386188507E-2,8.397252529E-2
4.031056934E0,-3.056466579E-3,-9.389972687E-2,-5.633544922E-2,1.095453492E-1
4.036038496E0,-1.173943281E-2,-5.623912811E-2,-1.194496155E-1,1.325475932E-1
4.041020059E0,-4.222810268E-3,-8.308172226E-2,-2.271280289E-1,2.418833318E-1
4.046001621E0,-2.578249574E-2,-9.291791916E-2,-3.315916061E-1,3.453280615E-1
4.050983184E0,-3.329366446E-2,-1.115961075E-1,-3.974609375E-1,4.141706848E-1
4.055964746E0,1.996785402E-3,-1.223282814E-1,-4.678773880E-1,4.836087735E-1
4.060907715E0,4.664263129E-2,-1.181035042E-1,-5.237789154E-1,5.389511341E-1
4.065889278E0,9.806239605E-2,-1.298651695E-1,-5.154294968E-1,5.405078741E-1
4.070870840E0,1.206905842E-1,-1.220960617E-1,-4.361114502E-1,4.686863156E-1
4.075852403E0,1.075716615E-1,-1.167259216E-1,-3.075933456E-1,3.461362007E-1
4.080833965E0,7.344749570E-2,-1.662349701E-1,-1.562995911E-1,2.397043222E-1
4.085815528E0,3.968685865E-3,-1.636309624E-1,-1.547527313E-2,1.644090216E-1
4.090753653E0,-6.500715017E-2,-1.995310783E-1,4.128170013E-2,2.138755703E-1
4.095735215E0,-9.996584058E-2,-2.404370308E-1,7.409000397E-2,2.707258092E-1
4.100716778E0,-7.052212954E-2,-2.292551994E-1,8.313751221E-2,2.538565799E-1
4.105698340E0,-1.293754578E-2,-1.756916046E-1,8.038616180E-2,1.936410469E-1
4.110679903E0,3.830790520E-3,-1.348819733E-1,8.988380432E-3,1.352353972E-1
4.115661465E0,6.077280641E-2,-1.350369453E-1,-9.494495392E-2,1.759058125E-1
4.120596986E0,8.598577976E-2,-9.936809540E-2,-1.434583664E-1,1.945453047E-1
4.125578548E0,7.024741173E-2,-8.767604828E-2,-2.676067352E-1,2.902329289E-1
4.130560111E0,5.188700557E-2,-1.233620644E-1,-3.195590973E-1,3.464512620E-1
4.135541673E0,-1.411497593E-2,-1.441197395E-1,-3.118734360E-1,3.438528347E-1
4.140523236E0,-4.633370042E-2,-1.264071465E-1,-3.162784576E-1,3.437406599E-1
4.145504798E0,-5.880257487E-2,-1.274180412E-1,-2.757539749E-1,3.094080715E-1
4.150450528E0,-4.211077094E-2,-9.967756271E-2,-2.095823288E-1,2.358679420E-1
4.155432090E0,-3.921610117E-2,-7.905912399E-2,-1.702413559E-1,1.917560089E-1
4.160413653E0,-6.922206283E-2,-7.747411728E-2,-1.455707550E-1,1.788428851E-1
4.165395215E0,-1.105471253E-1,-8.545017242E-2,-6.408309937E-2,1.537174112E-1
4.170376778E0,-1.206760406E-1,-8.645677567E-2,-3.541851044E-2,1.526170100E-1
4.175358340E0,-1.144023836E-1,-9.244203568E-2,-3.298759460E-2,1.507369123E-1
4.180301153E0,-8.746686578E-2,-1.083555222E-1,-8.731555939E-2,1.643635565E-1
4.185281361E0,-6.869468093E-2,-1.055574417E-1,-1.409358978E-1,1.890086241E-1
4.190261569E0,-7.890373468E-3,-1.149449348E-1,-1.844348907E-1,2.174645373E-1
4.195241778E0,1.900908351E-2,-1.196985245E-1,-2.250900269E-1,2.556454619E-1
4.200221986E0,2.924641967E-2,-7.932424545E-2,-2.368822098E-1,2.515171372E-1
4.205202194E0,3.738108277E-2,-6.071567535E-2,-2.461891174E-1,2.563061063E-1
4.210147090E0,6.937420368E-2,-3.516864777E-2,-1.912689209E-1,2.064786043E-1
4.215127298E0,2.543258667E-2,-4.324054718E-2,-1.438703537E-1,1.523654818E-1
4.220107507E0,1.777556539E-2,-5.623388290E-2,-1.015071869E-1,1.173964620E-1
4.225087715E0,3.147065639E-3,-1.073560715E-1,-5.938053131E-2,1.227243969E-1
4.230067923E0,-3.025180101E-2,-1.439275742E-1,-3.417301178E-2,1.509904394E-1
4.235048132E0,-3.462836146E-2,-1.684107780E-1,-6.139659882E-2,1.825674010E-1
4.239960059E0,-3.638094664E-2,-1.690545082E-1,-1.707458496E-2,1.737657661E-1
4.244940267E0,-9.801834822E-3,-2.052989006E-1,-1.826286316E-2,2.063425471E-1
4.249920476E0,-2.516835928E-3,-1.983923912E-1,-6.699466705E-2,2.094138505E-1
4.254900684E0,-7.354259491E-3,-1.509337425E-1,-2.033252716E-1,2.533303098E-1
4.259880892E0,-2.810299397E-3,-1.462602615E-1,-3.719615936E-1,3.996941193E-1
4.264861101E0,3.692668676E-2,-1.552634239E-1,-4.373483658E-1,4.655576270E-1
4.269845423E0,1.678082347E-2,-1.637239456E-1,-5.261831284E-1,5.513218760E-1
4.274825632E0,-1.740390062E-2,-1.620378494E-1,-5.243062973E-1,5.490503199E-1
4.279805840E0,-2.274951339E-2,-1.480622292E-1,-4.894132614E-1,5.118254629E-1
4.284786048E0,-2.313649654E-2,-1.578578949E-1,-4.311141968E-1,4.596888764E-1
4.289766257E0,-2.049595118E-3,-1.794419289E-1,-3.353013992E-1,3.803033460E-1
4.294746465E0,-6.962597370E-3,-1.559925079E-1,-2.330255508E-1,2.805049868E-1
4.299692403E0,-3.787231445E-2,-1.759686470E-1,-1.242341995E-1,2.187085121E-1
4.304672611E0,-4.035574198E-2,-1.962847710E-1,-3.032493591E-2,2.026718998E-1
4.309652819E0,-4.080474377E-2,-2.100009918E-1,4.180049896E-2,2.179741393E-1
4.314633028E0,-3.191441298E-2,-1.981315613E-1,7.804298401E-2,2.153261542E-1
4.319613236E0,1.251626015E-2,-1.582903862E-1,6.432628632E-2,1.713195092E-1
4.324593444E0,4.472160339E-2,-1.474275589E-1,1.278686523E-2,1.545911086E-1
4.329542663E0,5.552169681E-2,-1.389727592E-1,-1.025028229E-1,1.813916077E-1
4.334522871E0,-5.123019218E-5,-1.113142967E-1,-1.789741516E-1,2.107667484E-1
4.339503080E0,-4.539781809E-2,-9.291791916E-2,-2.859468460E-1,3.040728537E-1
4.344483288E0,-1.632219553E-2,-7.634305954E-2,-3.757858276E-1,3.838094124E-1
4.349463496E0,-4.668420553E-2,-4.485702515E-2,-3.679037094E-1,3.735568326E-1
4.354443705E0,-8.128362894E-2,-3.216791153E-2,-3.365879059E-1,3.477545417E-1
4.359391778E0,-8.949053288E-2,-2.585887909E-3,-2.938489914E-1,3.071847523E-1
4.364371986E0,-8.830758929E-2,3.227233887E-3,-2.444515228E-1,2.599330536E-1
4.369352194E0,-5.905291438E-2,-2.838611603E-3,-1.812191010E-1,1.906191674E-1
4.374332403E0,-4.954496026E-2,-5.645322800E-2,-1.445770264E-1,1.629238675E-1
4.379312611E0,-5.444124341E-2,-8.125400543E-2,-7.965755463E-2,1.261403520E-1
4.384292819E0,-5.696836114E-2,-9.192514420E-2,-4.361057281E-2,1.166083546E-1
4.389238392E0,-2.127411962E-2,-5.775117874E-2,4.203796387E-3,6.168840017E-2
4.394218601E0,-1.645448804E-2,-1.002101898E-1,9.018898010E-3,1.019518163E-1
4.399198809E0,1.951262355E-2,-1.022119522E-1,-1.695442200E-2,1.054299676E-1
4.404179017E0,3.871321678E-2,-7.601451874E-2,-6.916999817E-3,8.558484153E-2
4.409159226E0,3.176647425E-2,-7.407903671E-2,-5.858325958E-2,9.964341860E-2
4.414139434E0,1.767703891E-2,-1.269783974E-1,-7.883739471E-2,1.505035744E-1
4.419052611E0,-3.443095088E-2,-1.700935364E-1,-8.933353424E-2,1.951865309E-1
4.424032819E0,-5.547821522E-3,-1.795105934E-1,-1.639137268E-1,2.431512725E-1
4.429013028E0,-7.814198732E-3,-1.672744751E-1,-2.070922852E-1,2.663250388E-1
4.433993236E0,-2.957671881E-3,-1.595163345E-1,-2.358522415E-1,2.847463584E-1
4.438973444E0,1.834362745E-2,-1.419863701E-1,-2.502880096E-1,2.883413008E-1
4.443953653E0,1.329365373E-2,-1.504583359E-1,-2.362375259E-1,2.803972195E-1
4.448935788E0,6.033658981E-2,-1.514530182E-1,-2.081890106E-1,2.644261427E-1
4.453915996E0,9.981831908E-2,-1.380534172E-1,-1.828174591E-1,2.498893079E-1
4.458896205E0,9.823700786E-2,-1.390247345E-1,-1.671390533E-1,2.385662375E-1
4.463876413E0,1.155813336E-1,-1.305370331E-1,-1.515617371E-1,2.310193105E-1
4.468856621E0,6.386816502E-2,-8.425474167E-2,-1.289110184E-1,1.667214883E-1
4.473836830E0,3.249645233E-3,-8.144903183E-2,-1.086606979E-1,1.358368590E-1
4.478786882E0,-6.741344929E-3,-8.369302750E-2,-9.081935883E-2,1.236855874E-1
4.483767090E0,-4.590153694E-3,-6.947231293E-2,-1.181764603E-1,1.371610278E-1
4.488747298E0,4.687935114E-3,-9.341478348E-2,-1.547880173E-1,1.808525056E-1
4.493727507E0,-2.146431804E-2,-9.092903137E-2,-1.982851028E-1,2.191934938E-1
4.498707715E0,-1.872873306E-2,-4.574871063E-2,-2.152729034E-1,2.208758315E-1
4.503687923E0,1.013940573E-2,-5.772542953E-2,-2.464952469E-1,2.533672029E-1
4.508633965E0,3.184995055E-2,-9.046649933E-2,-2.991151810E-1,3.141154220E-1
4.513614173E0,4.176414013E-2,-1.272172928E-1,-2.874126434E-1,3.170717751E-1
4.518594382E0,2.328139544E-2,-1.463847160E-1,-2.999124527E-1,3.345414589E-1
4.523574590E0,1.222437620E-2,-1.744332314E-1,-2.507905960E-1,3.057324167E-1
4.528554798E0,1.786792278E-2,-1.805925369E-1,-1.784648895E-1,2.545243482E-1
4.533535007E0,3.541567922E-2,-1.699848175E-1,-1.139173508E-1,2.076686575E-1
4.538448913E0,2.657940984E-2,-1.737446785E-1,-1.021499634E-1,2.032936137E-1
4.543429121E0,1.773986220E-2,-1.586389542E-1,-1.212701797E-1,2.004681446E-1
4.548409330E0,-2.932041883E-2,-1.654534340E-1,-1.091184616E-1,2.003530994E-1
4.553389538E0,-7.384976745E-2,-1.607985497E-1,-1.086940765E-1,2.076640653E-1
4.558369746E0,-9.924045205E-2,-2.017831802E-1,-1.294002533E-1,2.594408308E-1
4.563349955E0,-7.705536485E-2,-1.501908302E-1,-9.270095825E-2,1.925831831E-1
4.568321257E0,-4.329738021E-2,-8.272123337E-2,-6.563758850E-2,1.141304456E-1
4.573301465E0,9.089410305E-3,-9.016990662E-3,-6.950473785E-2,7.067412599E-2
4.578281673E0,1.581051946E-2,2.326726913E-2,-5.411243439E-2,6.098765362E-2
4.583261882E0,-6.314456463E-3,4.317378998E-2,-1.004800797E-1,1.095449447E-1
4.588242090E0,-1.195687056E-2,6.291866302E-2,-1.488237381E-1,1.620192270E-1
4.593222298E0,-3.194823861E-2,6.121778488E-2,-1.207914352E-1,1.391361850E-1
4.598143132E0,-3.520390391E-2,5.973672867E-2,-9.309768677E-2,1.160817423E-1
4.603123340E0,-1.461955905E-2,7.511758804E-2,-8.950710297E-2,1.177620695E-1
4.608103548E0,2.738505602E-2,6.451892853E-2,-5.046749115E-2,8.636898225E-2
4.613083757E0,3.592687845E-2,2.815103531E-2,-6.416511536E-2,7.874251338E-2
4.618063965E0,4.463610053E-2,8.940696716E-3,-4.461956024E-2,6.374341287E-2
4.623044173E0,4.170084000E-2,-3.120946884E-2,-1.641273499E-3,5.211223254E-2
4.628027298E0,3.626078367E-3,-8.741950989E-2,-3.280544281E-2,9.344258254E-2
4.633007507E0,3.047689795E-2,-1.239690781E-1,1.218795776E-2,1.282408669E-1
4.637987715E0,5.508130789E-2,-1.624045372E-1,4.433631897E-3,1.715483642E-1
4.642967923E0,5.574995279E-2,-1.792821884E-1,-4.356670380E-2,1.927387299E-1
4.647948132E0,8.226665854E-2,-1.818208694E-1,-7.687473297E-2,2.138606000E-1
4.652928340E0,7.517006993E-2,-2.033553123E-1,-1.288948059E-1,2.522256796E-1
4.657875423E0,3.443074226E-2,-2.080931664E-1,-1.970844269E-1,2.886702500E-1
4.662855632E0,7.627606392E-3,-2.058901787E-1,-2.574329376E-1,3.297281660E-1
4.667835840E0,-4.548430443E-2,-2.107791901E-1,-3.030347824E-1,3.719230677E-1
4.672816048E0,-5.781993270E-2,-1.870188713E-1,-2.699155807E-1,3.334270888E-1
4.677796257E0,-5.107447505E-2,-1.469159126E-1,-1.918888092E-1,2.470105311E-1
4.682776465E0,-1.818668842E-2,-1.026706696E-1,-9.299373627E-2,1.397134818E-1
4.687689017E0,1.928332448E-2,-8.753919601E-2,-1.855754852E-2,9.153873524E-2
4.692668080E0,4.942125082E-2,-7.761001587E-2,2.453994751E-2,9.522596085E-2
4.697647142E0,2.949291468E-2,-8.472204208E-2,5.794429779E-2,1.067951220E-1
4.702626153E0,3.593090177E-2,-9.661769867E-2,5.310726166E-2,1.159585729E-1
4.707605215E0,2.100282907E-2,-7.543087006E-2,1.756763458E-2,8.024684898E-2
4.712584278E0,6.268441677E-3,-5.902957916E-2,-6.051349640E-2,8.476831851E-2
4.717535996E0,3.865838051E-3,-9.185314178E-3,-1.167459488E-1,1.171705221E-1
4.722515059E0,3.720813990E-2,7.268428802E-3,-9.426689148E-2,1.016047369E-1
4.727494121E0,2.050420642E-2,-1.419162750E-2,-1.101112366E-1,1.128995535E-1
4.732473132E0,3.988087177E-3,-5.904436111E-2,-1.069164276E-1,1.222017345E-1
4.737452194E0,-1.961055398E-2,-5.349731445E-2,-7.768535614E-2,9.634080672E-2
4.742431257E0,-1.001146436E-2,-6.444025040E-2,-1.366777420E-1,1.514383718E-1
4.747421569E0,2.046719193E-2,-7.757711411E-2,-1.952066422E-1,2.110515286E-1
4.752400632E0,5.984893441E-2,-9.532070160E-2,-2.128658295E-1,2.407899343E-1
4.757379642E0,6.294402480E-2,-7.253646851E-2,-1.685962677E-1,1.940314176E-1
4.762358705E0,4.917514324E-2,-4.044246674E-2,-1.223096848E-1,1.378892556E-1
4.767337767E0,4.768124223E-2,-2.049779892E-2,-7.641887665E-2,9.237697402E-2
4.772316830E0,2.756783366E-2,-6.266641617E-2,-3.558444977E-2,7.715774902E-2
4.777270319E0,8.936226368E-4,-8.082103729E-2,2.564430237E-3,8.086664908E-2
4.782249382E0,-3.457012773E-2,-7.991409302E-2,1.116886139E-1,1.416181573E-1
4.787228444E0,-5.047953129E-2,-5.795574188E-2,1.535425186E-1,1.717042694E-1
4.792207455E0,-8.754259348E-2,-3.185033798E-2,1.525030136E-1,1.787045575E-1
4.797186517E0,-1.055263281E-1,-1.816797256E-2,1.967887878E-1,2.240350601E-1
4.802165528E0,-1.262296736E-1,-3.123807907E-2,1.317167282E-1,1.850919895E-1
4.807119226E0,-1.402882040E-1,-5.876350403E-2,4.124736786E-2,1.575921157E-1
4.812098288E0,-1.238927543E-1,-6.007099152E-2,-3.174018860E-2,1.412988965E-1
4.817077351E0,-9.128576517E-2,-1.371574402E-2,-1.778211594E-1,2.003536305E-1
4.822056361E0,-5.901938677E-2,-4.096937180E-2,-3.015184402E-1,3.099599123E-1
4.827035423E0,-3.631418943E-2,-6.515073776E-2,-3.579244614E-1,3.656135378E-1
4.832014486E0,-6.132692099E-3,-5.778312683E-2,-3.666162491E-1,3.711926370E-1
4.836965632E0,1.481008530E-2,-2.378225327E-2,-3.090372086E-1,3.103045769E-1
4.841944694E0,6.217753887E-2,-6.576204300E-2,-2.069911957E-1,2.259115927E-1
4.846923757E0,7.638403773E-2,-1.003603935E-1,-6.063365936E-2,1.399398816E-1
4.851902767E0,5.959209800E-2,-1.324863434E-1,6.559848785E-2,1.593957682E-1
4.856881830E0,1.652902365E-2,-1.195831299E-1,1.102199554E-1,1.634679545E-1
4.861860840E0,2.583080530E-2,-1.261210442E-1,1.000137329E-1,1.630229893E-1
4.866813757E0,-8.786916733E-4,-1.140179634E-1,5.686759949E-2,1.274158230E-1
4.871792819E0,-2.301248908E-2,-1.093358994E-1,1.419925690E-2,1.126300690E-1
4.876771830E0,-2.590891719E-2,-8.559846878E-2,4.072952271E-2,9.827137868E-2
4.881750892E0,-1.925665140E-2,-8.343791962E-2,1.952457428E-2,8.782889077E-2
4.886729955E0,4.204362631E-3,-5.269908905E-2,1.031684875E-2,5.386379136E-2
4.891709017E0,8.560866117E-3,-2.692508698E-2,3.536224365E-3,2.847373562E-2
4.896663080E0,-8.379817009E-3,-6.527185440E-2,-5.557823181E-2,8.613696164E-2
4.901642142E0,-3.943371773E-2,-6.538629532E-2,-5.476093292E-2,9.396353273E-2
4.906621205E0,-9.645503759E-2,-8.445310593E-2,-6.822586060E-2,1.452262698E-1
4.911595528E0,-7.689228654E-2,-8.900880814E-2,-4.362583160E-2,1.254520021E-1
4.916574590E0,-9.529224038E-2,-5.314111710E-2,-6.200122833E-2,1.254939908E-1
4.921538757E0,-7.548362017E-2,-4.365539551E-2,-7.312393188E-2,1.138010540E-1
4.926517715E0,-4.170447588E-2,-5.567455292E-2,-1.126317978E-1,1.323814225E-1
4.931496726E0,-5.816793442E-2,-5.547094345E-2,-1.139240265E-1,1.394245960E-1
4.936469746E0,-4.596325755E-2,-6.700897217E-2,-1.461610794E-1,1.672300348E-1
4.941448809E0,-4.105603695E-2,-8.101606369E-2,-1.257658005E-1,1.551329666E-1
4.946427871E0,-1.252767444E-2,-3.309535980E-2,-1.055603027E-1,1.113338357E-1
4.951406882E0,-1.763051748E-2,-1.651096344E-2,-1.662569046E-1,1.680023970E-1
4.956385944E0,-3.717520833E-2,-2.149581909E-2,-1.765241623E-1,1.816723596E-1
4.961365007E0,-6.149640679E-2,-3.845167160E-2,-7.022476196E-2,1.009547240E-1
4.966311153E0,-6.422924995E-2,-6.732606888E-2,-5.101203918E-3,9.318915378E-2
4.971290215E0,-5.956503749E-2,-9.847354889E-2,2.628231049E-2,1.180499613E-1
4.976269278E0,-1.434677839E-2,-9.135007858E-2,2.758026123E-3,9.251093782E-2
4.981248288E0,-3.406703472E-4,-1.032438278E-1,1.978683472E-2,1.051233697E-1
4.986227351E0,2.549731731E-2,-7.237482071E-2,1.086235046E-3,7.674247696E-2
4.991206413E0,1.558214426E-2,-3.231143951E-2,-1.506042480E-2,3.890563890E-2
4.996121048E0,-2.030873299E-2,-7.091808319E-2,-1.447582245E-2,7.517558510E-2
5.001100111E0,-5.818250775E-2,-7.116413116E-2,-4.479885101E-2,1.022569060E-1
5.006079173E0,-9.351301193E-2,-6.654644012E-2,-8.917331696E-2,1.453443929E-1
5.011058184E0,-4.077371955E-2,-1.305708885E-1,-1.190681458E-1,1.813518030E-1
5.016037246E0,1.867502928E-2,-1.225614548E-1,-1.298332214E-1,1.795180556E-1
5.021016309E0,4.677075148E-2,-1.121516228E-1,-1.951951981E-1,2.299274995E-1
5.026007611E0,8.644247055E-2,-1.038842201E-1,-1.675310135E-1,2.152460740E-1
5.030986673E0,8.074435592E-2,-1.072888374E-1,-1.972570419E-1,2.386228955E-1
5.035965736E0,2.288049459E-2,-1.224541664E-1,-1.792726517E-1,2.183053447E-1
5.040944746E0,-1.791492105E-2,-1.184978485E-1,-9.966850281E-2,1.558733298E-1
5.045923809E0,-1.071995497E-2,-7.908058167E-2,7.845878601E-3,8.018861292E-2
5.050902871E0,1.117616892E-3,-3.556251526E-2,1.098833084E-1,1.155001430E-1
5.055856309E0,3.171712160E-3,-4.038619995E-2,1.210527420E-1,1.276513660E-1
5.060835371E0,-3.764376044E-2,-7.177162170E-2,1.608839035E-1,1.801439668E-1
5.065814434E0,-7.588326931E-2,-8.440446854E-2,1.483955383E-1,1.868251072E-1
5.070793444E0,-8.057084680E-2,-1.138839722E-1,1.124258041E-1,1.791669107E-1
5.075772507E0,-1.018016040E-1,-1.217851639E-1,8.390617371E-2,1.795423034E-1
5.080751569E0,-1.203401983E-1,-7.484292984E-2,1.278400421E-2,1.422907524E-1
5.085684486E0,-8.867400885E-2,-2.566909790E-2,-1.196470261E-1,1.511204595E-1
5.090663548E0,-6.658962369E-2,7.012844086E-3,-2.631435394E-1,2.715287836E-1
5.095642611E0,-8.477190137E-2,3.304338455E-2,-3.274564743E-1,3.398615646E-1
5.100621621E0,-8.079588413E-2,5.105495453E-3,-3.180837631E-1,3.282244984E-1
5.105600684E0,-4.052442312E-2,-3.140068054E-2,-2.117900848E-1,2.179065663E-1
5.110579746E0,-1.444762945E-2,-5.530357361E-2,-1.161212921E-1,1.294270981E-1
5.115551673E0,-1.914376020E-2,-7.412862778E-2,-5.458831787E-2,9.402883313E-2
5.120530736E0,-2.169883251E-2,-1.096124649E-1,5.167961121E-2,1.231117948E-1
5.125509798E0,-3.196176887E-2,-1.215147972E-1,1.288280487E-1,1.799557355E-1
5.130488809E0,-5.480578542E-2,-1.458973885E-1,1.178398132E-1,1.953866517E-1
5.135467871E0,-6.888610125E-2,-1.374278069E-1,1.049270630E-1,1.861219643E-1
5.140446934E0,-9.086373448E-2,-1.344699860E-1,1.043987274E-1,1.929701781E-1
5.145399069E0,-7.769477367E-2,-1.010575294E-1,3.284835815E-2,1.316363048E-1
5.150378132E0,-7.198619843E-2,-6.805849075E-2,-2.614784241E-2,1.024581895E-1
5.155357194E0,-2.587383986E-2,-1.408767700E-2,-7.033157349E-2,7.625253085E-2
5.160336205E0,5.103793740E-2,2.527666092E-2,-9.045600891E-2,1.068927977E-1
5.165315267E0,7.786363363E-2,2.868127823E-2,5.968093872E-3,8.319242338E-2
5.170294278E0,8.357921243E-2,4.145669937E-2,8.261585236E-2,1.246175017E-1
5.175249538E0,7.753804326E-2,5.384683609E-2,1.207542419E-1,1.532749714E-1
5.180228601E0,2.724468708E-3,2.555465698E-2,1.135396957E-1,1.164118797E-1
5.185207663E0,-6.429454684E-2,-9.717464447E-3,1.254329681E-1,1.412856941E-1
5.190186673E0,-8.793070912E-2,-1.622486115E-2,1.016101837E-1,1.353502315E-1
5.195165736E0,-6.388959289E-2,-1.548957825E-2,-5.188941956E-3,6.594491817E-2
5.200144798E0,-3.262308240E-2,-5.723381042E-2,-1.065092087E-1,1.252365206E-1
5.205098757E0,-6.019532681E-3,-3.886604309E-2,-2.024459839E-1,2.062308912E-1
5.210077819E0,6.808415055E-2,-5.345201492E-2,-2.717018127E-1,2.851568770E-1
5.215056882E0,1.063394547E-1,-1.125550270E-1,-3.382825851E-1,3.720373921E-1
5.220035892E0,1.232072711E-1,-1.325731277E-1,-3.143577576E-1,3.627347042E-1
5.225014955E0,1.260146499E-1,-1.521620750E-1,-3.287935257E-1,3.835859377E-1
5.229994017E0,1.004151404E-1,-1.664810181E-1,-3.076686859E-1,3.639493785E-1
5.234931726E0,4.180800915E-2,-1.755328178E-1,-2.370405197E-1,2.979058371E-1
5.239910788E0,-1.631981134E-2,-1.891107559E-1,-1.789560318E-1,2.608725274E-1
5.244889851E0,-6.702271104E-2,-1.740689278E-1,-1.047172546E-1,2.139105861E-1
5.249868861E0,-1.103402376E-1,-1.401925087E-1,-2.393913269E-2,1.800055266E-1
5.254847923E0,-1.133084297E-1,-1.211743355E-1,2.071952820E-2,1.671864787E-1
5.259826986E0,-1.240509450E-1,-1.334304810E-1,7.466125488E-2,1.968924407E-1
5.264795267E0,-1.426949799E-1,-9.852457047E-2,9.516906738E-2,1.978031842E-1
5.269774330E0,-1.593002379E-1,-9.520101547E-2,7.535934448E-2,2.002968545E-1
5.274753392E0,-1.309608221E-1,-5.649614334E-2,7.009792328E-2,1.589222136E-1
5.279732403E0,-8.634781837E-2,-6.462097168E-3,5.787658691E-2,1.041508701E-1
5.284711413E0,-2.762299776E-2,2.872037888E-2,6.959819794E-2,8.019849951E-2
5.289690528E0,3.375342488E-2,6.132841110E-2,6.688404083E-2,9.681912320E-2
5.294645215E0,1.915881038E-2,7.247209549E-2,5.694198608E-2,9.413636077E-2
5.299624278E0,2.184754610E-2,5.054473877E-2,4.691505432E-2,7.234022539E-2
5.304603340E0,-1.538336277E-2,4.566287994E-2,7.721042633E-2,9.101206727E-2
5.309582351E0,-6.797015667E-3,3.141307831E-2,1.570749283E-1,1.603293922E-1
5.314561413E0,5.416759849E-2,3.153085709E-2,1.958827972E-1,2.056657335E-1
5.319540476E0,6.464901567E-2,2.947330475E-3,1.893386841E-1,2.000932764E-1
5.324491986E0,8.435630798E-2,-8.870601654E-3,1.472768784E-1,1.699563272E-1
5.329471048E0,5.125400424E-2,-5.632638931E-2,8.900833130E-2,1.171414449E-1
5.334450111E0,3.720307350E-2,-9.631490707E-2,2.413749695E-2,1.060341868E-1
5.339429121E0,1.127612591E-2,-1.098413467E-1,-1.880741119E-2,1.120088889E-1
5.344408184E0,-3.805074096E-2,-9.693813324E-2,-8.525276184E-2,1.345841520E-1
5.349387246E0,-2.753528953E-2,-7.700729370E-2,-1.273937225E-1,1.513851908E-1
5.354342351E0,-4.594480991E-2,-8.112955093E-2,-1.097126007E-1,1.439784163E-1
5.359321413E0,-5.975118279E-2,-6.886482239E-2,-8.489608765E-2,1.245789441E-1
5.364300476E0,-4.530969262E-2,-3.797292709E-2,-8.150672913E-2,1.006889186E-1
5.369279486E0,-8.597531915E-2,-5.764102936E-2,-5.653285980E-2,1.179415449E-1
5.374258548E0,-6.943035126E-2,-5.846214294E-2,-4.584789276E-2,1.016878808E-1
5.379237611E0,-5.791723728E-2,-5.223417282E-2,2.806663513E-3,7.804288914E-2
5.384190580E0,-1.775756478E-2,-4.129934311E-2,-2.022361755E-2,4.929464023E-2
5.389169642E0,4.623910785E-2,-2.795267105E-2,-4.789924622E-2,7.220626497E-2
5.394148705E0,7.926654816E-2,-1.221275330E-2,-1.063117981E-1,1.331710757E-1
5.399127715E0,7.657524943E-2,1.088666916E-2,-1.335525513E-1,1.543326678E-1
5.404106778E0,6.694522500E-2,-2.038574219E-2,-1.631889343E-1,1.775608907E-1
5.409085840E0,4.095426202E-2,-8.316993713E-3,-1.499929428E-1,1.557058344E-1
5.413989955E0,3.444984555E-2,-1.736688614E-2,-1.157274246E-1,1.219886774E-1
5.418969017E0,2.587467432E-2,-3.081703186E-2,-7.240104675E-2,8.283175596E-2
5.423948080E0,4.115039110E-2,-3.903436661E-2,-1.175231934E-1,1.304942046E-1
5.428927090E0,5.620577931E-2,-4.439020157E-2,-1.173477173E-1,1.374775123E-1
5.433906153E0,5.923739076E-2,-6.615018845E-2,-1.077632904E-1,1.396346757E-1
5.438885215E0,2.880027890E-2,-6.388044357E-2,-1.078004837E-1,1.285733698E-1
5.443877559E0,3.113210201E-3,-4.960584641E-2,-1.055259705E-1,1.166454565E-1
5.448855684E0,1.324698329E-2,-7.593011856E-2,-8.197784424E-3,7.751173550E-2
5.453833809E0,9.178459644E-3,-4.776048660E-2,8.137512207E-2,9.480094247E-2
5.458811986E0,4.838407040E-4,-3.677511215E-2,1.988725662E-1,2.022447541E-1
5.463790163E0,-4.617625475E-2,-2.404880524E-2,2.800388336E-1,2.848373920E-1
5.468768340E0,-9.251955152E-2,-6.908464432E-2,3.062295914E-1,3.272752941E-1
5.473735476E0,-1.173592508E-1,-1.118650436E-1,3.253440857E-1,3.635048223E-1
5.478713653E0,-7.806283236E-2,-9.559297562E-2,2.900295258E-1,3.151966824E-1
5.483691830E0,3.385335207E-3,-7.749557495E-2,2.291049957E-1,2.418803913E-1
5.488669955E0,7.912310958E-2,-6.452846527E-2,1.593170166E-1,1.892255297E-1
5.493648080E0,1.185328662E-1,-4.693317413E-2,1.043739319E-1,1.647624984E-1
5.498626257E0,1.435107291E-1,-4.357576370E-2,-1.434040070E-2,1.506646064E-1
5.503584226E0,1.328368485E-1,-2.082633972E-2,-1.109085083E-1,1.742987721E-1
5.508562403E0,9.892019629E-2,-3.107643127E-2,-1.594114304E-1,1.901655961E-1
5.513540528E0,3.711035848E-2,-3.832054138E-2,-1.816778183E-1,1.893474908E-1
5.518518705E0,-1.447236538E-2,1.457881927E-2,-1.518669128E-1,1.532499610E-1
5.523496830E0,-8.940482140E-2,3.415393829E-2,-1.628808975E-1,1.889177079E-1
5.528475007E0,-1.117333770E-1,2.758264542E-2,-1.287326813E-1,1.726767300E-1
5.533430319E0,-1.247484386E-1,3.787946701E-2,-4.268646240E-2,1.371829473E-1
5.538408496E0,-1.024198532E-1,5.271720886E-2,2.134609222E-2,1.171519786E-1
5.543386621E0,-5.917796493E-2,3.110408783E-3,6.594562531E-2,8.865963948E-2
5.548364798E0,-1.862561703E-2,-1.324319839E-2,8.188247681E-2,8.501197516E-2
5.553342923E0,-4.309952259E-3,-2.265930176E-2,1.025962830E-1,1.051571059E-1
5.558321101E0,1.987895370E-2,-3.945493698E-2,1.185379028E-1,1.265033567E-1
5.563248496E0,6.104111671E-2,-3.979635239E-2,1.202325821E-1,1.405903318E-1
5.568226621E0,7.380586863E-2,-7.164478302E-3,1.054124832E-1,1.288814479E-1
5.573204746E0,3.447961807E-2,1.076030731E-2,5.516719818E-2,6.593973029E-2
5.578182923E0,-9.342223406E-3,-2.573013306E-3,2.208995819E-2,2.412185292E-2
5.583161101E0,-4.344147444E-2,-4.675769806E-2,1.071739197E-2,6.471712694E-2
5.588139226E0,-6.098261476E-2,-7.639980316E-2,-1.950836182E-2,9.968141956E-2
5.593093132E0,-1.047247052E-1,-1.033596992E-1,-1.624679565E-2,1.480352988E-1
5.598071257E0,-1.283177733E-2,-9.661197662E-2,-2.737712860E-2,1.012325822E-1
5.603049434E0,9.248346090E-2,-8.247804642E-2,-7.183170319E-2,1.432327206E-1
5.608027559E0,1.136897504E-1,-7.047796249E-2,-1.089735031E-1,1.725332633E-1
5.613005736E0,1.108560860E-1,-3.665828705E-2,-1.579589844E-1,1.964279577E-1
5.617983861E0,8.876857162E-2,-2.889204025E-2,-1.663274765E-1,1.907339475E-1
5.622940059E0,7.853657007E-2,-4.239320755E-2,-1.699581146E-1,1.919659803E-1
5.627918236E0,3.243184090E-2,-7.236146927E-2,-1.213092804E-1,1.449273889E-1
5.632896361E0,-1.347619295E-2,-4.273414612E-2,-8.253765106E-2,9.391633971E-2
5.637874590E0,-2.334818244E-2,-3.258466721E-2,-6.060123444E-2,7.265953327E-2
5.642852715E0,-3.537786007E-2,-4.412364960E-2,-5.298995972E-2,7.750113075E-2
5.647830840E0,-3.752842546E-2,-3.949069977E-2,2.610015869E-2,6.040791644E-2
5.652825840E0,-3.225895762E-2,-3.745174408E-2,2.384376526E-2,5.487985626E-2
5.657804017E0,-4.785889387E-2,-6.178665161E-2,3.357791901E-2,8.506198143E-2
5.662782142E0,-5.108174682E-2,-5.750131607E-2,2.663326263E-2,8.139457529E-2
5.667760319E0,-4.922416806E-2,-7.938385010E-2,7.857322693E-3,9.373660916E-2
5.672738444E0,-4.018867016E-2,-5.594348907E-2,8.235931396E-3,6.937314859E-2
5.677716621E0,-1.711264253E-2,-5.161333084E-2,6.558418274E-2,8.519426906E-2
5.682671257E0,-4.675018787E-2,-5.663442612E-2,4.872798920E-2,8.813316753E-2
5.687649434E0,-4.308587313E-2,-9.231519699E-2,4.855442047E-2,1.128539756E-1
5.692627559E0,-5.400410295E-2,-1.131258011E-1,7.190704346E-4,1.253571181E-1
5.697605736E0,-2.705478668E-2,-9.543037415E-2,-6.350517273E-2,1.177787110E-1
5.702583861E0,-5.170345306E-3,-8.939695358E-2,-1.178779602E-1,1.480329736E-1
5.707562038E0,-1.928159595E-2,-4.742050171E-2,-1.292171478E-1,1.389876081E-1
5.712520111E0,-2.155712247E-2,-1.507377625E-2,-1.144409180E-1,1.174250909E-1
5.717498288E0,-3.333309293E-2,-2.102851868E-3,-5.697345734E-2,6.604159228E-2
5.722476413E0,-3.101745248E-2,2.963447571E-2,2.384757996E-2,4.908147898E-2
5.727454590E0,-6.908482313E-2,2.972078323E-2,1.137599945E-1,1.363721896E-1
5.732432715E0,-9.966197610E-2,2.897119522E-2,2.247333527E-1,2.475417529E-1
5.737410892E0,-1.061397195E-1,5.814266205E-2,3.020238876E-1,3.253684648E-1
5.742371673E0,-1.076079905E-1,2.933359146E-2,3.030214310E-1,3.228961549E-1
5.747349851E0,-8.761709929E-2,1.669454575E-2,2.402315140E-1,2.562550375E-1
5.752327976E0,-4.865273833E-2,3.749847412E-3,1.757984161E-1,1.824451518E-1
5.757306153E0,-1.218247414E-2,-6.937980652E-3,8.588123322E-2,8.701801233E-2
5.762284278E0,5.209684372E-3,-3.139495850E-3,-6.038093567E-2,6.068652765E-2
5.767262507E0,5.352637172E-2,-1.078987122E-2,-1.605358124E-1,1.695678060E-1
5.772219486E0,9.468558431E-2,-3.380775452E-3,-2.460021973E-1,2.636169012E-1
5.777197663E0,6.447660923E-2,-1.189041138E-2,-2.694044113E-1,2.772676538E-1
5.782175788E0,5.620744824E-2,-1.238059998E-2,-2.859268188E-1,2.916619657E-1
5.787153965E0,4.800897837E-2,-5.484247208E-2,-3.241014481E-1,3.321961881E-1
5.792132090E0,3.040045500E-2,-7.725286484E-2,-3.005561829E-1,3.118111798E-1
5.797110267E0,4.370748997E-2,-8.462667465E-2,-2.513837814E-1,2.688230353E-1
5.802032871E0,5.439335108E-2,-9.391689301E-2,-1.220541000E-1,1.633285730E-1
5.807010996E0,8.867201209E-2,-9.598445892E-2,-4.369354248E-2,1.377855861E-1
5.811989121E0,8.193415403E-2,-1.242609024E-1,6.020736694E-2,1.605581032E-1
5.816967298E0,4.635089636E-2,-1.265392303E-1,1.040620804E-1,1.702630288E-1
5.821945476E0,4.897788167E-2,-1.197094917E-1,1.501464844E-1,1.981745747E-1
5.826923601E0,-2.921283245E-3,-1.133890152E-1,2.008285522E-1,2.306462878E-1
5.831880059E0,-1.606348157E-2,-1.124672890E-1,2.395095825E-1,2.650882243E-1
5.836858236E0,1.387053728E-2,-1.002659798E-1,2.686643600E-1,2.870996288E-1
5.841836361E0,3.912886977E-2,-1.028833389E-1,2.859277725E-1,3.063833236E-1
5.846814590E0,2.614620328E-2,-6.085538864E-2,2.391748428E-1,2.481765656E-1
5.851792715E0,3.445029259E-3,-4.819536209E-2,1.907138824E-1,1.967395388E-1
5.856770840E0,-1.706245542E-2,-3.605794907E-2,1.333875656E-1,1.392248029E-1
5.861765476E0,-4.496380687E-2,-3.609514236E-2,9.803771973E-2,1.137365276E-1
5.866743653E0,-9.210418165E-2,-4.324579239E-2,3.448772430E-2,1.074373397E-1
5.871721830E0,-1.295853108E-1,-1.441860199E-2,-6.192779541E-2,1.443443823E-1
5.876699955E0,-1.265311539E-1,-1.154661179E-2,-1.221179962E-1,1.762278700E-1
5.881678080E0,-9.483660758E-2,-1.287460327E-3,-1.368255615E-1,1.664838550E-1
5.886656309E0,-1.580262184E-2,2.830791473E-2,-2.015171051E-1,2.041083157E-1
5.891615059E0,8.078604937E-3,3.426885605E-2,-2.207317352E-1,2.235220734E-1
5.896593236E0,1.054635644E-2,7.377147675E-3,-2.424049377E-1,2.427463734E-1
5.901571361E0,2.755314112E-2,-2.610158920E-2,-2.426939011E-1,2.456436406E-1
5.906549538E0,-2.424299717E-2,-5.445384979E-2,-1.860275269E-1,1.953437622E-1
5.911527663E0,-2.094814181E-2,-3.738641739E-2,-1.346101761E-1,1.412673648E-1
5.916505840E0,1.323431730E-3,-3.257036209E-2,-1.096305847E-1,1.143741451E-1
5.921464590E0,-6.999075413E-4,-5.647611618E-2,-5.862331390E-2,8.140475725E-2
5.926442715E0,2.090936899E-2,-8.278703690E-2,-1.124401093E-1,1.411866614E-1
5.931420840E0,7.065775990E-2,-7.324218750E-2,-8.978557587E-2,1.357143570E-1
5.936399017E0,6.992238760E-2,-9.708452225E-2,-4.590702057E-2,1.281483487E-1
5.941377142E0,7.415351272E-2,-7.559490204E-2,-6.654167175E-2,1.250644903E-1
5.946355319E0,7.380756736E-2,-2.335739136E-2,-3.714847565E-2,8.586695507E-2
5.951308444E0,4.756882787E-2,-4.725694656E-2,-3.192996979E-2,7.426665035E-2
5.956285944E0,2.164590359E-2,-5.414915085E-2,-1.022434235E-2,5.920483811E-2
5.961263444E0,1.032879949E-2,-8.226776123E-2,1.038923264E-1,1.329220979E-1
5.966240892E0,-1.747438312E-2,-5.318880081E-2,2.099552155E-1,2.172914980E-1
5.971218392E0,1.408714056E-2,-4.111814499E-2,2.487001419E-1,2.524696219E-1
5.976195840E0,-2.378493547E-3,-6.268405914E-2,2.587728500E-1,2.662674152E-1
5.981158496E0,-2.864718437E-2,-9.156703949E-2,2.048301697E-1,2.261870516E-1
5.986135996E0,-2.665397525E-2,-9.184455872E-2,8.253860474E-2,1.263268722E-1
5.991113496E0,-1.056304574E-2,-5.415773392E-2,1.355743408E-2,5.681938135E-2
5.996090944E0,1.727163792E-2,-4.044771194E-2,4.489898682E-3,4.420956987E-2
6.001068444E0,3.807613254E-2,1.925468445E-3,-6.879520416E-2,7.865290467E-2
6.006045944E0,6.380236149E-2,2.513170242E-2,-1.178264618E-1,1.363283496E-1
6.010973080E0,6.823414564E-2,-1.352453232E-2,-1.261253357E-1,1.440361479E-1
6.015950528E0,1.568883657E-2,-6.637096405E-3,-1.225252151E-1,1.237037550E-1
6.020928028E0,2.774080634E-2,-3.780984879E-2,-8.570194244E-2,9.769319291E-2
6.025905528E0,2.055147290E-2,-8.316469193E-2,-3.245258331E-2,9.160730967E-2
6.030883028E0,2.033504844E-2,-9.743595123E-2,-3.302574158E-3,9.959008878E-2
6.035860476E0,-1.400321722E-3,-8.801412582E-2,-5.175590515E-3,8.817728723E-2
6.040855840E0,-1.458227634E-3,-8.361244202E-2,1.888275146E-4,8.362537022E-2
6.045833340E0,8.030861616E-3,-6.023550034E-2,-6.375312805E-3,6.110200367E-2
6.050810840E0,1.522609591E-2,-6.784105301E-2,-1.531505585E-2,7.119545917E-2
6.055788288E0,-8.357673883E-3,-7.296371460E-2,-4.558944702E-2,8.644045373E-2
6.060765788E0,-4.140999913E-2,-6.849288940E-2,-7.325649261E-2,1.085015098E-1
6.065743288E0,-8.625169098E-2,-7.332754135E-2,-1.649484634E-1,2.000606861E-1
6.070704017E0,-7.371109724E-2,-8.975934982E-2,-1.728563309E-1,2.082531581E-1
6.075681517E0,-8.848249912E-3,-9.395170212E-2,-1.499404907E-1,1.771647951E-1
6.080659017E0,5.801472068E-2,-5.740690231E-2,-1.250133514E-1,1.492970137E-1
6.085636465E0,6.265336275E-2,9.846210480E-3,-7.423496246E-2,9.763821678E-2
6.090613965E0,5.286830664E-2,-1.607084274E-2,-1.914405823E-2,5.847926811E-2
6.095591413E0,1.762807369E-4,-2.999019623E-2,5.217647552E-2,6.018162130E-2
6.100552871E0,-4.748341441E-2,-2.740049362E-2,8.977508545E-2,1.051904352E-1
6.105530371E0,-4.521012306E-2,-4.648494720E-2,7.495498657E-2,9.911132910E-2
6.110507871E0,-2.914488316E-2,-5.129098892E-2,4.846572876E-2,7.634865174E-2
6.115485319E0,-1.558905840E-2,1.050472260E-2,-3.956794739E-3,1.921000164E-2
6.120462819E0,1.925563812E-2,6.594657898E-4,-3.938770294E-2,4.384752716E-2
6.125440319E0,4.700687528E-2,-2.088832855E-2,-6.270694733E-2,8.110567080E-2
6.130400007E0,3.631174564E-3,-1.598739624E-2,-7.641696930E-2,7.815584088E-2
6.135377455E0,-2.464663982E-2,-2.756929398E-2,-4.024124146E-2,5.465235895E-2
6.140355007E0,-4.755073786E-2,-2.241754532E-2,1.699161530E-2,5.524793208E-2
6.145332455E0,-8.415213227E-2,-4.352521896E-2,8.090686798E-2,1.245871074E-1
6.150309955E0,-1.178463846E-1,-3.608131409E-2,1.110916138E-1,1.659246162E-1
6.155287455E0,-9.681160748E-2,-5.030345917E-2,1.459007263E-1,1.821810838E-1
6.160252507E0,-1.167866439E-1,-8.134222031E-2,1.568422318E-1,2.117903743E-1
6.165230007E0,-1.016119570E-1,-1.052217484E-1,1.345767975E-1,1.987649882E-1
6.170207507E0,-8.020304143E-2,-1.266150475E-1,6.743717194E-2,1.643522749E-1
6.175184955E0,-1.436549425E-2,-1.099643707E-1,-1.567745209E-2,1.120013962E-1
6.180162455E0,6.476742029E-2,-1.241598129E-1,-1.029262543E-1,1.737938195E-1
6.185139955E0,1.383625269E-1,-1.047654152E-1,-1.634235382E-1,2.383846344E-1
6.190098496E0,9.514346719E-2,-9.961318970E-2,-1.950092316E-1,2.387544079E-1
6.195075996E0,5.234891176E-2,-6.572437286E-2,-2.027206421E-1,2.194442081E-1
6.200053496E0,-8.976399899E-3,-3.435659409E-2,-1.249237061E-1,1.298725670E-1
6.205030944E0,-5.779841542E-2,3.785610199E-3,-4.298114777E-2,7.212743398E-2
6.210008444E0,-1.347024590E-1,1.049995422E-3,2.886867523E-2,1.377652182E-1
6.214985892E0,-1.921791732E-1,1.242160797E-2,7.170963287E-2,2.054979377E-1
6.219945059E0,-1.990857124E-1,3.065633774E-2,6.676387787E-2,2.122082640E-1
6.224922559E0,-1.106700599E-1,3.216266632E-2,8.795356750E-2,1.449763060E-1
6.229900059E0,-8.692422509E-2,3.142118454E-2,6.612491608E-2,1.136468929E-1
6.234877507E0,-4.391026497E-2,2.854108810E-2,2.058410645E-2,5.627086740E-2
6.239855007E0,1.807501912E-2,-2.501487732E-3,6.124496460E-3,1.924768074E-2
6.244832507E0,4.668447375E-2,3.781318665E-4,-6.068229675E-3,4.707872646E-2
6.249790580E0,6.098988652E-2,-4.871416092E-2,2.680492401E-2,8.253084080E-2
6.254768080E0,4.436632991E-2,-5.901861191E-2,4.257869720E-2,8.523211388E-2
6.259745580E0,2.089554071E-2,-7.622814178E-2,7.714843750E-2,1.104501455E-1
6.264723080E0,-1.679766178E-2,-1.148080826E-1,1.138830185E-1,1.625804391E-1
6.269700528E0,-7.096818089E-2,-6.791400909E-2,1.695146561E-1,1.959183859E-1
6.274678028E0,-7.507807016E-2,-8.820343018E-2,1.749515533E-1,2.098204178E-1
6.279644434E0,-7.717129588E-2,-1.017498970E-1,1.640195847E-1,2.078722555E-1
6.284621934E0,-8.676844835E-2,-6.105279922E-2,1.344537735E-1,1.712717873E-1
6.289599434E0,-1.249728054E-1,-4.482650757E-2,1.005878448E-1,1.665699024E-1
6.294576882E0,-1.059583575E-1,-1.723384857E-2,5.770301819E-2,1.218762379E-1
6.299554382E0,-1.016792208E-1,2.415132523E-2,8.182334900E-2,1.327290883E-1
6.304531882E0,-8.112621307E-2,5.545186996E-2,3.936576843E-2,1.058585663E-1
6.309491465E0,-9.902331233E-2,9.353160858E-2,-3.593921661E-2,1.408737217E-1
6.314468965E0,-1.288184673E-1,9.095144272E-2,-1.560974121E-2,1.584614352E-1
6.319446465E0,-1.086219251E-1,1.074509621E-1,1.403045654E-2,1.534316968E-1
6.324423913E0,-1.169636250E-1,7.164716721E-2,1.723861694E-2,1.382424538E-1
6.329401413E0,-9.392052889E-2,4.327774048E-2,3.940296173E-2,1.106644566E-1
6.334378913E0,-5.379626155E-2,2.488136292E-2,3.747844696E-2,7.012669936E-2
6.339339642E0,-8.723437786E-3,1.940727234E-3,3.077125549E-2,3.204270515E-2
6.344317142E0,3.643625975E-2,-3.726100922E-2,-5.438518524E-2,7.532418075E-2
6.349294642E0,7.669708133E-2,-7.827711105E-2,-1.104564667E-1,1.555968490E-1
6.354272090E0,7.393068075E-2,-9.477853775E-2,-1.472787857E-1,1.901045962E-1
6.359249590E0,7.144486904E-2,-1.298747063E-1,-1.815710068E-1,2.343924895E-1
6.364227038E0,5.460742116E-2,-1.381731033E-1,-1.635084152E-1,2.209270893E-1
6.369189434E0,7.573366165E-2,-1.675519943E-1,-1.504611969E-1,2.375875209E-1
6.374166934E0,3.718188405E-2,-1.561646461E-1,-1.660966873E-1,2.309935037E-1
6.379144382E0,5.706459284E-3,-1.447763443E-1,-1.222486496E-1,1.895718488E-1
6.384121882E0,4.933595657E-3,-1.760983467E-1,-6.932258606E-2,1.893161087E-1
6.389099382E0,2.061390877E-2,-1.503810883E-1,-7.205963135E-3,1.519583194E-1
6.394076882E0,3.129836917E-2,-1.298608780E-1,3.314208984E-2,1.376293343E-1
6.399037194E0,3.693592548E-2,-1.121129990E-1,1.231660843E-1,1.705973958E-1
6.404014642E0,4.504081607E-2,-9.703397751E-2,1.958827972E-1,2.231912591E-1
6.408992194E0,2.713406086E-2,-3.736448288E-2,2.230691910E-1,2.277986519E-1
6.413969642E0,-3.352177143E-2,-2.378940582E-2,2.383995056E-1,2.419172777E-1
6.418947142E0,-1.009177566E-1,2.023696899E-2,2.347688675E-1,2.563403005E-1
6.423924642E0,-1.227822006E-1,1.835155487E-2,2.598981857E-1,2.880265878E-1
6.428885996E0,-1.302555203E-1,1.621437073E-2,2.303228378E-1,2.651000114E-1
6.433863496E0,-7.833138108E-2,2.587795258E-2,1.725416183E-1,1.912487484E-1
6.438840996E0,-3.864982724E-2,3.299522400E-2,1.105346680E-1,1.216569224E-1
6.443818444E0,-4.182553291E-2,4.493856430E-2,3.708744049E-2,7.172397094E-2
6.448795944E0,-2.103251219E-2,4.033422470E-2,-4.060077667E-2,6.097244720E-2
6.453773444E0,2.380698919E-3,1.484680176E-2,-1.297769547E-1,1.306451423E-1
6.458736517E0,5.452582240E-2,2.104902267E-2,-1.116418839E-1,1.260160184E-1
6.463713496E0,6.641072035E-2,3.948354721E-2,-1.033964157E-1,1.290742153E-1
6.468690423E0,6.208282709E-2,1.773738861E-2,-1.358127594E-1,1.503795132E-1
6.473667351E0,4.608082771E-2,3.567218781E-3,-1.467275620E-1,1.538347983E-1
6.478644330E0,3.738790751E-3,-1.990032196E-2,-1.076965332E-1,1.095835053E-1
6.483621257E0,-4.111421108E-2,-7.414102554E-2,-1.330642700E-1,1.577763290E-1
6.488549330E0,-8.379814029E-2,-9.959888458E-2,-1.248474121E-1,1.803578178E-1
6.493526309E0,-7.889747620E-2,-1.295909882E-1,-1.000595093E-1,1.817430641E-1
6.498503288E0,-2.899950743E-2,-9.299564362E-2,-1.836967468E-2,9.912923943E-2
6.503480163E0,-3.110051155E-3,-8.539819717E-2,-6.159782410E-3,8.567652781E-2
6.508457142E0,2.969029546E-2,-4.940319061E-2,-1.303005219E-2,5.909290268E-2
6.513434121E0,3.126490116E-2,-4.943180084E-2,-7.915496826E-3,5.902247088E-2
6.518430736E0,2.320513129E-2,-4.005002975E-2,-1.229286194E-2,4.789151758E-2
6.523407715E0,-8.518397808E-3,-2.361583710E-2,2.849960327E-2,3.798023499E-2
6.528384642E0,-2.577289939E-2,2.048969269E-3,1.212854385E-1,1.240104762E-1
6.533361569E0,-3.559693694E-2,-1.143455505E-3,2.109889984E-1,2.139738462E-1
6.538338548E0,-7.400989532E-3,-6.775379181E-3,2.358560562E-1,2.360693959E-1
6.543315476E0,4.436138272E-2,8.974075317E-3,1.868953705E-1,1.922975450E-1
6.548279434E0,6.469798088E-2,2.440834045E-2,1.241922379E-1,1.421453754E-1
6.553256413E0,1.013535261E-1,-7.707595825E-3,5.484390259E-2,1.154980430E-1
6.558233340E0,1.284396350E-1,-5.582666397E-2,-1.887702942E-2,1.413141836E-1
6.563210267E0,1.224358976E-1,-6.293249130E-2,-6.123828888E-2,1.506690927E-1
6.568187246E0,1.146434844E-1,-4.362630844E-2,-1.033849716E-1,1.604208080E-1
6.573164173E0,1.049169898E-1,-4.312801361E-2,-1.192541122E-1,1.645877990E-1
6.578129694E0,7.398450375E-2,-5.675315857E-2,-1.445674896E-1,1.720301917E-1
6.583106673E0,4.072970152E-2,-7.264232635E-2,-1.435298920E-1,1.659416947E-1
6.588083601E0,-2.005100250E-3,-4.568290710E-2,-1.590948105E-1,1.655358183E-1
6.593060528E0,-5.889436603E-2,-6.170225143E-2,-1.578941345E-1,1.794610596E-1
6.598037507E0,-8.710902929E-2,-1.109743118E-1,-1.233654022E-1,1.874094537E-1
6.603014434E0,-1.152342558E-1,-8.632040024E-2,-9.617805481E-2,1.731483856E-1
6.607977090E0,-6.964701414E-2,-5.958318710E-2,-7.391643524E-2,1.177476206E-1
6.612954069E0,-1.740163565E-2,-8.072566986E-2,-6.126117706E-2,1.028220916E-1
6.617930996E0,2.253314853E-2,-7.570266724E-2,-6.764125824E-2,1.039902708E-1
6.622907923E0,1.247686148E-2,-4.700899124E-2,-7.395458221E-2,8.851439183E-2
6.627884903E0,-1.401042938E-2,-5.637645721E-2,-4.468631744E-2,7.329027238E-2
6.632861830E0,9.817868471E-3,-6.310796738E-2,-3.714561462E-2,7.388371115E-2
6.637824330E0,7.522344589E-3,-7.439422607E-2,-1.074695587E-2,7.554193274E-2
6.642801309E0,3.843361139E-2,-4.273319244E-2,-1.312065125E-2,5.895269044E-2
6.647778236E0,2.868381143E-2,-3.011512756E-2,5.787849426E-3,4.199025062E-2
6.652755163E0,2.340495586E-3,-3.665256500E-2,4.594421387E-2,5.881971803E-2
6.657732142E0,1.161697507E-2,-1.695489883E-2,1.308851242E-1,1.324890125E-1
6.662709069E0,3.502327204E-2,9.705543518E-3,2.056179047E-1,2.088050523E-1
6.667672663E0,4.643014073E-2,-1.388692856E-2,2.014074326E-1,2.071558801E-1
6.672649590E0,5.052503943E-2,-1.818943024E-2,1.425523758E-1,1.523312667E-1
6.677626569E0,1.425015926E-2,-6.279802322E-2,8.178806305E-2,1.040958501E-1
6.682603496E0,3.047141433E-2,-3.581714630E-2,1.918220520E-2,5.078712491E-2
6.687580423E0,-2.722018957E-2,-2.085065842E-2,-2.557754517E-3,3.438358307E-2
6.692557403E0,-4.409062862E-2,-3.451871872E-2,2.018928528E-3,5.603214744E-2
6.697489955E0,-1.369524002E-2,6.608486176E-3,-2.195644379E-2,2.670799716E-2
6.702466934E0,-1.958945394E-2,2.350902557E-2,-9.078216553E-2,9.580095285E-2
6.707443913E0,-3.288859129E-2,-2.460479736E-4,-1.138153076E-1,1.184721243E-1
6.712420840E0,-5.809068680E-3,-2.626895905E-2,-9.622097015E-2,9.991135364E-2
6.717397767E0,-1.200863719E-2,-5.681991577E-2,-3.127384186E-2,6.596031671E-2
6.722374746E0,3.691533208E-2,-9.894180298E-2,2.833461761E-2,1.093392550E-1
6.727370840E0,1.003969610E-1,-1.287851334E-1,8.501434326E-2,1.840994267E-1
6.732347819E0,1.640231311E-1,-9.666919708E-2,6.757926941E-2,2.020284110E-1
6.737324746E0,1.445552409E-1,-9.575510025E-2,5.979347229E-2,1.834135115E-1
6.742301673E0,9.222504497E-2,-9.489870071E-2,2.595710754E-2,1.348517473E-1
6.747278653E0,3.793355823E-2,-4.887056351E-2,-1.949691772E-2,6.486460220E-2
6.752255580E0,-1.622834802E-2,-5.302000046E-2,-5.747985840E-2,7.986497261E-2
6.757182559E0,-7.517617941E-2,1.175165176E-2,-1.093759537E-1,1.332391028E-1
6.762159538E0,-1.224194467E-1,1.426649094E-2,-1.370792389E-1,1.843387410E-1
6.767136517E0,-1.201204658E-1,1.438474655E-2,-1.526422501E-1,1.947703872E-1
6.772113444E0,-1.230525374E-1,5.493211746E-2,-1.466989517E-1,1.991985114E-1
6.777090371E0,-7.635033131E-2,5.973815918E-2,-9.815502167E-2,1.379580698E-1
6.782067351E0,-1.132051647E-1,6.930398941E-2,-9.655952454E-3,1.330852722E-1
6.787067351E0,-1.305476725E-1,5.256700516E-2,4.251194000E-2,1.470144546E-1
6.792044330E0,-1.284157634E-1,3.359985352E-2,8.472633362E-2,1.574741568E-1
6.797021257E0,-1.591973156E-1,2.197504044E-2,1.265420914E-1,2.045472771E-1
6.801998184E0,-1.773663610E-1,3.377437592E-3,1.489553452E-1,2.316418096E-1
6.806975163E0,-1.235689521E-1,1.755714417E-3,1.639299393E-1,2.052934325E-1
6.811952090E0,-5.795332789E-2,-4.498147964E-2,1.573791504E-1,1.736378954E-1
6.816884121E0,-3.537353873E-2,-6.278467178E-2,1.461019516E-1,1.629078958E-1
6.821861101E0,-4.849156737E-2,-6.604194641E-2,9.682846069E-2,1.268413245E-1
6.826838028E0,-1.177403331E-2,-6.443071365E-2,9.917259216E-3,6.624422052E-2
6.831815007E0,-9.004473686E-3,-3.434038162E-2,2.147674561E-3,3.556620394E-2
6.836791934E0,-6.992042065E-3,-6.930351257E-3,-7.874488831E-3,1.260658539E-2
6.841768913E0,-6.265124679E-2,2.956104279E-2,-1.530742645E-2,7.094611532E-2
6.846764590E0,-9.234422445E-2,7.739496231E-2,1.547813416E-2,1.214784286E-1
6.851741569E0,-9.127065539E-2,1.149573326E-1,3.909015656E-2,1.518998394E-1
6.856718496E0,-8.314982057E-2,8.769989014E-2,4.607200623E-2,1.293359700E-1
6.861695423E0,-7.482185960E-2,9.598302841E-2,3.177165985E-2,1.257795325E-1
6.866672403E0,-1.067693532E-1,8.259868622E-2,2.007293701E-2,1.364740288E-1
6.871649330E0,-6.204220653E-2,7.631635666E-2,4.891014099E-2,1.098436324E-1
6.876612403E0,-3.604194522E-2,7.940292358E-2,5.144596100E-2,1.012449159E-1
6.881589382E0,2.341267467E-2,7.999324799E-2,1.038780212E-1,1.331830183E-1
6.886566309E0,3.518635035E-2,6.878948212E-2,1.344327927E-1,1.550556282E-1
6.891543236E0,-6.005167961E-4,-6.557464600E-3,9.826660156E-2,9.848698363E-2
6.896520215E0,-5.277633667E-3,1.777172089E-3,7.670497894E-2,7.690686284E-2
6.901497142E0,1.372531056E-2,-2.778339386E-2,7.661342621E-2,8.264331915E-2
6.906460319E0,1.349547505E-2,-4.028034210E-2,4.316902161E-2,6.056565226E-2
6.911437298E0,2.277165651E-2,-5.240249634E-2,-1.151847839E-2,5.828589287E-2
6.916414226E0,5.309301615E-2,-7.843971252E-2,-6.586360931E-2,1.153675513E-1
6.921391153E0,7.103359699E-2,-9.215736389E-2,-1.056079865E-1,1.571362416E-1
6.926368080E0,7.671859860E-2,-1.150364876E-1,-1.665115356E-1,2.164375853E-1
6.931345059E0,7.735034823E-2,-1.065635681E-1,-2.032871246E-1,2.422076082E-1
6.936314486E0,9.467768669E-2,-1.264400482E-1,-1.709871292E-1,2.327821911E-1
6.941291413E0,7.871818542E-2,-1.247262955E-1,-1.366100311E-1,2.010360716E-1
6.946268392E0,5.830106139E-2,-1.111464500E-1,-6.214237213E-2,1.400507820E-1
6.951245319E0,2.871012688E-2,-9.767389297E-2,-5.482196808E-2,1.156283224E-1
6.956222246E0,-5.199015141E-4,-7.951450348E-2,-6.659603119E-2,1.037200942E-1
6.961199226E0,-5.091035366E-2,-7.817888260E-2,-5.924415588E-2,1.105154822E-1
6.966157090E0,-1.341384947E-1,-8.649301529E-2,-1.149749756E-2,1.600199047E-1
6.971133601E0,-1.646920294E-1,-2.840089798E-2,-2.818298340E-2,1.694826130E-1
6.976110059E0,-1.788737923E-1,-1.126146317E-2,-2.328300476E-2,1.807339272E-1
6.981086569E0,-1.246023476E-1,1.501083374E-2,1.497840881E-2,1.263939195E-1
6.986063080E0,-7.581529021E-2,6.222248077E-2,5.542659760E-2,1.126574590E-1
6.991039590E0,-2.249941230E-2,4.965209961E-2,9.077739716E-2,1.058871587E-1
6.996007194E0,2.350100875E-2,3.718948364E-2,1.091928482E-1,1.177218468E-1
7.000983705E0,9.596195817E-2,4.154872894E-2,1.535053253E-1,1.857387391E-1
7.005960163E0,1.380068064E-1,3.416252136E-2,2.068147659E-1,2.509687309E-1
7.010936673E0,1.118324995E-1,3.646516800E-2,2.453136444E-1,2.720569803E-1
7.015913184E0,7.944884896E-2,2.918767929E-2,2.241010666E-1,2.395523497E-1
7.020889694E0,9.702712297E-3,2.442646027E-2,1.554975510E-1,1.577031482E-1
7.025855736E0,-8.124113083E-2,3.311634064E-3,9.210968018E-2,1.228628562E-1
7.030832246E0,-1.389286518E-1,-2.232885361E-2,3.129005432E-3,1.407463629E-1
7.035808705E0,-1.307067871E-1,4.554748535E-3,-6.608104706E-2,1.465322992E-1
7.040785215E0,-1.164690554E-1,3.597164154E-2,-1.227931976E-1,1.730236089E-1
7.045761726E0,-7.248386741E-2,1.481819153E-2,-1.528310776E-1,1.697964314E-1
7.050738236E0,6.123840809E-3,-1.319408417E-3,-1.802597046E-1,1.803685210E-1
7.055700528E0,4.116505384E-2,1.597690582E-2,-1.243295670E-1,1.319381082E-1
7.060677038E0,2.184689045E-2,6.906032562E-3,-4.271221161E-2,4.846971146E-2
7.065653548E0,5.329048634E-2,-4.508495331E-3,1.683616638E-2,5.606834189E-2
7.070630059E0,2.356308699E-2,-2.072000504E-2,8.542346954E-2,9.100388358E-2
7.075606517E0,-1.749736071E-2,-1.102828979E-2,9.897804260E-2,1.011159420E-1
7.080583028E0,-1.297026873E-2,-1.845121384E-2,1.530113220E-1,1.546646043E-1
7.085532715E0,-2.287620306E-2,-5.457878113E-2,1.188421249E-1,1.327614955E-1
7.090509226E0,-6.641745567E-3,-4.783153534E-2,1.325683594E-1,1.410898241E-1
7.095485684E0,-4.659444094E-3,-5.543613434E-2,1.224393845E-1,1.344852344E-1
7.100462194E0,-2.852541208E-2,-5.575561523E-2,1.170835495E-1,1.327815700E-1
7.105438705E0,-2.098721266E-2,-3.692960739E-2,8.555316925E-2,9.551755737E-2
7.110415163E0,-2.063846588E-2,-4.644489288E-2,3.036212921E-2,5.920247663E-2
7.115365059E0,-3.822416067E-3,-3.651332855E-2,-4.355525970E-2,5.696397699E-2
7.120341569E0,4.110911489E-2,-4.283714294E-2,-1.265859604E-1,1.398176867E-1
7.125318080E0,5.677041411E-2,-3.211688995E-2,-1.829652786E-1,1.942438357E-1
7.130294590E0,2.684283257E-2,-2.353811264E-2,-1.915168762E-1,1.948160524E-1
7.135271048E0,6.462275982E-3,-7.586956024E-3,-1.407642365E-1,1.411165943E-1
7.140247559E0,7.631510496E-3,-2.484226227E-2,-1.119108200E-1,1.148886834E-1
7.145213236E0,2.300074697E-2,-1.587247849E-2,-9.752273560E-2,1.014477890E-1
7.150189746E0,4.527366161E-2,-2.378749847E-2,-2.851772308E-2,5.855604195E-2
7.155166257E0,3.163555264E-2,-1.528501511E-2,-3.223419189E-4,3.513607523E-2
7.160142715E0,4.203259945E-3,-3.097534180E-2,8.482742310E-2,9.040371067E-2
7.165119226E0,-4.646053910E-2,-2.309131622E-2,1.527872086E-1,1.613558852E-1
7.170095736E0,-8.217567205E-2,-5.126667023E-2,1.942234039E-1,2.170341982E-1
7.175096517E0,-7.952013612E-2,-3.220081329E-2,1.975650787E-1,2.153887294E-1
7.180073028E0,-5.094251037E-2,-1.374483109E-2,1.536111832E-1,1.624206124E-1
7.185049486E0,-1.570951939E-2,-3.367757797E-2,1.267833710E-1,1.321173396E-1
7.190025996E0,-1.435127854E-2,-5.120754242E-2,1.263971329E-1,1.371291610E-1
7.195002507E0,2.959829569E-2,-4.228639603E-2,7.604598999E-2,9.190860129E-2
7.199979017E0,8.268558979E-2,-3.083705902E-2,1.174259186E-2,8.902650971E-2
7.204909538E0,6.880947948E-2,4.726409912E-3,-6.651401520E-2,9.581856623E-2
7.209886048E0,4.318517447E-2,7.142066956E-3,-4.930973053E-2,6.593495233E-2
7.214862559E0,8.390784264E-3,1.474428177E-2,-6.574916840E-2,6.790252021E-2
7.219839069E0,-2.858155966E-2,1.315069199E-2,-4.660606384E-2,5.623140972E-2
7.224815528E0,-3.427135944E-2,2.367925644E-2,-4.912662506E-2,6.441008115E-2
7.229792038E0,-3.539559245E-2,1.991701126E-2,-3.026103973E-2,5.064845337E-2
7.234794330E0,-5.815592408E-2,-1.961898804E-2,1.705646515E-2,6.370195602E-2
7.239770840E0,-1.923316717E-2,-3.795480728E-2,5.475711823E-2,6.934568560E-2
7.244747298E0,2.406817675E-2,-4.946804047E-2,9.475994110E-2,1.095710299E-1
7.249723809E0,4.343992472E-2,-6.861734390E-2,9.672546387E-2,1.262979901E-1
7.254700319E0,3.672826290E-2,-8.784055710E-2,3.227233887E-2,1.005307546E-1
7.259676830E0,2.806293964E-2,-6.920862198E-2,1.758575439E-3,7.470243989E-2
7.264644694E0,4.131126404E-2,-5.785226822E-2,-1.664924622E-2,7.301166259E-2
7.269621205E0,2.633506060E-2,-4.878473282E-2,-8.887290955E-3,5.614685666E-2
7.274597663E0,3.297802806E-2,-2.297687531E-2,-8.206176758E-2,9.137625967E-2
7.279574173E0,2.517566085E-2,-1.369428635E-2,-1.072750092E-1,1.110372684E-1
7.284550632E0,4.324582219E-2,-6.494998932E-3,-8.019065857E-2,9.133962924E-2
7.289527142E0,3.000628948E-2,9.689331055E-4,-8.912086487E-2,9.404171837E-2
7.294491048E0,1.893463731E-2,4.027843475E-3,-4.590988159E-2,4.982430372E-2
7.299467507E0,1.021495461E-2,1.422882080E-2,2.543163300E-2,3.087997079E-2
7.304444017E0,-1.997074485E-2,1.972532272E-2,6.761074066E-2,7.320608758E-2
7.309420528E0,-3.569793701E-2,3.938293457E-2,1.237192154E-1,1.346543817E-1
7.314396986E0,-3.468951583E-2,5.385208130E-2,2.175130844E-1,2.267495338E-1
7.319373496E0,-5.239281058E-2,6.056308746E-2,2.608890533E-1,2.729028991E-1
7.324339226E0,-5.064269900E-2,3.363990784E-2,2.755489349E-1,2.821764375E-1
7.329315736E0,-4.616242647E-2,3.507232666E-2,2.261228561E-1,2.334364663E-1
7.334292194E0,-1.999387145E-2,7.233619690E-4,1.225242615E-1,1.241469806E-1
7.339268705E0,-1.763597131E-2,-8.440017700E-5,3.165912628E-2,3.623996253E-2
7.344245163E0,1.306891441E-3,-2.207803726E-2,-3.716468811E-2,4.324767898E-2
7.349221726E0,8.216083050E-3,-7.982254028E-3,-4.379367828E-2,4.526705930E-2
7.354153861E0,2.219805121E-2,-1.520252228E-2,-4.808521271E-2,5.510043414E-2
7.359130371E0,7.743984461E-3,-2.926874161E-2,-2.633571625E-2,4.012727851E-2
7.364106882E0,5.370080471E-4,-5.947732925E-2,-7.860088348E-2,9.856946767E-2
7.369083392E0,-1.841917634E-2,-8.668565750E-2,-8.074188232E-2,1.198871171E-1
7.374059851E0,-2.291786671E-2,-1.016049385E-1,-9.721660614E-2,1.424775795E-1
7.379036361E0,-3.692743182E-2,-1.043834686E-1,-1.730117798E-1,2.054084217E-1
7.384038184E0,-3.910210729E-2,-9.759140015E-2,-1.531686783E-1,1.857786322E-1
7.389014694E0,-2.027207613E-2,-9.807968140E-2,-1.167917252E-1,1.538534629E-1
7.393991153E0,-6.950855255E-3,-4.895448685E-2,-9.717082977E-2,1.090276402E-1
7.398967663E0,-4.634815454E-2,-4.332399368E-2,-6.089782715E-2,8.794126000E-2
7.403944121E0,-9.526854753E-2,-5.952930450E-2,-3.657245636E-2,1.181413510E-1
7.408920684E0,-1.439252198E-1,-6.179428101E-2,-1.220893860E-2,1.571052521E-1
7.413853444E0,-1.398111880E-1,-5.716991425E-2,1.207828522E-2,1.515303678E-1
7.418830007E0,-1.093653440E-1,-2.672863007E-2,5.054855347E-2,1.234113220E-1
7.423806465E0,-8.833336830E-2,3.407573700E-2,4.843235016E-2,1.063467552E-1
7.428782976E0,-1.733550429E-2,6.810140610E-2,3.689289093E-2,7.936880132E-2
7.433759434E0,1.750764251E-2,4.231357574E-2,2.551937103E-2,5.242322516E-2
7.438735996E0,2.593120933E-2,3.103637695E-2,-7.161140442E-3,4.107269463E-2
7.443732351E0,3.418797255E-2,2.250099182E-2,-7.533836365E-2,8.573786291E-2
7.448708861E0,7.797062397E-2,7.413864136E-3,-1.242036819E-1,1.468364335E-1
7.453685319E0,1.451718211E-1,-2.125883102E-2,-9.692668915E-2,1.758453258E-1
7.458661830E0,1.477515399E-1,-1.110553741E-2,-9.868907928E-2,1.780263601E-1
7.463638340E0,1.482170820E-1,-3.375577927E-2,-7.697772980E-2,1.703916868E-1
7.468614851E0,1.251580119E-1,-4.151201248E-2,7.733535767E-2,1.528676966E-1
7.473585528E0,6.001904607E-2,-4.916763306E-2,1.661777496E-1,1.833978912E-1
7.478561673E0,-1.370796561E-2,-5.424737930E-2,2.613153458E-1,2.672384636E-1
7.483537819E0,-6.767946482E-2,-7.604694366E-2,2.915840149E-1,3.088444355E-1
7.488513965E0,-1.258651912E-1,-1.147866249E-1,3.194770813E-1,3.620547211E-1
7.493490163E0,-1.362230480E-1,-9.192943573E-2,3.260211945E-1,3.650993826E-1
7.498466309E0,-1.157323122E-1,-9.365367889E-2,3.494758606E-1,3.798662354E-1
7.503394382E0,-5.519428849E-2,-7.945966721E-2,3.422374725E-1,3.556497375E-1
7.508370528E0,-5.952814221E-2,-4.205846786E-2,2.687797546E-1,2.784871109E-1
7.513346673E0,-5.686214566E-2,-4.110908508E-2,1.653232574E-1,1.795968818E-1
7.518322871E0,-5.922335386E-2,-4.519891739E-2,5.813694000E-2,9.450000830E-2
7.523299017E0,-3.331390023E-2,-4.706144333E-2,-4.567146301E-2,7.355595102E-2
7.528275163E0,-2.911326289E-2,-3.927421570E-2,-1.272954941E-1,1.363605108E-1
7.533281413E0,2.491489053E-2,1.146173477E-2,-1.869907379E-1,1.889911617E-1
7.538257611E0,5.229875445E-2,7.470607758E-3,-2.178506851E-1,2.241648739E-1
7.543233757E0,3.446000814E-2,1.570940018E-2,-1.773605347E-1,1.813588616E-1
7.548209903E0,-1.637083292E-2,1.474523544E-2,-1.706619263E-1,1.720782357E-1
7.553186048E0,-5.259501934E-2,-1.192331314E-2,-1.476049423E-1,1.571484026E-1
7.558162194E0,-9.774392843E-2,2.358436584E-2,-9.159564972E-2,1.360141938E-1
7.563127871E0,-1.373293102E-1,2.354049683E-2,-2.202033997E-2,1.410616525E-1
7.568104069E0,-1.165051460E-1,2.848482132E-2,3.493690491E-2,1.249216611E-1
7.573080215E0,-6.211256981E-2,2.169704437E-2,6.991672516E-2,9.600563275E-2
7.578056309E0,-3.160309792E-2,1.989698410E-2,2.134990692E-2,4.301702337E-2
7.583032507E0,1.060217619E-2,1.353740692E-2,-2.453327179E-2,2.995912133E-2
7.588008653E0,2.227455378E-3,-7.080078125E-3,-6.048202515E-2,6.093574017E-2
7.592975528E0,-1.387080550E-2,-4.412221909E-2,-1.127414703E-1,1.218597907E-1
7.597951673E0,-3.537264466E-2,-3.338527679E-2,-1.074895859E-1,1.179822519E-1
7.602927819E0,-3.584611416E-2,-5.371379852E-2,-6.182003021E-2,8.939704798E-2
7.607904017E0,-3.428947926E-2,-8.369207382E-2,3.829097748E-2,9.821573481E-2
7.612880111E0,-2.797624469E-2,-8.778524399E-2,1.259460449E-1,1.560491127E-1
7.617856309E0,-2.129969001E-2,-9.016227722E-2,1.942043304E-1,2.151702465E-1
7.622822507E0,-1.668569446E-2,-7.639265060E-2,2.169990540E-1,2.306574059E-1
7.627798653E0,2.464234829E-3,-9.654712677E-2,2.089920044E-1,2.302283172E-1
7.632774798E0,5.055218935E-3,-9.309720993E-2,1.156864166E-1,1.485799203E-1
7.637750996E0,1.731348038E-2,-3.974866867E-2,4.123687744E-3,4.355132678E-2
7.642727142E0,1.032647491E-2,1.818418503E-2,-8.764362335E-2,9.010385887E-2
7.647703288E0,5.752861500E-3,4.753637314E-2,-1.741056442E-1,1.805701458E-1
7.652674642E0,-2.991801500E-2,6.285190582E-2,-2.220640182E-1,2.327184520E-1
7.657650840E0,-4.656651616E-2,5.954885483E-2,-2.176122665E-1,2.303684117E-1
7.662626986E0,1.033252478E-2,4.262542725E-2,-2.301311493E-1,2.342734172E-1
7.667603132E0,5.225118995E-2,-4.672527313E-3,-1.453237534E-1,1.545024681E-1
7.672579278E0,5.811929703E-2,-2.526283264E-2,-4.468727112E-2,7.754363675E-2
7.677555423E0,5.462300777E-2,-4.079723358E-2,2.769470215E-3,6.823310935E-2
7.682523496E0,5.147960782E-2,-6.109237671E-2,8.314418793E-2,1.153056135E-1
7.687499642E0,7.253488898E-2,-7.907819748E-2,2.080821991E-1,2.341214920E-1
7.692475788E0,6.294843554E-2,-9.020328522E-2,2.205247879E-1,2.464352253E-1
7.697451986E0,1.105016470E-2,-1.014609337E-1,1.973276138E-1,2.221589845E-1
7.702428132E0,-2.177596092E-3,-9.622240067E-2,1.815557480E-1,2.054896152E-1
7.707404278E0,-6.264671683E-2,-8.407831192E-2,1.042356491E-1,1.478473680E-1
7.712370163E0,-6.786265969E-2,-5.787134171E-2,5.135440826E-2,1.029160241E-1
7.717346309E0,-5.688977242E-2,-5.559062958E-2,4.405117035E-2,9.092452866E-2
7.722322507E0,-5.593019724E-2,-5.564832687E-2,-3.446292877E-2,8.609655456E-2
7.727298653E0,-5.068618059E-2,-5.562353134E-2,-1.075906754E-1,1.312966853E-1
7.732274798E0,-3.674545884E-2,-7.951736450E-3,-1.255025864E-1,1.310128163E-1
7.737250944E0,-2.162128687E-3,-3.166675568E-3,-1.695022583E-1,1.695456228E-1
7.742218496E0,1.518949866E-2,-1.012945175E-2,-1.585712433E-1,1.596188142E-1
7.747194694E0,-8.617639542E-4,-3.827953339E-2,-1.192932129E-1,1.252874134E-1
7.752170840E0,-2.198785543E-3,-1.622724533E-2,-5.664730072E-2,5.896672645E-2
7.757146986E0,-1.023736596E-2,-3.236246109E-2,-2.542877197E-2,4.241173179E-2
7.762123132E0,1.233249903E-3,-2.716493607E-2,6.023693085E-2,6.609041152E-2
7.767099278E0,-2.521926165E-2,-1.505994797E-2,9.538459778E-2,9.980498326E-2
7.772069903E0,-1.316925883E-2,-2.698421478E-2,1.065587997E-1,1.107084235E-1
7.777046048E0,3.704026341E-2,-2.734088898E-2,1.439695358E-1,1.511513565E-1
7.782022246E0,5.140903592E-2,-3.482866287E-2,1.216735840E-1,1.366030226E-1
7.786998392E0,5.138272047E-2,-6.838750839E-2,9.718990326E-2,1.294716670E-1
7.791974538E0,5.112740397E-2,-4.959440231E-2,6.589508057E-2,9.703493093E-2
7.796950684E0,1.496940851E-2,-3.558588028E-2,3.929138184E-3,3.880562064E-2
7.801880892E0,-4.256111383E-2,-2.859258652E-2,-3.624343872E-2,6.278989779E-2
7.806857090E0,-5.951079726E-2,-3.563308716E-2,-1.165943146E-1,1.356668201E-1
7.811833236E0,-4.585853219E-2,-4.267692566E-3,-1.584205627E-1,1.649796741E-1
7.816809382E0,-3.723362088E-2,8.250713348E-3,-1.383419037E-1,1.435022617E-1
7.821785580E0,-5.234715343E-2,4.322528839E-3,-8.532714844E-2,1.001979590E-1
7.826761726E0,1.807212830E-3,-1.130437851E-2,-1.146411896E-2,1.620126585E-2
7.831764903E0,3.451937437E-2,-3.629446030E-2,8.551311493E-2,9.910281469E-2
7.836741101E0,6.975674629E-2,-6.840372086E-2,1.247510910E-1,1.584547487E-1
7.841717246E0,7.414379716E-2,-6.480216980E-2,1.661186218E-1,1.931114196E-1
7.846693392E0,8.110275865E-2,-4.716730118E-2,2.191038132E-1,2.383461615E-1
7.851669538E0,7.629400492E-2,-6.560754776E-2,2.575397491E-1,2.764992729E-1
7.856645684E0,5.038025975E-2,-3.505229950E-3,2.839612961E-1,2.884171890E-1
7.861615111E0,-3.265473247E-2,3.633022308E-2,2.652368546E-1,2.696976190E-1
7.866591309E0,-9.890103340E-2,2.096700668E-2,2.064332962E-1,2.298602522E-1
7.871567455E0,-1.127035916E-1,3.172349930E-2,1.482105255E-1,1.888778437E-1
7.876543601E0,-1.456747949E-1,5.655574799E-2,9.290981293E-2,1.818019027E-1
7.881519746E0,-1.619995534E-1,6.935787201E-2,2.617835999E-2,1.781563253E-1
7.886495892E0,-1.068553329E-1,1.035795212E-1,-9.194374084E-3,1.491016964E-1
7.891461569E0,-5.677959323E-2,1.020641327E-1,-3.249740601E-2,1.212315585E-1
7.896437767E0,-3.332012892E-2,6.277513504E-2,-6.284332275E-2,9.486955141E-2
7.901413913E0,-2.402988076E-2,3.591775894E-2,-1.192007065E-1,1.267924643E-1
7.906390059E0,-3.836509585E-2,2.139568329E-2,-1.182069778E-1,1.261052951E-1
7.911366205E0,2.472847700E-3,-1.890563965E-2,-4.847431183E-2,5.208931842E-2
7.916342351E0,2.219188213E-2,-7.079458237E-2,2.066802979E-2,7.701636177E-2
7.921308757E0,1.607403159E-2,-4.627466202E-2,7.497787476E-2,8.956227185E-2
