"Time (s)","Linear Acceleration x (m/s^2)","Linear Acceleration y (m/s^2)","Linear Acceleration z (m/s^2)","Absolute acceleration (m/s^2)"
6.239437500E-2,-1.597061157E0,-2.191500664E-1,1.178059578E0,1.996610994E0
6.739135400E-2,-1.172227979E0,-1.820077896E-1,1.047305107E0,1.582432702E0
7.238833400E-2,-2.594091892E-1,-1.007413864E-2,6.265268326E-1,6.781817512E-1
7.738531300E-2,2.330155969E-1,7.725238800E-2,2.671833038E-1,3.628375913E-1
8.238224000E-2,4.244457781E-1,7.944726944E-2,6.061649323E-2,4.360509677E-1
8.730276100E-2,4.571392834E-1,7.086277008E-3,-8.139610291E-3,4.572666542E-1
9.229974000E-2,1.731656939E-1,-6.925535202E-2,4.678440094E-2,1.922795920E-1
9.729671900E-2,-8.328280449E-1,-5.668926239E-2,3.063144684E-1,8.891820839E-1
1.022936460E-1,-3.984582126E-1,6.244945526E-2,3.447408676E-1,5.305800104E-1
1.072906250E-1,1.546813548E-1,1.907339096E-1,3.626976013E-1,4.380128945E-1
1.122876040E-1,3.391374052E-1,2.169823647E-1,3.391361237E-1,5.264112808E-1
1.171191150E-1,3.998247385E-1,1.161732674E-1,3.727989197E-1,5.588694696E-1
1.221160940E-1,4.298492372E-1,5.273151398E-2,3.769454956E-1,5.741418692E-1
1.271130730E-1,3.631323874E-1,-4.363298416E-2,2.489185333E-1,4.424131602E-1
1.321100520E-1,2.810580134E-1,-1.490244865E-1,1.217727661E-1,3.406325162E-1
1.371070320E-1,2.430162728E-1,-1.974797249E-1,3.559207916E-2,3.151538460E-1
1.421040110E-1,2.420340329E-1,-2.168226242E-1,-4.864025116E-2,3.285702322E-1
1.469705210E-1,2.649791241E-1,-1.694045067E-1,-1.863546371E-1,3.655678786E-1
1.519675000E-1,3.107337356E-1,-1.290192604E-1,-2.726211548E-1,4.330400882E-1
1.569644790E-1,3.030127883E-1,-9.931707382E-2,-3.101167679E-1,4.448067454E-1
1.619614590E-1,2.713113427E-1,-5.674886703E-2,-4.112644196E-1,4.959523177E-1
1.669584380E-1,2.001655549E-1,-7.297182083E-2,-4.403448105E-1,4.891775630E-1
1.719553650E-1,1.807557791E-1,-1.156382561E-1,-4.670753479E-1,5.140080141E-1
1.768334900E-1,1.717571616E-1,-1.332530975E-1,-4.452857971E-1,4.955162477E-1
1.818304690E-1,1.682485491E-1,-1.267213821E-1,-3.950490952E-1,4.476937240E-1
1.868274480E-1,1.747527868E-1,-1.546483040E-1,-3.843450546E-1,4.496395839E-1
1.918244270E-1,2.023795843E-1,-1.558399200E-1,-3.074502945E-1,3.997114715E-1
1.968214070E-1,1.993241608E-1,-1.244397163E-1,-2.194738388E-1,3.215340262E-1
2.018183340E-1,1.081494987E-1,-1.475834846E-1,-1.180906296E-1,2.177672974E-1
2.066521360E-1,-3.184087574E-2,-1.587171555E-1,-6.388187408E-2,1.740283616E-1
2.116491150E-1,-1.313677430E-1,-1.511578560E-1,-2.284049988E-2,2.015635626E-1
2.166460940E-1,-2.592915297E-1,-1.510496140E-1,-3.876495361E-2,3.025736354E-1
2.216430730E-1,-3.196370304E-1,-1.419572830E-1,-4.250144958E-2,3.523153057E-1
2.266400520E-1,-2.745161057E-1,-9.830379486E-2,-3.911113739E-2,2.941979086E-1
2.316370320E-1,-2.477690279E-1,-6.754922867E-2,-7.547760010E-2,2.676737896E-1
2.365376570E-1,-1.871095896E-1,-3.499889374E-2,-1.227931976E-1,2.265239291E-1
2.415346360E-1,-8.642415702E-2,-2.868080139E-2,-1.761798859E-1,1.983206380E-1
2.465316150E-1,-5.380076170E-2,-4.077529907E-2,-2.192754745E-1,2.294316471E-1
2.515285420E-1,2.003769577E-2,-8.513975143E-2,-1.914100647E-1,2.104473792E-1
2.565255210E-1,1.135585904E-1,-1.165575981E-1,-1.456975937E-1,2.184239363E-1
2.615225000E-1,1.843768358E-1,-7.220506668E-2,-8.946323395E-2,2.172833622E-1
2.663840630E-1,2.452235371E-1,-5.427837372E-3,-2.279090881E-2,2.463401512E-1
2.713810420E-1,2.425184250E-1,8.499145508E-3,7.986450195E-2,2.554716434E-1
2.763780210E-1,1.935309768E-1,3.171682358E-2,3.253555298E-2,1.987932546E-1
2.813750000E-1,1.878684759E-1,4.067993164E-2,1.420593262E-2,1.927465424E-1
2.863719790E-1,2.196846902E-1,1.109828949E-1,-6.322860718E-3,2.462083359E-1
2.913689070E-1,2.598760128E-1,1.311898232E-1,-1.183052063E-1,3.142330880E-1
2.961944270E-1,2.633916736E-1,1.536817551E-1,-1.648559570E-1,3.466565189E-1
3.011914590E-1,2.350233793E-1,1.081571579E-1,-2.037448883E-1,3.293113104E-1
3.061883860E-1,1.775509119E-1,5.407524109E-2,-1.831340790E-1,2.607423036E-1
3.111853650E-1,1.907061040E-1,2.928256989E-2,-1.370763779E-1,2.366774607E-1
3.161823440E-1,2.626040578E-1,-8.599281311E-3,-1.086368561E-1,2.843181410E-1
3.211792710E-1,3.744950294E-1,2.304029465E-2,-7.635879517E-2,3.828943038E-1
3.260577610E-1,4.816115499E-1,6.903743744E-2,-1.133737564E-1,4.995692758E-1
3.310547400E-1,6.379866004E-1,1.036205292E-1,-1.527566910E-1,6.641526353E-1
3.360516670E-1,7.202169895E-1,6.319522858E-2,-1.614055634E-1,7.407819550E-1
3.410486980E-1,7.623589635E-1,6.008148193E-4,-1.420745850E-1,7.754848405E-1
3.460456250E-1,7.882736921E-1,-2.519369125E-2,-1.492586136E-1,8.026756939E-1
3.510426040E-1,6.845556498E-1,-6.225681305E-2,-1.116313934E-1,6.963863270E-1
3.559253130E-1,5.681979656E-1,-1.512689590E-1,-3.655433655E-2,5.891243041E-1
3.609222920E-1,4.886310995E-1,-2.253723145E-1,5.183315277E-2,5.405919970E-1
3.659192710E-1,4.029459655E-1,-2.450056076E-1,1.959667206E-1,5.106820483E-1
3.709162500E-1,3.447860777E-1,-1.968765259E-1,3.360815048E-1,5.201812989E-1
3.759132290E-1,3.703890741E-1,-1.692876816E-1,4.062013626E-1,5.751920830E-1
3.809101570E-1,4.008042514E-1,-1.242613792E-1,4.192142487E-1,5.931488216E-1
3.857721360E-1,4.470031857E-1,-1.304473877E-1,3.169155121E-1,5.632617605E-1
3.907691150E-1,4.478875399E-1,-1.753835678E-1,1.978416443E-1,5.200999524E-1
3.957660940E-1,4.009906948E-1,-2.660365105E-1,3.128099442E-1,5.739503666E-1
4.007630210E-1,3.578919172E-1,-2.970182896E-1,3.510389328E-1,5.826961653E-1
4.057600000E-1,3.308546543E-1,-3.017451763E-1,3.062295914E-1,5.424864204E-1
4.107569790E-1,3.078400493E-1,-2.925119400E-1,3.000783920E-1,5.199767037E-1
4.156155210E-1,2.869113088E-1,-2.173118591E-1,2.894105911E-1,4.618452484E-1
4.206125000E-1,2.870233059E-1,-1.313276291E-1,1.820507050E-1,3.643786265E-1
4.256094790E-1,3.013495803E-1,-1.056194305E-1,1.376161575E-1,3.477143087E-1
4.306064590E-1,3.226389885E-1,-9.917068481E-2,1.008768082E-1,3.522880527E-1
4.356034380E-1,3.576193452E-1,-1.472845078E-1,9.542942047E-2,3.983605108E-1
4.406003650E-1,3.633038402E-1,-1.546387672E-1,1.066951752E-1,4.090069547E-1
4.454648440E-1,3.569003344E-1,-1.905035973E-1,1.297950745E-1,4.248720167E-1
4.504618230E-1,3.925482631E-1,-1.951875687E-1,1.645307541E-1,4.682549464E-1
4.554588020E-1,4.180892110E-1,-1.572256088E-1,2.036485672E-1,4.909085651E-1
4.604557820E-1,4.097882509E-1,-1.247315407E-1,2.472553253E-1,4.945902989E-1
4.654527610E-1,3.526138663E-1,-4.317474365E-2,2.952203751E-1,4.619043917E-1
4.704496880E-1,1.547264457E-1,5.147361755E-2,3.001031876E-1,3.415431590E-1
4.753115630E-1,6.608480215E-2,5.235481262E-2,4.424753189E-1,4.504360502E-1
4.803085420E-1,6.847721338E-2,6.673669815E-2,5.078592300E-1,5.167822686E-1
4.853055210E-1,3.365874290E-4,8.495521545E-2,4.971017838E-1,5.043091168E-1
4.903025000E-1,-1.201421022E-2,1.379060745E-1,5.294294357E-1,5.472275158E-1
4.952994270E-1,-9.494662285E-3,1.872935295E-1,5.641098022E-1,5.944652082E-1
5.002964070E-1,2.372872829E-2,2.282180786E-1,5.538797379E-1,5.995242347E-1
5.051604690E-1,9.225672483E-2,2.469940186E-1,4.776601791E-1,5.455974663E-1
5.101574480E-1,1.475526690E-1,2.412176132E-1,4.169187546E-1,5.037648013E-1
5.151544270E-1,1.164423227E-1,2.206082344E-1,3.216972351E-1,4.070822014E-1
5.201514070E-1,4.044771194E-2,1.926698685E-1,2.182617188E-1,2.939317497E-1
5.251483860E-1,-2.239125967E-2,2.147374153E-1,6.850051880E-2,2.265079405E-1
5.301453130E-1,-1.120560765E-1,2.177505493E-1,-1.462650299E-1,2.852460780E-1
5.350065630E-1,-1.781480312E-1,2.190389633E-1,-2.715797424E-1,3.917529132E-1
5.399991670E-1,-1.711704135E-1,2.207379341E-1,-3.366870880E-1,4.374731320E-1
5.449917190E-1,-2.077840567E-1,1.922211647E-1,-3.280963898E-1,4.333248566E-1
5.499842710E-1,-2.049235702E-1,1.857757568E-1,-2.772321701E-1,3.916171314E-1
5.549768230E-1,-1.560888886E-1,1.656851768E-1,-2.509422302E-1,3.388027773E-1
5.599693750E-1,-1.234018207E-1,1.796030998E-1,-2.300443649E-1,3.168685731E-1
5.648535940E-1,-9.486317635E-3,1.701683998E-1,-2.096853256E-1,2.702132682E-1
5.698461980E-1,6.130021811E-2,1.685829163E-1,-2.468585968E-1,3.051509187E-1
5.748387500E-1,7.738411427E-2,1.558632851E-1,-3.268232346E-1,3.702635432E-1
5.798313020E-1,5.071610212E-2,1.295104027E-1,-3.659791946E-1,3.915173538E-1
5.848238540E-1,-2.170681953E-3,6.355762482E-2,-4.406270981E-1,4.451926809E-1
5.898164070E-1,-7.613551617E-2,-1.147270203E-3,-4.769582748E-1,4.829980631E-1
5.946987500E-1,-1.160621047E-1,-2.691221237E-2,-4.633474350E-1,4.784198207E-1
5.996913020E-1,-1.360681653E-1,-3.053665161E-2,-4.074821472E-1,4.306840292E-1
6.046839070E-1,-1.955015659E-1,-2.419948578E-2,-3.358049393E-1,3.893217623E-1
6.096764590E-1,-2.655547261E-1,-4.620170593E-2,-2.934513092E-1,3.984564983E-1
6.146690110E-1,-2.973510623E-1,-6.299066544E-2,-3.465833664E-1,4.609831971E-1
6.196615630E-1,-2.706667185E-1,-9.799385071E-2,-5.467472076E-1,6.178962505E-1
6.245101570E-1,-1.952490211E-1,-1.343679428E-1,-6.196365356E-1,6.634201991E-1
6.295027610E-1,-1.566160917E-1,-1.797270775E-1,-3.167085648E-1,3.964022421E-1
6.344953130E-1,-2.676914930E-1,-1.967678070E-1,9.794616699E-2,3.463665067E-1
6.394878650E-1,-3.635573387E-1,-1.194767952E-1,2.791261673E-1,4.736666131E-1
6.444804170E-1,-3.784102499E-1,-1.952886581E-2,2.619018555E-1,4.606172769E-1
6.494729690E-1,-3.089016676E-1,4.396295547E-2,1.451644897E-1,3.441303689E-1
6.543946880E-1,-1.460919380E-1,1.896762848E-2,7.229900360E-2,1.641029287E-1
6.593872400E-1,-3.998941183E-2,-5.544567108E-2,3.561496735E-2,7.708308115E-2
6.643798440E-1,2.690845728E-2,-2.146897316E-1,-2.451896667E-2,2.177542782E-1
6.693723960E-1,1.548201442E-1,-2.157411575E-1,1.797771454E-2,2.661516904E-1
6.743649480E-1,3.250280023E-1,-1.149873734E-1,3.001670837E-1,4.571275276E-1
6.793575000E-1,4.245135784E-1,-7.513141632E-2,5.065050125E-1,6.651344493E-1
6.842447400E-1,4.520084858E-1,-2.679300308E-2,4.285287857E-1,6.234311962E-1
6.892373440E-1,3.815242052E-1,-3.139638901E-2,3.060064316E-1,4.900881437E-1
6.942298960E-1,2.444751263E-1,-3.139829636E-2,2.058067322E-1,3.211080058E-1
6.992224480E-1,1.651141644E-1,-1.240158081E-2,9.200668335E-2,1.894246981E-1
7.042150000E-1,2.025843859E-1,-1.339912415E-4,-3.277635574E-1,3.853172731E-1
7.092075520E-1,1.865679026E-2,-1.338005066E-3,-5.163936615E-1,5.167323095E-1
7.140875000E-1,1.135411263E-1,4.089927673E-2,-4.922876358E-1,5.068643355E-1
7.190800520E-1,2.623404860E-1,6.242179871E-2,-6.066598892E-1,6.638939921E-1
7.240726570E-1,2.933790088E-1,1.375913620E-2,-7.420587540E-1,7.980675103E-1
7.290652090E-1,3.022854924E-1,7.059574127E-3,-7.438182831E-1,8.029271416E-1
7.340577610E-1,3.243592978E-1,-1.976919174E-2,-6.581506729E-1,7.340041439E-1
7.390503130E-1,3.454933763E-1,2.578353882E-2,-4.785318375E-1,5.907818408E-1
7.439359900E-1,2.873316407E-1,2.626800537E-2,-3.290586472E-1,4.376403468E-1
7.489285940E-1,1.836470366E-1,5.893230438E-3,-1.738700867E-1,2.529659488E-1
7.539211460E-1,1.204373837E-1,-4.068756104E-2,7.999706268E-2,1.502004362E-1
7.589136980E-1,7.612788677E-2,-6.103086472E-2,3.153247833E-1,3.300756589E-1
7.639062500E-1,2.219873667E-2,-5.096197128E-2,4.967908859E-1,4.998910789E-1
7.688988020E-1,4.194021225E-3,-7.287502289E-2,6.915073395E-1,6.953493793E-1
7.737840110E-1,2.744197845E-4,-5.548620224E-2,8.543624878E-1,8.561623996E-1
7.787765630E-1,-5.662816763E-2,3.267765045E-3,8.834972382E-1,8.853162133E-1
7.837691670E-1,-1.069854498E-1,7.666873932E-2,8.751916885E-1,8.850336003E-1
7.887617190E-1,-1.387160420E-1,1.052064896E-1,8.986215591E-1,9.153312255E-1
7.937542710E-1,-6.794023514E-2,1.036787033E-1,8.654613495E-1,8.742931411E-1
7.987468230E-1,2.418953180E-2,9.864521027E-2,7.237949371E-1,7.308865315E-1
8.035967710E-1,9.492999315E-2,8.111143112E-2,5.241670609E-1,5.388338107E-1
8.085893750E-1,9.203720093E-2,7.484054565E-2,3.906507492E-1,4.082645729E-1
8.135819270E-1,1.231980920E-1,1.298813820E-1,2.821722031E-1,3.341677654E-1
8.185744790E-1,1.549232006E-1,1.322360039E-1,1.103677750E-1,2.316648540E-1
8.235670320E-1,1.207669377E-1,1.063952446E-1,-8.162117004E-2,1.804622307E-1
8.285595840E-1,6.154459715E-2,9.303092957E-2,-2.199983597E-1,2.466612445E-1
8.334758860E-1,4.144662619E-2,4.709148407E-2,-2.197685242E-1,2.285467893E-1
8.384684380E-1,4.338222742E-2,2.115535736E-2,-2.222528458E-1,2.274332743E-1
8.434610420E-1,5.486804247E-2,-4.692077637E-2,-2.415418625E-1,2.521002433E-1
8.484535940E-1,5.138516426E-2,-4.764795303E-2,-2.702417374E-1,2.791797972E-1
8.534461460E-1,5.384290218E-2,-5.776786804E-2,-1.917428970E-1,2.073680864E-1
8.584386980E-1,5.025863647E-4,-7.751941681E-2,-6.855869293E-2,1.034881972E-1
8.633219790E-1,-3.426074982E-2,-9.489679337E-2,7.988643646E-2,1.286897164E-1
8.683145840E-1,-1.024447083E-1,-6.502771378E-2,1.061792374E-1,1.612375647E-1
8.733071360E-1,-2.480716109E-1,-5.961751938E-2,1.039314270E-1,2.754914051E-1
8.782996880E-1,-1.901582479E-1,-6.150102615E-2,-5.268478394E-2,2.066838696E-1
8.832922400E-1,-1.399260759E-2,-1.344203949E-3,-2.580022812E-1,2.583849397E-1
8.882847920E-1,3.508394957E-2,5.389213562E-2,-3.311367035E-1,3.373229346E-1
8.931702610E-1,-1.038968563E-3,3.310108185E-2,-3.754348755E-1,3.768926993E-1
8.981628650E-1,-6.397366524E-4,1.185417175E-3,-3.959379196E-1,3.959402110E-1
9.031554170E-1,1.401335001E-2,3.382682800E-3,-3.975496292E-1,3.978109151E-1
9.081479690E-1,2.099585533E-2,-3.452301025E-3,-2.829437256E-1,2.837426584E-1
9.131405210E-1,7.999116182E-2,-2.829551697E-3,-1.290245056E-1,1.518351586E-1
9.181330730E-1,9.067690372E-2,1.683521271E-2,4.614830017E-3,9.234187518E-2
9.230161460E-1,7.491964102E-2,3.856706619E-2,8.734226227E-2,1.213632646E-1
9.280087500E-1,2.398025990E-2,4.578113556E-2,1.361360550E-1,1.456159013E-1
9.330013020E-1,7.149279118E-3,3.854894638E-2,9.903144836E-2,1.065099114E-1
9.379938540E-1,5.326688290E-3,5.064487457E-3,4.564380646E-2,4.623180409E-2
9.429864070E-1,4.924321175E-2,-4.389762878E-3,-8.336353302E-2,9.692080560E-2
9.479789590E-1,1.147322059E-1,-4.059791565E-3,-1.924343109E-1,2.240779440E-1
9.528618750E-1,1.987642646E-1,1.075220108E-2,-2.769584656E-1,3.410701311E-1
9.578544790E-1,2.515087128E-1,-1.213741302E-2,-3.752632141E-1,4.519141835E-1
9.628470320E-1,2.325829864E-1,-4.139804840E-2,-4.065065384E-1,4.701661512E-1
9.678395840E-1,2.018820047E-1,-5.553340912E-2,-3.451395035E-1,4.036850012E-1
9.728321360E-1,5.708044767E-2,-8.832025528E-2,-1.560897827E-1,1.882090999E-1
9.778246880E-1,-1.226377487E-1,-1.400070190E-1,7.427024841E-2,2.003947419E-1
9.827111460E-1,-2.064142823E-1,-1.202435493E-1,2.268610001E-1,3.294408603E-1
9.877037500E-1,-1.474951506E-1,-8.188772202E-2,2.880754471E-1,3.338381070E-1
9.926963020E-1,-6.323468685E-2,9.336471558E-4,2.943363190E-1,3.010537593E-1
9.976888540E-1,-2.937102318E-2,1.974105835E-3,2.579250336E-1,2.595994550E-1
1.002681407E0,4.722940922E-2,-4.218578339E-3,1.838350296E-1,1.898518675E-1
1.007673959E0,6.847923994E-2,-4.354143143E-2,7.470130920E-2,1.102975437E-1
1.012558802E0,3.727978468E-2,-8.004522324E-2,4.430770874E-3,8.841183088E-2
1.017551407E0,-3.749132156E-4,-3.778314590E-2,-3.555297852E-3,3.795190136E-2
1.022543959E0,-3.270375729E-2,-2.949237823E-3,2.173995972E-2,3.938095470E-2
1.027536511E0,-9.086686373E-2,2.680826187E-2,6.584548950E-2,1.153737332E-1
1.032529063E0,-1.581594944E-1,6.826114655E-2,4.542350769E-2,1.781496698E-1
1.037521615E0,-1.703950763E-1,9.986543655E-2,4.418849945E-2,2.023862913E-1
1.042404844E0,-1.065341830E-1,1.123056412E-1,2.153778076E-2,1.562880840E-1
1.047393750E0,-3.380751610E-2,9.414911270E-2,-4.385948181E-2,1.092275502E-1
1.052382657E0,2.358150482E-2,8.814191818E-2,-6.597137451E-2,1.125935494E-1
1.057371667E0,2.272218466E-2,6.554794312E-2,-7.120704651E-2,9.941465684E-2
1.062360573E0,4.645526409E-3,5.980062485E-2,-1.072492599E-1,1.228824618E-1
1.067349532E0,-1.874923706E-3,-5.333900452E-3,-4.791164398E-2,4.824408214E-2
1.072252604E0,3.671234846E-2,-1.537084579E-2,5.611324310E-2,6.879502512E-2
1.077241563E0,9.897488356E-2,9.948730469E-3,1.641759872E-1,1.919603074E-1
1.082230469E0,8.055973053E-2,3.670978546E-2,3.238973618E-1,3.357781701E-1
1.087219427E0,3.671205044E-2,8.653545380E-2,3.731946945E-1,3.848511913E-1
1.092208386E0,-3.242778778E-2,7.128620148E-2,2.987642288E-1,3.088581363E-1
1.097197344E0,-6.979566813E-2,6.521224976E-2,2.322740555E-1,2.511479836E-1
1.102101615E0,-5.431330204E-2,5.886793137E-2,1.450920105E-1,1.657318908E-1
1.107090573E0,1.616299152E-3,1.682424545E-2,-1.258659363E-2,2.107344294E-2
1.112079479E0,3.047591448E-2,-1.047372818E-2,-1.571044922E-1,1.603755025E-1
1.117068438E0,3.653585911E-3,-4.928064346E-2,-1.935272217E-1,1.997366167E-1
1.122057396E0,-5.454123020E-2,-1.112484932E-1,-2.107162476E-1,2.444428563E-1
1.127046354E0,-1.298230886E-1,-1.130685806E-1,-2.444372177E-1,2.989784134E-1
1.131945834E0,-1.409860849E-1,-7.418394089E-2,-2.375898361E-1,2.860581470E-1
1.136934792E0,-1.786390245E-1,-2.825069427E-2,-2.190065384E-1,2.840314536E-1
1.141923698E0,-1.615947783E-1,-3.945970535E-2,-1.888027191E-1,2.516275173E-1
1.146912657E0,-1.541629434E-1,-3.606224060E-2,-1.352205276E-1,2.082097246E-1
1.151901615E0,-1.133442521E-1,-2.066612244E-2,-5.841445923E-2,1.291752962E-1
1.156890573E0,-7.248342037E-2,-3.375005722E-2,-3.730773926E-3,8.004268402E-2
1.161795157E0,-2.422505617E-2,-4.120826721E-3,3.627300262E-2,4.381284376E-2
1.166784115E0,1.450479031E-2,2.991867065E-2,4.745578766E-2,5.794452155E-2
1.171773073E0,3.183573484E-2,1.615333557E-2,5.615043640E-2,6.653807760E-2
1.176762032E0,4.203277826E-2,7.192611694E-3,8.617305756E-2,9.614719944E-2
1.181750938E0,1.636785269E-2,1.236391068E-2,1.089220047E-1,1.108367087E-1
1.186739896E0,4.789888859E-3,-1.116228104E-2,8.169364929E-2,8.259171803E-2
1.191640782E0,4.041343927E-2,-1.297473907E-3,9.751224518E-2,1.055630971E-1
1.196629740E0,4.685389996E-2,8.199214935E-3,1.323652267E-1,1.406522958E-1
1.201618646E0,5.304443836E-2,-2.055454254E-2,1.717710495E-1,1.809461111E-1
1.206607657E0,4.262661934E-2,-3.961038589E-2,1.538515091E-1,1.644879880E-1
1.211596563E0,-3.193855286E-2,-4.444313049E-2,9.104347229E-2,1.062270062E-1
1.216585521E0,-4.668068886E-2,-2.575731277E-2,1.096715927E-1,1.219441845E-1
1.221485625E0,-5.418431759E-2,2.361726761E-2,8.540248871E-2,1.038619308E-1
1.226474532E0,-8.522796631E-2,4.862594604E-2,6.854629517E-2,1.196949600E-1
1.231463490E0,-8.983236551E-2,5.908584595E-2,9.937858582E-2,1.464141196E-1
1.236452448E0,-1.017093658E-1,3.146362305E-2,8.007526398E-2,1.332171257E-1
1.241441354E0,-9.965968132E-2,6.257534027E-3,3.254795074E-2,1.050265581E-1
1.246430313E0,-9.786564112E-2,-4.491329193E-3,-5.059242249E-3,9.809919307E-2
1.251298907E0,-6.290912628E-2,-3.412294388E-2,2.773284912E-3,7.162139748E-2
1.256287865E0,-9.064793587E-3,-4.448795319E-2,1.051902771E-2,4.660470368E-2
1.261276823E0,2.104371786E-2,-4.299736023E-2,-7.858276367E-4,4.787722395E-2
1.266265729E0,6.517499685E-2,-4.851484299E-2,-8.332633972E-2,1.163819105E-1
1.271254688E0,6.381917000E-2,-3.942632675E-2,-1.154394150E-1,1.376720023E-1
1.276243646E0,9.572565556E-2,8.249282837E-4,-1.427040100E-1,1.718386339E-1
1.281153125E0,6.339961290E-2,2.671670914E-2,-1.318531036E-1,1.487230123E-1
1.286142032E0,4.118794203E-2,2.164554596E-2,-7.842350006E-2,9.118783685E-2
1.291130990E0,2.901679277E-2,3.575897217E-2,-7.779312134E-2,9.040159335E-2
1.296119948E0,-4.232203960E-2,3.797531128E-2,-4.396629333E-2,7.187707738E-2
1.301108854E0,-1.224427819E-1,-3.121042252E-2,8.629798889E-3,1.266522749E-1
1.306097813E0,-1.020244956E-1,-1.913166046E-2,1.330852509E-2,1.046524485E-1
1.310991719E0,-4.349726439E-2,-2.308368683E-3,2.738475800E-2,5.145158448E-2
1.315980677E0,-1.870232821E-2,-1.897668839E-2,3.188419342E-2,4.155109592E-2
1.320969584E0,3.931105137E-3,7.287025452E-3,1.254558563E-2,1.503150180E-2
1.325958542E0,1.522701979E-2,-2.126836777E-2,-3.283596039E-2,4.198101825E-2
1.330947448E0,-3.262901306E-2,-5.177259445E-2,-7.320213318E-2,9.541282058E-2
1.335936407E0,-8.252948523E-2,-6.281805038E-2,-1.014423370E-1,1.450784999E-1
1.340841823E0,-3.234308958E-2,-6.887722015E-2,-1.010017395E-1,1.264574960E-1
1.345830782E0,-6.294429302E-3,-6.280374527E-2,-6.027984619E-2,8.727880680E-2
1.350819688E0,-1.561582088E-3,-7.811975479E-2,-2.468776703E-2,8.194278777E-2
1.355808646E0,-1.689076424E-3,-6.218624115E-2,-3.753662109E-3,6.232231981E-2
1.360797552E0,-2.333933115E-2,-2.491807938E-2,-2.340984344E-2,4.139632627E-2
1.365786563E0,-8.070081472E-2,-2.605915070E-2,4.671096802E-3,8.493244361E-2
1.370722344E0,-1.449397504E-1,-2.957439423E-2,6.104564667E-2,1.600273321E-1
1.375711250E0,-1.730827689E-1,-2.842617035E-2,9.088039398E-2,1.975473059E-1
1.380700157E0,-1.797259748E-1,-2.518463135E-2,8.972358704E-2,2.024500278E-1
1.385689167E0,-1.437854767E-1,-1.730012894E-2,6.962680817E-2,1.606905417E-1
1.390678125E0,-1.129652858E-1,-1.921606064E-2,4.981422424E-2,1.249474678E-1
1.395667032E0,-6.348967552E-2,-1.402997971E-2,1.686096191E-3,6.504323292E-2
1.400539063E0,-4.547077417E-2,-3.479385376E-2,-4.138469696E-2,7.064627878E-2
1.405527969E0,1.226246357E-3,-5.762290955E-2,-6.755542755E-2,8.880112148E-2
1.410516927E0,5.277782679E-2,-4.017829895E-3,-9.127521515E-2,1.055121171E-1
1.415505886E0,5.438911915E-2,1.625490189E-2,-9.599399567E-2,1.115223983E-1
1.420494792E0,7.783699036E-2,3.425121307E-3,-7.710361481E-2,1.096143054E-1
1.425483802E0,7.258057594E-2,-2.089786530E-2,-8.463096619E-2,1.134330693E-1
1.430417136E0,4.353755713E-2,-2.090835571E-2,-8.275604248E-2,9.581879140E-2
1.435406094E0,-1.110559702E-2,-4.184627533E-2,-7.162857056E-2,8.369645849E-2
1.440395000E0,1.697003841E-3,-1.955795288E-2,-1.058959961E-1,1.077003033E-1
1.445384011E0,1.470148563E-2,3.166913986E-2,-1.805734634E-1,1.839180355E-1
1.450372917E0,5.175089836E-2,2.876806259E-2,-2.337141037E-1,2.410975719E-1
1.455361875E0,4.142045975E-2,1.983118057E-2,-2.608089447E-1,2.648211393E-1
1.460263021E0,5.025929213E-2,7.127285004E-3,-2.809791565E-1,2.855277237E-1
1.465251927E0,3.709721565E-2,6.864166260E-2,-1.633777618E-1,1.810529600E-1
1.470240834E0,-4.612940550E-2,-1.210212708E-3,1.994228363E-2,5.027008397E-2
1.475229844E0,-1.683475673E-1,-1.022491455E-1,1.547565460E-1,2.504902787E-1
1.480218750E0,-2.339940369E-1,-1.586627960E-1,3.105592728E-1,4.199692299E-1
1.485207709E0,-2.264070213E-1,-1.824970245E-1,4.205312729E-1,5.112845145E-1
1.490110521E0,-1.717763841E-1,-1.503124237E-1,4.731578827E-1,5.253373514E-1
1.495099427E0,-1.317178905E-1,-1.003870964E-1,4.687891006E-1,4.971824541E-1
1.500088334E0,-4.899406433E-2,-5.182027817E-2,4.149923325E-1,4.210752849E-1
1.505077292E0,5.691552162E-2,-1.857233047E-2,3.239355087E-1,3.294214958E-1
1.510066250E0,6.950145960E-2,-2.021789551E-4,2.599172592E-1,2.690492063E-1
1.515055209E0,4.173058271E-2,9.870529175E-4,2.441196442E-1,2.476627071E-1
1.519921250E0,-1.104474068E-4,-9.877204895E-3,1.738967896E-1,1.741771075E-1
1.524910209E0,3.387272358E-3,1.495170593E-2,9.478092194E-2,9.601276107E-2
1.529899167E0,1.639902592E-2,3.257656097E-2,6.614875793E-2,7.553686883E-2
1.534888073E0,2.005994320E-2,6.197595596E-2,3.059005737E-2,7.196646475E-2
1.539876979E0,9.719073772E-3,5.321025848E-2,-3.086280823E-2,6.227603821E-2
1.544865990E0,-3.340977430E-2,4.713726044E-2,-1.829910278E-2,6.060521020E-2
1.549805938E0,-3.322833776E-2,3.627872467E-2,2.744293213E-2,5.633278635E-2
1.554791979E0,-1.601541042E-2,1.129913330E-2,1.155185699E-1,1.171695514E-1
1.559778021E0,1.361513138E-2,-3.248643875E-2,1.339292526E-1,1.384838807E-1
1.564764115E0,2.661067247E-2,-4.501819611E-2,6.664848328E-2,8.471591464E-2
1.569750157E0,4.667532444E-2,-6.689453125E-2,-2.475738525E-3,8.160633250E-2
1.574736198E0,2.602082491E-2,-4.796981812E-2,-1.020050049E-1,1.156858150E-1
1.579652709E0,-3.542274237E-2,-4.083776474E-2,-1.889009476E-1,1.964842531E-1
1.584638750E0,-6.092548370E-2,-6.892538071E-2,-2.847824097E-1,2.992718556E-1
1.589624792E0,-1.053782105E-1,-7.495737076E-2,-3.206720352E-1,3.457654246E-1
1.594610886E0,-1.114201546E-1,-7.085180283E-2,-2.805194855E-1,3.100413046E-1
1.599596927E0,-9.117653966E-2,-6.871080399E-2,-2.124099731E-1,2.411479477E-1
1.604582969E0,-7.791858912E-2,-5.694103241E-2,-1.283264160E-1,1.605654282E-1
1.609500052E0,-6.473940611E-2,-5.466651917E-2,-6.874942780E-2,1.091150899E-1
1.614486094E0,-7.577693462E-2,-3.576612473E-2,-4.528617859E-2,9.524808381E-2
1.619472136E0,-6.600975990E-2,2.093219757E-2,2.556133270E-2,7.381617050E-2
1.624458229E0,-4.022037983E-2,2.712345123E-2,5.078506470E-2,7.023164071E-2
1.629444271E0,-8.144569397E-2,3.312110901E-2,7.825946808E-2,1.177070655E-1
1.634430313E0,-1.034878194E-1,-2.055406570E-2,1.246309280E-1,1.632944170E-1
1.639345313E0,-5.424505472E-2,4.319190979E-3,1.351280212E-1,1.456734825E-1
1.644331354E0,-3.386843204E-2,5.104541779E-3,9.570693970E-2,1.016510961E-1
1.649317396E0,-6.130158901E-3,-1.287460327E-3,1.207485199E-1,1.209108823E-1
1.654303490E0,2.643799782E-2,-6.394386292E-4,1.147432327E-1,1.177513739E-1
1.659289532E0,8.058214188E-2,4.647731781E-3,1.088075638E-1,1.354775588E-1
1.664275573E0,9.193563461E-2,2.664899826E-2,7.907867432E-2,1.241602463E-1
1.669155104E0,5.593109131E-2,9.336471558E-4,2.346038818E-2,6.065928194E-2
1.674141146E0,3.707224131E-2,-2.223491669E-2,-1.743507385E-2,4.661249184E-2
1.679127188E0,4.032790661E-3,-7.137060165E-2,-4.846858978E-2,8.636683609E-2
1.684113282E0,-4.563814402E-2,-7.494926453E-2,-9.585857391E-2,1.299580649E-1
1.689099323E0,-5.234390497E-2,-8.081626892E-2,-1.096096039E-1,1.458952329E-1
1.694085365E0,-5.905973911E-2,-8.662462234E-2,-6.623363495E-2,1.240111784E-1
1.699039532E0,-4.417288303E-2,-6.611394882E-2,-1.379203796E-2,8.070017432E-2
1.704025573E0,-3.653585911E-2,-5.774164200E-2,1.000185013E-1,1.211307839E-1
1.709011615E0,-4.784274101E-2,-4.724359512E-2,1.535673141E-1,1.676418955E-1
1.713997709E0,-8.054858446E-2,-5.825138092E-2,9.504508972E-2,1.375313307E-1
1.718983750E0,-8.943483233E-2,-3.124427795E-2,4.656600952E-2,1.055612968E-1
1.723969792E0,-4.856544733E-2,-5.195760727E-2,4.363250732E-2,8.343854818E-2
1.728886927E0,-3.256738186E-3,-6.309223175E-2,8.352470398E-2,1.047263683E-1
1.733872969E0,5.859965086E-2,-6.226778030E-2,1.278228760E-1,1.537851851E-1
1.738859011E0,1.248744130E-1,-8.051395416E-2,1.290063858E-1,1.967708399E-1
1.743845104E0,1.005055904E-1,-4.422760010E-2,1.682949066E-1,2.009493218E-1
1.748831146E0,1.718175411E-2,-6.022453308E-3,1.241703033E-1,1.254979954E-1
1.753817188E0,-3.687179089E-2,5.587577820E-3,1.089820862E-1,1.151861324E-1
1.758724323E0,-6.670564413E-2,-1.628875732E-2,6.309795380E-2,9.325405271E-2
1.763710365E0,-7.519906759E-2,-3.312826157E-2,1.994323730E-2,8.455834788E-2
1.768696407E0,-8.404207230E-2,-3.323411942E-2,1.995086670E-2,9.255060071E-2
1.773682500E0,-7.648611069E-2,-5.969858170E-2,3.196048737E-2,1.021543858E-1
1.778668542E0,-4.297930002E-2,-4.327487946E-2,6.530094147E-2,8.935406190E-2
1.783654584E0,-7.372295856E-2,-2.228116989E-2,7.936859131E-2,1.105933924E-1
1.788579844E0,-3.433821201E-1,-6.335258484E-2,6.719779968E-2,3.555845535E-1
1.793565886E0,1.307928562E-2,-2.331829071E-2,-1.752395630E-1,1.772673541E-1
1.798551927E0,2.088270187E-1,-1.907157898E-2,-2.185077667E-1,3.028499513E-1
1.803538021E0,6.809163094E-2,-1.025595665E-1,-2.021217346E-1,2.366603695E-1
1.808524063E0,-3.768706322E-2,-9.958839417E-2,-1.527624130E-1,1.862109498E-1
1.813510104E0,-7.580250502E-2,-7.021713257E-2,-1.942377090E-1,2.200108022E-1
1.818393073E0,2.860826254E-2,-2.195978165E-2,-1.973962784E-1,2.006637870E-1
1.823379115E0,8.672785759E-2,3.087234497E-2,-9.371471405E-2,1.313669311E-1
1.828365157E0,1.612800360E-2,7.383823395E-3,-3.847408295E-2,4.236612334E-2
1.833351250E0,-1.823210716E-2,1.040220261E-2,-4.316711426E-2,4.800015942E-2
1.838337292E0,-9.732484818E-3,-3.168630600E-2,-1.695156097E-2,3.723034606E-2
1.843323334E0,-2.037376165E-2,-2.599906921E-2,4.472351074E-2,5.559886849E-2
1.848274584E0,2.164858580E-2,-3.946542740E-2,5.127334595E-2,6.822856609E-2
1.853260625E0,4.958325624E-2,-4.093837738E-2,7.673835754E-2,1.001160605E-1
1.858246667E0,1.108496189E-1,-1.864624023E-2,6.158733368E-2,1.281730079E-1
1.863232761E0,9.622377157E-2,-4.424953461E-2,7.274341583E-2,1.284859528E-1
1.868218802E0,1.037645936E-1,-9.344244003E-2,7.903480530E-2,1.604527374E-1
1.873204844E0,9.005284309E-2,-1.065926552E-1,1.422729492E-1,1.992814612E-1
1.878121302E0,7.904195786E-2,-8.419847488E-2,1.836814880E-1,2.169698212E-1
1.883107344E0,2.324843407E-2,-5.267620087E-2,2.248163223E-1,2.320725115E-1
1.888093386E0,-3.683090210E-2,-2.165460587E-2,2.300853729E-1,2.340186235E-1
1.893079479E0,-6.835240126E-2,4.170417786E-3,2.069187164E-1,2.179559551E-1
1.898065521E0,-1.001740694E-1,-1.374721527E-3,1.484746933E-1,1.791130051E-1
1.903051563E0,-6.559574604E-2,-2.606821060E-2,1.262626648E-1,1.446534273E-1
1.907968490E0,-3.892576694E-2,-2.929496765E-2,3.780841827E-2,6.166755188E-2
1.912954532E0,-5.816209316E-2,-5.873870850E-2,-7.120132446E-2,1.090994664E-1
1.917940573E0,-9.671407938E-2,-3.571653366E-2,-1.032352448E-1,1.458999647E-1
1.922926667E0,-8.545684814E-2,-2.228355408E-2,-7.801246643E-2,1.178362194E-1
1.927912709E0,-7.446146011E-2,-3.010749817E-2,-7.447624207E-2,1.095339268E-1
1.932898750E0,-5.169439316E-2,-3.305292130E-2,-5.674457550E-2,8.357483317E-2
1.937781302E0,-1.487684250E-2,-3.590965271E-2,-5.106544495E-2,6.417556597E-2
1.942767344E0,3.592228889E-2,-8.370637894E-2,-6.927108765E-2,1.144362368E-1
1.947753386E0,6.727200747E-2,-1.262559891E-1,-9.211921692E-2,1.701530132E-1
1.952739479E0,9.396040440E-2,-1.066484451E-1,-9.581279755E-2,1.714133618E-1
1.957725521E0,9.963488579E-2,-8.707094193E-2,-4.731369019E-2,1.405241782E-1
1.962711563E0,9.138894081E-2,-7.236003876E-2,-2.064609528E-2,1.183814807E-1
1.967661667E0,5.261838436E-2,-4.826068878E-2,-4.410839081E-2,8.392460065E-2
1.972647709E0,8.341217041E-2,-5.501842499E-2,-4.850006104E-2,1.110714778E-1
1.977633750E0,7.382082939E-2,-7.123231888E-2,-5.761814117E-2,1.176580142E-1
1.982619844E0,4.296982288E-2,-5.387496948E-2,-3.111267090E-2,7.561029233E-2
1.987605886E0,5.172371864E-3,-3.671979904E-2,-2.617549896E-2,4.539001893E-2
1.992591927E0,-1.102519035E-2,-3.126144409E-3,9.630203247E-3,1.496891498E-2
1.997496719E0,-5.096590519E-2,-7.865428925E-3,-1.897430420E-2,5.494918274E-2
2.002482761E0,-5.533659458E-2,-7.716178894E-3,-3.548049927E-2,6.618567779E-2
2.007468802E0,-3.125572205E-2,-2.889442444E-2,2.769470215E-3,4.265533835E-2
2.012454896E0,4.553377628E-3,-4.523324966E-2,4.548931122E-2,6.431218825E-2
2.017440938E0,7.872629166E-2,-3.779459000E-2,1.068658829E-1,1.380093365E-1
2.022426979E0,1.193962097E-1,-5.893707275E-2,5.606269836E-2,1.444716567E-1
2.027355052E0,9.303873777E-2,-7.994556427E-2,-1.329040527E-2,1.233861210E-1
2.032341094E0,6.667619944E-2,-7.473945618E-2,-1.074218750E-2,1.007327974E-1
2.037327136E0,2.841812372E-2,-4.591560364E-2,3.222751617E-2,6.288437971E-2
2.042313229E0,-1.219975948E-2,-1.727533340E-2,2.732276917E-2,3.455148319E-2
2.047299271E0,9.094834328E-3,-3.032207489E-3,8.173942566E-3,1.259855669E-2
2.052285313E0,3.488993645E-2,3.962516785E-3,-1.080894470E-2,3.674020264E-2
2.057166302E0,3.167235851E-2,3.971099854E-3,-3.445720673E-2,4.697027808E-2
2.062149948E0,3.564417362E-2,-2.191305161E-2,-5.564498901E-2,6.962078530E-2
2.067133646E0,4.490077496E-3,-8.010864258E-5,-2.204990387E-2,2.250256594E-2
2.072117344E0,-2.287447453E-3,4.058456421E-2,2.786636353E-2,4.928360259E-2
2.077100990E0,-1.847386360E-2,1.674556732E-2,9.162807465E-2,9.496000066E-2
2.082084636E0,-1.806837320E-2,1.186227798E-2,1.787395477E-1,1.800416776E-1
2.087013438E0,-2.247065306E-2,3.761386871E-2,2.486324310E-1,2.524635006E-1
2.091997136E0,1.107579470E-2,3.686761856E-2,2.229976654E-1,2.262959419E-1
2.096980782E0,2.792590857E-2,1.674127579E-2,1.787347794E-1,1.816762176E-1
2.101964479E0,3.508967161E-2,-3.195619583E-2,9.219074249E-2,1.036900020E-1
2.106948125E0,4.687172174E-2,-4.704093933E-2,3.015041351E-2,7.293048545E-2
2.111931823E0,5.146908760E-2,-4.766416550E-2,-1.240825653E-2,7.123836383E-2
2.116862813E0,4.907238483E-2,-3.632450104E-2,-2.853107452E-2,6.739132394E-2
2.121846511E0,3.721117973E-3,-3.623485565E-3,3.860664368E-2,3.895445164E-2
2.126830157E0,-3.203135729E-2,7.240772247E-3,6.252670288E-2,7.062595278E-2
2.131813854E0,-5.837821960E-2,-2.026319504E-2,7.689571381E-2,9.864869183E-2
2.136797500E0,-7.509458065E-2,-1.427412033E-2,9.114933014E-2,1.189585934E-1
2.141781198E0,-8.688777685E-2,-6.067562103E-2,3.642749786E-2,1.120623905E-1
2.146743698E0,-7.227480412E-2,-5.678319931E-2,-1.231193542E-3,9.192113398E-2
2.151727396E0,-6.252884865E-2,-5.771493912E-2,-1.242637634E-2,8.599584839E-2
2.156711042E0,-5.972784758E-2,-8.462429047E-2,-4.024124146E-2,1.111217523E-1
2.161694740E0,-4.920262098E-2,-1.231331825E-1,-6.313896179E-2,1.468645874E-1
2.166678386E0,1.161777973E-2,-1.279234886E-1,-1.120738983E-1,1.704697933E-1
2.171662032E0,2.693837881E-2,-5.889034271E-2,-1.464233398E-1,1.601047881E-1
2.176592657E0,3.472495079E-2,-9.160518646E-3,-1.829710007E-1,1.864621259E-1
2.181576354E0,-1.256811619E-2,4.787921906E-3,-1.836795807E-1,1.841713064E-1
2.186560000E0,-5.118012428E-3,9.443759918E-3,-1.797618866E-1,1.800825214E-1
2.191543646E0,-1.222407818E-2,-4.044008255E-2,-1.212873459E-1,1.284346084E-1
2.196527344E0,1.142138243E-2,-4.695892334E-2,-8.712959290E-2,9.963510634E-2
2.201510990E0,4.453265667E-2,-8.108615875E-3,-7.235527039E-2,8.534747983E-2
2.206437969E0,8.476948738E-2,-3.131628036E-2,-3.873157501E-2,9.831942997E-2
2.211421667E0,1.082563996E-1,-2.814960480E-2,-3.155708313E-2,1.162226218E-1
2.216405313E0,8.419740200E-2,-1.405715942E-3,-3.625869751E-2,9.168354098E-2
2.221388959E0,6.971716881E-2,-3.186035156E-2,-3.855609894E-2,8.580290434E-2
2.226372657E0,6.473934650E-2,-4.068374634E-2,6.685256958E-3,7.675312933E-2
2.231356354E0,3.585779667E-2,-3.304195404E-2,3.741931915E-2,6.146346683E-2
2.236249844E0,1.465946436E-2,2.933502197E-3,3.704547882E-2,3.994837708E-2
2.241233542E0,-1.361870766E-2,-8.893489838E-3,4.618167877E-2,4.896234077E-2
2.246217188E0,-3.233081102E-2,-5.384874344E-2,7.727622986E-3,6.328257792E-2
2.251200886E0,-7.926595211E-2,-7.940959930E-2,1.471328735E-2,1.131611968E-1
2.256184532E0,-6.380510330E-2,-8.337068558E-2,8.100986481E-2,1.326060354E-1
2.261168229E0,-1.017624140E-2,-8.994579315E-3,8.263778687E-2,8.374641583E-2
2.266133542E0,-1.864850521E-2,7.644176483E-3,1.294279099E-1,1.309877247E-1
2.271117240E0,-3.664731979E-2,-1.159000397E-2,1.402473450E-1,1.454189534E-1
2.276100886E0,-5.458730459E-2,-1.189041138E-2,1.392116547E-1,1.500034683E-1
2.281084532E0,-6.070816517E-2,-2.182340622E-2,1.358852386E-1,1.504212101E-1
2.286068229E0,-3.846138716E-2,-3.884744644E-2,1.064901352E-1,1.197019268E-1
2.291051927E0,-4.500138760E-2,5.986690521E-3,3.460788727E-2,5.708477214E-2
2.295943959E0,-1.584428549E-2,7.823944092E-3,-8.231163025E-3,1.949378179E-2
2.300927657E0,2.494543791E-2,2.150154114E-2,-4.357814789E-2,5.462276190E-2
2.305911354E0,2.737951279E-2,4.222774506E-2,-3.826236725E-2,6.322047865E-2
2.310895000E0,2.505695820E-2,5.847454071E-3,-3.065204620E-2,4.001989268E-2
2.315878698E0,5.865871906E-3,-2.077198029E-2,-3.494644165E-2,4.107477818E-2
2.320862344E0,-3.957015276E-2,-4.696083069E-2,-2.740573883E-2,6.724723882E-2
2.325824584E0,-6.556409597E-2,-3.485679626E-2,3.942680359E-2,8.407211052E-2
2.330808229E0,-6.009536982E-2,-2.516746521E-2,1.175279617E-1,1.343788546E-1
2.335791875E0,-9.172081947E-3,-1.083898544E-2,1.142005920E-1,1.150799110E-1
2.340775573E0,5.144971609E-2,-8.501529694E-3,9.660530090E-2,1.097812983E-1
2.345759219E0,2.406972647E-2,-4.168415070E-2,5.293846130E-2,7.154998838E-2
2.350742917E0,1.136118174E-2,-2.722120285E-2,2.562522888E-3,2.960805395E-2
2.355636979E0,-1.089930534E-3,-2.713632584E-2,-6.640529633E-2,7.174420889E-2
2.360620677E0,-2.490049601E-2,-3.204345703E-3,-8.498001099E-2,8.861097449E-2
2.365604323E0,8.646070957E-3,-7.500648499E-4,-1.343374252E-1,1.346174616E-1
2.370588021E0,1.815032959E-2,-2.984523773E-3,-1.429376602E-1,1.441163299E-1
2.375571719E0,1.785385609E-2,-7.631778717E-3,-1.704292297E-1,1.715317072E-1
2.380555365E0,-3.985488415E-2,-6.697082520E-2,-2.071266174E-1,2.213028216E-1
2.385519740E0,-5.710941553E-2,-6.619262695E-2,-2.721052170E-1,2.858044757E-1
2.390503438E0,-5.342638493E-2,-1.149239540E-1,-2.986745834E-1,3.244509217E-1
2.395487084E0,-9.678304195E-3,-8.700132370E-2,-2.538452148E-1,2.685149772E-1
2.400470729E0,-7.032752037E-3,-7.574748993E-2,-1.334390640E-1,1.536005392E-1
2.405454427E0,-2.360332012E-2,-4.301834106E-2,-1.173686981E-2,5.045243802E-2
2.410438125E0,-3.050452471E-2,-1.991224289E-2,4.236602783E-2,5.587399895E-2
2.415344167E0,-1.133626699E-2,-1.612091064E-2,1.222105026E-1,1.237893439E-1
2.420327865E0,-2.017498016E-3,-3.390455246E-2,1.872234344E-1,1.902792773E-1
2.425305157E0,-4.722952843E-3,-6.365251541E-2,2.209253311E-1,2.299607595E-1
2.430288802E0,-7.315337658E-3,-2.227067947E-2,3.257837296E-1,3.266259876E-1
2.435260521E0,9.253263474E-3,-1.269674301E-2,4.110231400E-1,4.113232935E-1
2.440244167E0,-1.705062389E-2,2.483081818E-2,4.031219482E-1,4.042457155E-1
2.445227865E0,-3.358191252E-2,5.910634995E-2,3.385314941E-1,3.452895567E-1
2.450211511E0,-5.723321438E-2,4.536581039E-2,2.247009277E-1,2.362714636E-1
2.455195209E0,-5.657386780E-2,4.114961624E-2,1.165914536E-1,1.359686011E-1
2.460178854E0,-3.937876225E-2,1.564741135E-2,4.609107971E-3,4.262361170E-2
2.465122032E0,-2.018797398E-2,-4.785537720E-3,-8.746814728E-2,8.989511918E-2
2.470105677E0,1.779854298E-2,-1.303195953E-3,-8.612442017E-2,8.795397774E-2
2.475089375E0,3.635811806E-2,9.012222290E-5,-9.918308258E-2,1.056371371E-1
2.480073073E0,4.038554430E-2,8.731842041E-3,-1.668243408E-1,1.718650574E-1
2.485056719E0,2.074104548E-2,1.991224289E-2,-1.936340332E-1,1.957570617E-1
2.490040417E0,-3.218704462E-2,-1.617908478E-2,-2.274875641E-1,2.303222969E-1
2.494935261E0,-6.108915806E-2,-1.860189438E-2,-1.565752029E-1,1.690967471E-1
2.499918959E0,-7.068139315E-2,-3.031158447E-2,-6.259250641E-2,9.915882890E-2
2.504902604E0,-3.009569645E-2,-7.499361038E-2,-3.757476807E-4,8.080800535E-2
2.509886302E0,4.825890064E-2,-4.575109482E-2,4.710578918E-2,8.149257354E-2
2.514869948E0,7.649409771E-2,-2.868890762E-2,8.706474304E-2,1.193929223E-1
2.519853646E0,4.308050871E-2,-1.439046860E-2,1.006526947E-1,1.104263590E-1
2.524780313E0,-1.118725538E-2,4.392147064E-3,9.755039215E-2,9.828796797E-2
2.529764011E0,-3.399175406E-2,-7.959365845E-3,7.550621033E-2,8.318640902E-2
2.534747657E0,-3.066152334E-2,1.528835297E-2,3.471565247E-2,4.877539622E-2
2.539731354E0,-3.234738111E-2,-1.391983032E-2,1.566028595E-2,3.854035933E-2
2.544715000E0,-1.751095057E-2,-7.159233093E-3,-4.127883911E-2,4.540738449E-2
2.549698698E0,1.347643137E-2,-3.351974487E-2,-1.168165207E-1,1.222754554E-1
2.554630052E0,-1.306343079E-2,-4.987096786E-2,-1.752128601E-1,1.826398451E-1
2.559613750E0,-2.297550440E-2,-3.259897232E-2,-1.548213959E-1,1.598756749E-1
2.564597396E0,-3.292167187E-2,-2.235841751E-2,-7.531356812E-2,8.518138796E-2
2.569581094E0,-2.155101299E-2,1.183176041E-2,-3.697299957E-2,4.440089428E-2
2.574564740E0,-1.036638021E-2,5.405426025E-3,3.428554535E-2,3.622401260E-2
2.579548438E0,-1.319247484E-2,3.743171692E-3,1.239538193E-1,1.247100719E-1
2.584474427E0,-2.019876242E-2,1.852893829E-2,2.129306793E-1,2.146876470E-1
2.589458125E0,-2.194273472E-2,4.479455948E-2,2.608795166E-1,2.656052679E-1
2.594441771E0,-4.331707954E-3,8.733367920E-2,2.443323135E-1,2.595076389E-1
2.599425417E0,2.042376995E-2,7.720565796E-2,2.231845856E-1,2.370426190E-1
2.604409115E0,1.881659031E-2,6.711196899E-2,1.689805984E-1,1.827909273E-1
2.609392813E0,5.012238026E-2,3.804779053E-2,1.414051056E-1,1.547749697E-1
2.614357084E0,2.381724119E-2,3.330612183E-2,1.068038940E-1,1.143836986E-1
2.619340782E0,-4.789531231E-3,8.798837662E-2,1.010074615E-1,1.340425355E-1
2.624324427E0,2.146124840E-3,5.931425095E-2,1.094207764E-1,1.244816955E-1
2.629308073E0,-1.233392954E-2,7.634449005E-2,1.128606796E-1,1.368142536E-1
2.634291771E0,-4.099041224E-2,1.266870499E-1,1.660699844E-1,2.128592545E-1
2.639275417E0,-3.861010075E-2,1.198043823E-1,1.926145554E-1,2.300960600E-1
2.644193802E0,-2.415448427E-2,1.250786781E-1,2.615823746E-1,2.909526654E-1
2.649177500E0,-2.366411686E-2,1.351842880E-1,2.966356277E-1,3.268447304E-1
2.654161146E0,-2.045083046E-2,1.787400246E-1,2.956142426E-1,3.460549281E-1
2.659144844E0,-2.156460285E-2,1.985092163E-1,3.348064423E-1,3.898285454E-1
2.664128490E0,6.149411201E-3,2.232494354E-1,3.497219086E-1,4.149500440E-1
2.669112188E0,7.732868195E-3,2.433080673E-1,3.619976044E-1,4.362348891E-1
2.674039115E0,-1.917785406E-2,2.539429665E-1,3.598060608E-1,4.408120027E-1
2.679022813E0,-5.077829957E-2,2.793164253E-1,3.692579269E-1,4.657762529E-1
2.684006459E0,-6.323555112E-2,3.049964905E-1,4.401664734E-1,5.392291891E-1
2.688990157E0,-1.888769865E-2,3.236227036E-1,5.293788910E-1,6.207498769E-1
2.693973802E0,8.263170719E-3,3.231291771E-1,6.487255096E-1,7.247934409E-1
2.698957500E0,-7.932186127E-3,3.010692596E-1,7.956972122E-1,8.507876775E-1
2.703850886E0,-2.423638105E-2,3.049197197E-1,9.297666550E-1,9.787897988E-1
2.708834584E0,-4.059594870E-2,3.083791733E-1,1.024888039E0,1.071046795E0
2.713818282E0,-5.445683002E-2,3.517322540E-1,1.067168236E0,1.124957407E0
2.718801927E0,-4.893144965E-2,3.586168289E-1,1.102170944E0,1.160078061E0
2.723784375E0,-3.824174404E-2,3.624486923E-1,1.132384300E0,1.189590555E0
2.728768021E0,-2.972674370E-2,3.561234474E-1,1.172116280E0,1.225383271E0
2.733706042E0,-7.090815902E-2,3.396291733E-1,1.207076073E0,1.255949277E0
2.738689636E0,-7.362747192E-2,3.226518631E-1,1.187382698E0,1.232640621E0
2.743673386E0,-7.912823558E-2,2.670407295E-1,1.158723831E0,1.191726876E0
2.748657032E0,-1.111218333E-1,3.107490540E-1,1.166375160E0,1.212165026E0
2.753640677E0,-6.959384680E-2,3.486142159E-1,1.209947586E0,1.261090138E0
2.758624375E0,-5.488646030E-2,3.377242088E-1,1.172829628E0,1.221719895E0
2.763608073E0,-4.076480865E-2,3.285193443E-1,1.088892937E0,1.138101295E0
2.768545469E0,-7.007080317E-2,3.235478401E-1,9.940795898E-1,1.047753479E0
2.773529167E0,-4.746055603E-2,3.274483681E-1,9.051494598E-1,9.637273903E-1
2.778512813E0,1.960957050E-2,2.974734306E-1,8.220090866E-1,8.743991741E-1
2.783496511E0,8.118766546E-2,3.266329765E-1,7.136754990E-1,7.890584618E-1
2.788480157E0,1.303921938E-1,3.599505424E-1,6.111621857E-1,7.211696988E-1
2.793463802E0,1.295794845E-1,3.071608543E-1,4.811286926E-1,5.853404583E-1
2.798366407E0,1.553397179E-1,2.430377007E-1,3.901205063E-1,4.851718884E-1
2.803350104E0,1.579483747E-1,2.243156433E-1,3.260850906E-1,4.261416235E-1
2.808333750E0,1.732892990E-1,1.961984634E-1,2.388057709E-1,3.543320680E-1
2.813317448E0,1.488934755E-1,1.827583313E-1,1.663799286E-1,2.885344959E-1
2.818301094E0,1.087499857E-1,1.838741302E-1,-1.008701324E-2,2.138644501E-1
2.823284792E0,4.562014341E-2,1.286449432E-1,-1.759138107E-1,2.226575570E-1
2.828248542E0,-2.654159069E-2,1.105041504E-1,-3.455619812E-1,3.637701282E-1
2.833232240E0,-4.367065430E-2,1.149530411E-1,-4.572591782E-1,4.735053154E-1
2.838215886E0,-5.158528686E-2,1.492452621E-1,-5.496330261E-1,5.718668145E-1
2.843199584E0,-4.574027658E-2,1.609978676E-1,-5.682611465E-1,5.923961655E-1
2.848183229E0,-6.418097019E-2,1.431345940E-1,-4.923200607E-1,5.167066393E-1
2.853166927E0,-9.947481751E-2,1.433258057E-1,-3.605747223E-1,4.005641724E-1
2.858095365E0,-7.289686799E-2,1.563410759E-1,-1.828470230E-1,2.513752557E-1
2.863079063E0,-6.101110578E-2,1.722402573E-1,4.301071167E-2,1.877204905E-1
2.868062709E0,-3.033983707E-2,1.716718674E-1,2.739839554E-1,3.247444281E-1
2.873046407E0,-1.897722483E-2,1.498270035E-1,5.148677826E-1,5.365604342E-1
2.878030052E0,-5.046665668E-3,1.610779762E-1,7.681417465E-1,7.848651642E-1
2.883013750E0,-1.477122307E-2,1.523079872E-1,1.026850700E0,1.038189902E0
2.887943750E0,-4.545566440E-2,1.521797180E-1,1.233931541E0,1.244110901E0
2.892927448E0,-7.578292489E-2,1.676306725E-1,1.330495834E0,1.343153848E0
2.897911094E0,-9.403181076E-2,2.197871208E-1,1.379292488E0,1.399855752E0
2.902894792E0,-7.649546862E-2,2.491035461E-1,1.288001060E0,1.314096977E0
2.907878438E0,-6.623172760E-2,2.511644363E-1,1.178875923E0,1.207153121E0
2.912862136E0,-8.460864425E-2,2.644481659E-1,1.063832283E0,1.099468318E0
2.917754271E0,-6.247180700E-2,2.821984291E-1,9.474554062E-1,9.905606628E-1
2.922737969E0,-7.399439812E-2,2.806277275E-1,7.870044708E-1,8.388105445E-1
2.927721667E0,-3.313297033E-2,2.696666718E-1,6.539764404E-1,7.081688303E-1
2.932705313E0,-6.842434406E-3,2.803196907E-1,5.980081558E-1,6.604844452E-1
2.937689011E0,-9.110867977E-3,2.839431763E-1,5.994234085E-1,6.633363837E-1
2.942672657E0,-2.313667536E-2,2.663083076E-1,5.627441406E-1,6.230059296E-1
2.947636719E0,-5.837702751E-2,2.251267433E-1,5.857305527E-1,6.302144145E-1
2.952620469E0,-6.939098239E-2,2.554492950E-1,6.370706558E-1,6.898756926E-1
2.957604115E0,-8.981510997E-2,2.523102760E-1,6.499538422E-1,7.029702884E-1
2.962587761E0,-7.438981533E-2,2.656226158E-1,6.058101654E-1,6.656539455E-1
2.967571459E0,-8.534801006E-2,2.574887276E-1,5.311403275E-1,5.964015217E-1
2.972555104E0,-3.706881404E-2,2.305212021E-1,4.404306412E-1,4.984909942E-1
2.977482969E0,-5.115374923E-2,2.441954613E-1,4.169902802E-1,4.859310888E-1
2.982466667E0,-4.154080153E-2,2.437539101E-1,3.983898163E-1,4.688881024E-1
2.987450313E0,-3.940632939E-2,2.173299789E-1,4.250288010E-1,4.789933822E-1
2.992433959E0,-7.326680422E-2,2.078042030E-1,4.728231430E-1,5.216438785E-1
2.997417657E0,-1.926577091E-2,2.149443626E-1,5.582666397E-1,5.985264321E-1
3.002401354E0,7.983267307E-3,1.884737015E-1,6.597757339E-1,6.862143162E-1
3.007331927E0,-1.956617832E-2,1.857752800E-1,7.058954239E-1,7.301942478E-1
3.012315625E0,-8.522093296E-3,2.062768936E-1,7.257547379E-1,7.545480253E-1
3.017299271E0,-1.603299379E-2,2.025547028E-1,6.909217834E-1,7.201794050E-1
3.022282917E0,2.954268456E-2,1.772818565E-1,6.065473557E-1,6.326146706E-1
3.027266615E0,5.860280991E-2,1.876540184E-1,4.683065414E-1,5.078969745E-1
3.032250261E0,4.728573561E-2,1.789407730E-1,3.240766525E-1,3.732042574E-1
3.037179115E0,4.326832294E-2,1.682524681E-1,1.951446533E-1,2.612708872E-1
3.042162813E0,2.251571417E-2,1.484351158E-1,1.004209518E-1,1.806220046E-1
3.047146459E0,-3.063738346E-3,1.626272202E-1,8.699131012E-2,1.844572776E-1
3.052130104E0,-5.269923806E-2,1.532993317E-1,1.186714172E-1,2.008999752E-1
3.057113802E0,-1.190123260E-1,1.536641121E-1,1.928224564E-1,2.737829300E-1
3.062097448E0,-1.591560543E-1,1.587858200E-1,2.616310120E-1,3.449556097E-1
3.067023177E0,-1.566564739E-1,1.567826271E-1,3.132429123E-1,3.837227711E-1
3.072006875E0,-1.281833947E-1,1.521897316E-1,3.407888412E-1,3.946260653E-1
3.076990573E0,-8.114275336E-2,1.594572067E-1,3.277606964E-1,3.734137401E-1
3.081974219E0,-4.874563217E-2,1.430130005E-1,3.124170303E-1,3.470349490E-1
3.086957917E0,-4.715555906E-2,1.528363228E-1,3.066854477E-1,3.458880630E-1
3.091941563E0,-4.733902216E-2,1.412439346E-1,3.199501038E-1,3.529290311E-1
3.096874688E0,-2.564722300E-2,1.345310211E-1,2.665462494E-1,2.996719519E-1
3.101858386E0,-5.380406976E-2,1.517367363E-1,2.396554947E-1,2.887103587E-1
3.106842032E0,-6.022411585E-2,1.239066124E-1,1.914873123E-1,2.358965525E-1
3.111825677E0,-6.426265836E-2,1.204648018E-1,1.530332565E-1,2.050868970E-1
3.116809375E0,-1.064462960E-1,9.364986420E-2,1.646251678E-1,2.172614942E-1
3.121793021E0,-1.105896235E-1,8.883476257E-2,2.020778656E-1,2.468950053E-1
3.126753021E0,-1.098716259E-1,8.431625366E-2,2.248382568E-1,2.640705333E-1
3.131736719E0,-1.043585837E-1,1.059646606E-1,2.284021378E-1,2.725559756E-1
3.136720365E0,-1.011938751E-1,1.038713455E-1,2.389650345E-1,2.795241393E-1
3.141704063E0,-6.487125158E-2,7.824039459E-2,2.422218323E-1,2.626808989E-1
3.146687709E0,-5.258297920E-2,7.672357559E-2,3.047685623E-1,3.186461256E-1
3.151671407E0,-7.593467832E-2,7.535648346E-2,4.071063995E-1,4.209278982E-1
3.156566407E0,-7.300874591E-2,8.113956451E-2,4.705791473E-1,4.830720855E-1
3.161550104E0,-8.910971880E-2,1.152310371E-1,4.742069244E-1,4.960755397E-1
3.166533750E0,-1.194270849E-1,8.965539932E-2,5.253181458E-1,5.461319195E-1
3.171517396E0,-1.139066219E-1,9.517955780E-2,5.427474976E-1,5.626799382E-1
3.176501094E0,-7.759976387E-2,8.155393600E-2,5.482025146E-1,5.596416397E-1
3.181484792E0,-1.791352034E-2,9.645175934E-2,5.607910156E-1,5.693069465E-1
3.186413802E0,8.092403412E-3,1.206326485E-1,5.353069305E-1,5.487907003E-1
3.191397500E0,2.232038975E-2,1.444416046E-1,5.172262192E-1,5.374798031E-1
3.196381146E0,3.394365311E-3,1.015839577E-1,4.826335907E-1,4.932200371E-1
3.201364844E0,8.578360081E-3,9.946107864E-2,4.744510651E-1,4.848400845E-1
3.206348490E0,5.885285139E-2,1.067037582E-1,5.115480423E-1,5.258619113E-1
3.211332188E0,5.166840553E-2,1.018004417E-1,5.389347076E-1,5.508934318E-1
3.216261615E0,3.983885050E-2,8.706617355E-2,5.947771072E-1,6.024346105E-1
3.221245313E0,-9.719073772E-3,5.313825607E-2,6.360416412E-1,6.383315001E-1
3.226228959E0,-7.526814938E-2,3.340005875E-2,6.343584061E-1,6.396807372E-1
3.231212657E0,-8.548098803E-2,1.581335068E-2,6.352443695E-1,6.411649323E-1
3.236196302E0,-7.187253237E-2,1.694869995E-2,5.769443512E-1,5.816508435E-1
3.241180000E0,-2.269443870E-2,4.148054123E-2,4.717884064E-1,4.741518462E-1
3.246081198E0,6.976127625E-3,4.676008224E-2,3.200244904E-1,3.234978301E-1
3.251063021E0,-4.142105579E-3,2.100229263E-2,2.028484344E-1,2.039748531E-1
3.256044844E0,6.111025810E-3,4.553890228E-2,7.230854034E-2,8.567182305E-2
3.261026667E0,1.144927740E-2,2.522039413E-2,-5.974960327E-2,6.585718886E-2
3.266008490E0,1.421684027E-2,1.516485214E-2,-1.387233734E-1,1.402721128E-1
3.270990313E0,1.443392038E-2,1.043128967E-2,-1.697559357E-1,1.706875144E-1
3.275929271E0,-1.422911882E-2,3.960800171E-2,-1.485462189E-1,1.543931370E-1
3.280911094E0,-3.577411175E-2,2.864551544E-2,-4.696941376E-2,6.562376441E-2
3.285892917E0,-2.625882626E-2,2.514505386E-2,6.314563751E-2,7.286405991E-2
3.290874740E0,-3.570234776E-2,2.956390381E-4,1.889629364E-1,1.923063607E-1
3.295856563E0,-4.241546988E-2,-1.037788391E-2,2.710971832E-1,2.745914334E-1
3.300838386E0,-2.474647760E-2,-3.066635132E-2,3.074779510E-1,3.099927477E-1
3.305775990E0,7.564365864E-3,-1.781177521E-2,2.819023132E-1,2.825657325E-1
3.310757813E0,1.875966787E-2,-2.185487747E-2,2.423362732E-1,2.440418614E-1
3.315739636E0,-7.574439049E-3,-2.363538742E-2,1.888885498E-1,1.905121726E-1
3.320721459E0,-5.249324441E-2,-3.964900970E-2,1.311225891E-1,1.466994140E-1
3.325703282E0,-7.110449672E-2,-3.157043457E-2,2.861499786E-2,8.289366619E-2
3.330685104E0,-8.040678501E-2,-1.133346558E-2,-1.088218689E-1,1.357788557E-1
3.335622292E0,-7.596144080E-2,-2.633571625E-2,-2.002229691E-1,2.157613213E-1
3.340604115E0,-9.591585398E-2,-4.056644440E-2,-2.293815613E-1,2.519154384E-1
3.345585938E0,-1.260245442E-1,-1.586723328E-2,-2.206382751E-1,2.545883016E-1
3.350567761E0,-9.234002233E-2,-2.360343933E-4,-1.789932251E-1,2.014083168E-1
3.355549584E0,-6.445762515E-2,1.333427429E-2,-5.710315704E-2,8.713988097E-2
3.360531407E0,-6.350803375E-2,4.842758179E-2,9.693527222E-2,1.255983600E-1
3.365471198E0,-2.931863070E-2,3.099203110E-2,2.282972336E-1,2.322492518E-1
3.370453021E0,7.093489170E-3,7.330751419E-2,3.133182526E-1,3.218581001E-1
3.375434844E0,7.683151960E-2,1.032404900E-1,3.620529175E-1,3.842447088E-1
3.380416667E0,1.464806199E-1,1.519088745E-1,4.341211319E-1,4.826945570E-1
3.385398490E0,1.637566686E-1,1.810555458E-1,5.127449036E-1,5.678949668E-1
3.390380313E0,1.220223308E-1,1.479945183E-1,6.287927628E-1,6.573980264E-1
3.395317084E0,1.048862338E-1,1.598911285E-1,6.941823959E-1,7.200385364E-1
3.400298854E0,9.550017118E-2,1.425542831E-1,7.331762314E-1,7.529869804E-1
3.405280729E0,8.914315701E-2,1.629748344E-1,7.387485504E-1,7.617458368E-1
3.410262552E0,9.511733055E-2,1.515936852E-1,7.279891968E-1,7.496640732E-1
3.415244375E0,7.508617640E-2,1.564836502E-1,6.652688980E-1,6.875374705E-1
3.420226198E0,1.461482048E-2,1.395549774E-1,6.127786636E-1,6.286389069E-1
3.425189479E0,-1.964941621E-2,1.439108849E-1,4.800958633E-1,5.015859651E-1
3.430171302E0,-3.019255400E-2,1.503963470E-1,3.557643890E-1,3.874260601E-1
3.435153125E0,-2.927038074E-2,1.067905426E-1,2.967081070E-1,3.166965045E-1
3.440134948E0,-4.486143589E-4,9.443521500E-2,2.381744385E-1,2.562133373E-1
3.445116771E0,1.090344787E-2,1.011872292E-1,2.039146423E-1,2.279011230E-1
3.450098594E0,-3.057977557E-2,6.278419495E-2,1.865777969E-1,1.992191058E-1
3.455033854E0,-5.040198565E-2,9.366130829E-2,1.812334061E-1,2.101388786E-1
3.460015677E0,-2.265870571E-2,1.076359749E-1,1.664457321E-1,1.995071472E-1
3.464997500E0,1.685667038E-2,1.240215302E-1,1.421976089E-1,1.894350740E-1
3.469979271E0,4.208612442E-2,1.070981026E-1,1.371002197E-1,1.789908257E-1
3.474961146E0,1.029362082E-1,8.797931671E-2,1.819028854E-1,2.267705511E-1
3.479942969E0,1.444984078E-1,2.877759933E-2,2.072467804E-1,2.542816707E-1
3.484884688E0,1.172942519E-1,7.972240448E-3,2.110271454E-1,2.415656313E-1
3.489866459E0,8.574163914E-2,6.378650665E-3,2.218761444E-1,2.379523888E-1
3.494848282E0,9.001058340E-2,-1.197910309E-2,2.018299103E-1,2.213158754E-1
3.499830157E0,8.236634731E-2,-1.827239990E-3,1.606445312E-1,1.805386922E-1
3.504811979E0,6.998574734E-2,-6.007671356E-3,1.269283295E-1,1.450685968E-1
3.509793802E0,7.893806696E-2,-5.151271820E-3,8.862876892E-2,1.187973598E-1
3.514695365E0,7.823961973E-2,2.999782562E-3,6.006813049E-2,9.868443186E-2
3.519677240E0,5.166488886E-2,2.778339386E-2,2.932262421E-2,6.558196403E-2
3.524659063E0,1.365983486E-2,4.771232605E-2,-3.604888916E-3,4.975994744E-2
3.529640886E0,-1.914852858E-2,2.498483658E-2,-7.440567017E-2,8.079054374E-2
3.534622709E0,-8.671522141E-3,2.758502960E-3,-7.114028931E-2,7.171990935E-2
3.539604532E0,3.500115871E-2,9.526729584E-3,-5.379962921E-2,6.488636059E-2
3.544576979E0,4.265069962E-2,2.841949463E-2,-4.625129700E-2,6.903573224E-2
3.549558802E0,1.937961578E-2,2.606725693E-2,-2.465915680E-2,4.078167978E-2
3.554540625E0,3.178715706E-3,4.779005051E-2,-3.426170349E-2,5.888851745E-2
3.559522448E0,-1.563870907E-2,6.255435944E-2,-9.619712830E-2,1.158080507E-1
3.564504271E0,-3.500035405E-2,5.141401291E-2,-7.698249817E-2,9.896833095E-2
3.569486094E0,-5.730175972E-2,4.542112350E-2,-4.853439331E-2,8.776193629E-2
3.574425104E0,-7.282543182E-2,6.109762192E-2,-1.328659058E-2,9.598435505E-2
3.579406875E0,-4.107472301E-2,6.028127670E-2,6.906795502E-2,1.004556997E-1
3.584388750E0,1.644283533E-2,6.432819366E-2,1.269350052E-1,1.432514533E-1
3.589370573E0,1.436835527E-2,1.840925217E-2,2.484693527E-1,2.495643593E-1
3.594352396E0,4.609382153E-2,8.303165436E-3,3.738126755E-1,3.767353173E-1
3.599334219E0,7.820498943E-2,3.593444824E-2,4.578666687E-1,4.658853842E-1
3.604233594E0,8.912390471E-2,7.948923111E-2,4.986677170E-1,5.127680764E-1
3.609215417E0,8.601766825E-2,1.103129387E-1,5.108461380E-1,5.296524902E-1
3.614197240E0,4.997980595E-2,1.048898697E-1,4.684429169E-1,4.826371641E-1
3.619179063E0,2.591311932E-3,1.205430031E-1,4.004192352E-1,4.181780655E-1
3.624160886E0,-3.954929113E-2,1.288442612E-1,2.997465134E-1,3.286532555E-1
3.629142709E0,-4.610505700E-2,1.324367523E-1,1.594963074E-1,2.123775923E-1
3.634118594E0,-1.975056529E-2,1.504025459E-1,9.400367737E-2,1.784592447E-1
3.639100417E0,3.454387188E-3,1.566381454E-1,5.269908905E-2,1.653016497E-1
3.644082240E0,-1.444673538E-2,1.464409828E-1,6.153106689E-2,1.594984069E-1
3.649064063E0,-3.712394834E-2,9.837865829E-2,1.249084473E-1,1.632748240E-1
3.654045886E0,-7.403725386E-2,8.394432068E-2,1.497735977E-1,1.869767218E-1
3.659027709E0,-3.705048561E-2,8.621406555E-2,1.887102127E-1,2.107537614E-1
3.663966667E0,1.144534349E-2,6.940793991E-2,2.178478241E-1,2.289238574E-1
3.668948438E0,9.047889709E-2,6.922197342E-2,2.681932449E-1,2.913858765E-1
3.673930313E0,1.072108746E-1,7.361888885E-2,2.825622559E-1,3.110552055E-1
3.678912136E0,6.458759308E-2,3.495359421E-2,3.088092804E-1,3.174216164E-1
3.683893959E0,7.023137808E-2,3.916358948E-2,3.444185257E-1,3.536811474E-1
3.688875782E0,5.234891176E-2,5.506229401E-2,3.465328217E-1,3.547636696E-1
3.693811615E0,1.826649904E-2,6.340312958E-2,3.155031204E-1,3.223287775E-1
3.698793438E0,-5.957245827E-3,5.731630325E-2,2.182626724E-1,2.257415371E-1
3.703775261E0,-6.399512291E-3,5.360841751E-2,1.503725052E-1,1.597707936E-1
3.708757084E0,-2.144545317E-2,5.952835083E-2,5.213928223E-2,8.198802818E-2
3.713738907E0,-7.935762405E-3,5.614614487E-2,4.494667053E-3,5.688205288E-2
3.718720729E0,-4.040718079E-3,5.541944504E-2,-7.242202759E-3,5.603652195E-2
3.723590729E0,2.367019653E-3,2.664661407E-2,-4.049205780E-2,4.853093414E-2
3.728572604E0,2.548283339E-2,-1.836442947E-2,-3.791332245E-2,4.923461269E-2
3.733554427E0,6.723338366E-2,-1.781797409E-2,-4.486083984E-3,6.969887394E-2
3.738536250E0,6.352531910E-2,-2.683115005E-2,4.931449890E-3,6.913534536E-2
3.743518073E0,2.194279432E-2,-5.476188660E-2,3.801441193E-2,7.018152150E-2
3.748499896E0,4.985064268E-2,-2.539205551E-2,2.564525604E-2,6.154284862E-2
3.753507344E0,7.310265303E-2,-1.753950119E-2,1.330852509E-2,7.634624301E-2
3.758487761E0,7.030832767E-2,-2.273559570E-3,-6.087779999E-2,9.302976161E-2
3.763468177E0,5.333435535E-2,-5.836486816E-3,-9.421157837E-2,1.084178931E-1
3.768448594E0,3.387433290E-2,2.681732178E-2,-1.061439514E-1,1.146000768E-1
3.773429011E0,1.434642076E-2,5.463552475E-2,-1.085510254E-1,1.223690544E-1
3.778409427E0,-5.397379398E-3,3.501081467E-2,-5.167388916E-2,6.265045625E-2
3.783353490E0,-1.806992292E-2,3.236532211E-2,7.829380035E-2,8.662537367E-2
3.788333907E0,-3.771954775E-2,1.535511017E-2,2.357482910E-1,2.392400477E-1
3.793314323E0,-2.340674400E-3,5.130767822E-4,3.207807541E-1,3.207897040E-1
3.798294740E0,1.634204388E-2,3.063106537E-2,3.482255936E-1,3.499519804E-1
3.803275157E0,3.507083654E-2,5.544471741E-2,3.209390640E-1,3.275758890E-1
3.808255573E0,1.568675041E-2,8.693218231E-2,2.678661346E-1,2.820559245E-1
3.813201511E0,-1.799041033E-2,7.310914993E-2,2.199563980E-1,2.324853107E-1
3.818181927E0,-6.109005213E-2,4.289340973E-2,1.367645264E-1,1.558087762E-1
3.823162344E0,-8.995378017E-2,6.782865524E-2,9.929656982E-2,1.501739585E-1
3.828142761E0,-5.698904395E-2,6.885433197E-2,1.500205994E-1,1.746277481E-1
3.833123177E0,-1.984965801E-2,5.567502975E-2,2.121906281E-1,2.202693363E-1
3.838103594E0,-3.292900324E-2,2.815914154E-2,3.071937561E-1,3.102342023E-1
3.843048125E0,-1.718425751E-2,2.830982208E-3,4.229755402E-1,4.233339353E-1
3.848028542E0,1.307839155E-2,-1.323127747E-2,5.047292709E-1,5.050720226E-1
3.853008959E0,1.480728388E-2,2.506446838E-2,4.885921478E-1,4.894586501E-1
3.857989375E0,2.877449989E-2,5.557537079E-3,4.181566238E-1,4.191823232E-1
3.862969792E0,2.157366276E-2,1.931619644E-2,3.958749771E-1,3.969326591E-1
3.867950209E0,1.948618889E-2,4.452800751E-2,3.073949814E-1,3.112139611E-1
3.872886719E0,-6.172001362E-3,6.724643707E-2,1.673374176E-1,1.804494063E-1
3.877867136E0,-1.273399591E-2,8.531999588E-2,1.643276215E-2,8.781624007E-2
3.882847552E0,-1.931798458E-2,7.518959045E-2,-5.741024017E-2,9.655358470E-2
3.887827969E0,-1.889884472E-2,6.312036514E-2,-7.616043091E-2,1.007062960E-1
3.892808386E0,-4.262125492E-2,6.580018997E-2,-6.166744232E-2,9.974522452E-2
3.897788802E0,-2.824056149E-2,6.425952911E-2,-1.667308807E-2,7.214435710E-2
3.902739584E0,-4.738348722E-2,3.432846069E-2,5.641174316E-2,8.127682844E-2
3.907720000E0,-5.923721194E-2,1.655101776E-2,9.799385071E-2,1.156969241E-1
3.912700417E0,-5.658510327E-2,2.030801773E-2,1.867275238E-1,1.961669127E-1
3.917680834E0,-4.887181520E-2,7.312774658E-3,2.628707886E-1,2.674751997E-1
3.922661250E0,-2.661454678E-2,-5.878448486E-3,3.195009232E-1,3.206613949E-1
3.927641667E0,-1.161646843E-2,-2.881050110E-2,3.520689011E-1,3.534366965E-1
3.932586771E0,-3.722310066E-3,-4.499912262E-3,3.655738831E-1,3.656205256E-1
3.937567188E0,-2.664494514E-2,-1.147747040E-2,3.125419617E-1,3.138855894E-1
3.942547604E0,-2.327191830E-2,-1.870393753E-2,2.981100082E-1,2.996013960E-1
3.947528021E0,5.771458149E-3,2.840852737E-2,3.196287155E-1,3.209406019E-1
3.952508438E0,-2.047485113E-2,3.938198090E-2,2.887821198E-1,2.921733606E-1
3.957488854E0,-5.876028538E-2,4.763698578E-2,2.322044373E-1,2.442149754E-1
3.962435209E0,-6.371852756E-2,2.484703064E-2,1.547794342E-1,1.692161308E-1
3.967415625E0,-7.030725479E-3,4.256677628E-2,1.017942429E-1,1.105596193E-1
3.972396042E0,-8.560419083E-4,5.078363419E-2,6.819343567E-2,8.502972996E-2
3.977376459E0,-1.376360655E-2,3.765106201E-2,5.383014679E-2,6.711724100E-2
3.982356875E0,9.067714214E-3,3.907823563E-2,-8.907318115E-4,4.012636719E-2
3.987337292E0,3.641289473E-2,3.575468063E-2,1.848220825E-2,5.427603625E-2
3.992284271E0,2.570468187E-2,3.038644791E-2,5.179119110E-2,6.531764204E-2
3.997264688E0,1.523590088E-2,1.804876328E-2,9.188556671E-2,9.487279853E-2
4.002245104E0,1.918476820E-2,-1.551342010E-2,1.529970169E-1,1.549735743E-1
4.007225521E0,3.045886755E-2,-3.236150742E-2,2.611904144E-1,2.649442250E-1
4.012205938E0,3.489458561E-2,-3.769683838E-2,2.974357605E-1,3.018388897E-1
4.017186354E0,2.067333460E-2,-6.956815720E-2,3.003168106E-1,3.089616513E-1
4.022127865E0,2.832370996E-2,-1.012730598E-1,2.628154755E-1,2.830732049E-1
4.027108282E0,2.839326859E-3,-8.282995224E-2,1.567268372E-1,1.772911849E-1
4.032088698E0,-2.005702257E-2,-6.924152374E-2,4.674625397E-2,8.591789700E-2
4.037069115E0,-2.406555414E-2,-6.507015228E-2,-1.725864410E-2,7.149221224E-2
4.042049532E0,-4.265201092E-2,-5.825805664E-2,-5.234813690E-2,8.918252427E-2
4.047029948E0,-6.136429310E-2,-5.135345459E-2,-3.493881226E-2,8.731250980E-2
4.051975000E0,-8.499857783E-2,-3.737211227E-2,-3.428840637E-2,9.898044161E-2
4.056955417E0,-9.421190619E-2,-5.884265900E-2,-1.953220367E-2,1.127823070E-1
4.061935834E0,-7.004383206E-2,-4.436016083E-2,2.591323853E-2,8.686459699E-2
4.066916250E0,-1.749527454E-2,-2.762603760E-2,3.771877289E-2,4.991981984E-2
4.071896667E0,8.559703827E-3,-2.048587799E-2,7.790565491E-2,8.100759713E-2
4.076877084E0,1.566833258E-2,-4.197597504E-2,1.676597595E-1,1.735432917E-1
4.081825000E0,1.568990946E-2,-3.498697281E-2,2.258768082E-1,2.291082582E-1
4.086805417E0,-1.981902122E-2,-1.390886307E-2,2.789020538E-1,2.799510773E-1
4.091785834E0,-7.175868750E-2,-1.932859421E-2,2.745714188E-1,2.844509936E-1
4.096766250E0,-6.634870172E-2,-3.671646118E-2,2.774744034E-1,2.876496016E-1
4.101746667E0,-2.062612772E-2,1.022815704E-2,2.280693054E-1,2.292284023E-1
4.106727084E0,-2.534621954E-2,1.867914200E-2,1.815061569E-1,1.842167913E-1
4.111670209E0,-1.354879141E-2,2.489376068E-2,1.423654556E-1,1.451591955E-1
4.116650625E0,5.250334740E-3,1.472997665E-2,1.437911987E-1,1.446390233E-1
4.121631042E0,1.937371492E-2,-7.167339325E-3,1.784210205E-1,1.796128396E-1
4.126611459E0,-2.110517025E-2,-5.330085754E-3,2.841167450E-1,2.849494040E-1
4.131591875E0,-1.102638245E-2,-6.231784821E-3,3.843288422E-1,3.845374821E-1
4.136572292E0,-1.020139456E-2,-1.703357697E-2,4.316215515E-1,4.320779732E-1
4.141518177E0,7.544398308E-3,-1.874065399E-2,3.908481598E-1,3.913699197E-1
4.146498594E0,-2.703839540E-2,2.993583679E-3,3.149347305E-1,3.161074515E-1
4.151479011E0,-5.201020837E-2,-1.637458801E-3,2.159347534E-1,2.221160975E-1
4.156459427E0,-5.807560682E-2,3.220081329E-3,1.178026199E-1,1.313796114E-1
4.161439844E0,-5.737191439E-2,5.712509155E-3,6.324672699E-2,8.558222827E-2
4.166420261E0,-4.288005829E-2,8.440017700E-3,-1.233196259E-2,4.540936686E-2
4.171363750E0,-2.886497974E-2,8.975028992E-3,5.359649658E-4,3.023285397E-2
4.176344167E0,1.085031033E-2,-7.249355316E-3,3.238010406E-2,3.491065061E-2
4.181324584E0,-9.283840656E-3,-1.389551163E-2,1.281337738E-1,1.292189573E-1
4.186305000E0,-4.107677937E-2,-2.311801910E-2,1.614484787E-1,1.681884535E-1
4.191285417E0,-4.877033830E-2,-1.340246201E-2,1.731700897E-1,1.804052434E-1
4.196265834E0,-2.538770437E-2,-3.489637375E-2,1.468982697E-1,1.531058263E-1
4.201210365E0,-1.836740971E-2,-6.812047958E-2,1.184597015E-1,1.378784333E-1
4.206190782E0,3.648602962E-2,-4.629373550E-2,6.879138947E-2,9.059026200E-2
4.211171198E0,8.163517714E-2,-4.597759247E-2,3.850364685E-2,1.012954687E-1
4.216151615E0,9.138369560E-2,-5.507564545E-2,2.264213562E-2,1.090732453E-1
4.221132032E0,5.859702826E-2,-6.162023544E-2,-2.878570557E-2,8.977350378E-2
4.226112448E0,2.840965986E-2,-6.092691422E-2,-4.892730713E-2,8.314492788E-2
4.231033229E0,-3.009879589E-2,-4.086208344E-2,-6.670284271E-2,8.381477556E-2
4.236013646E0,-7.190683484E-2,-4.659271240E-2,-1.486892700E-1,1.716099437E-1
4.240994063E0,-8.978888392E-2,-3.048563004E-2,-1.779203415E-1,2.016111734E-1
4.245974479E0,-6.271570921E-2,-4.250097275E-2,-1.620035172E-1,1.788427590E-1
4.250954896E0,-2.917385101E-2,-5.405616760E-2,-1.249914169E-1,1.392696562E-1
4.255935313E0,-3.175252676E-2,-3.207159042E-2,-2.660369873E-2,5.238861187E-2
4.260880104E0,-3.458672762E-2,-2.443170547E-2,8.993911743E-2,9.940922897E-2
4.265859323E0,-6.616204977E-2,-3.610658646E-2,1.937694550E-1,2.079127319E-1
4.270838490E0,-9.267240763E-2,-2.903652191E-2,2.945299149E-1,3.101276600E-1
4.275817657E0,-1.168382466E-1,-1.529502869E-2,2.948827744E-1,3.175546636E-1
4.280796875E0,-7.400843501E-2,-4.721355438E-2,2.977924347E-1,3.104620787E-1
4.285776042E0,-3.378307819E-2,-1.492834091E-2,2.698869705E-1,2.724025121E-1
4.290726459E0,-3.404545784E-2,-3.532123566E-2,1.662540436E-1,1.733409643E-1
4.295705677E0,-3.627657890E-2,-4.377698898E-2,1.300315857E-1,1.419176811E-1
4.300684844E0,-6.898826361E-2,-4.265737534E-2,2.044773102E-2,8.364892043E-2
4.305664011E0,-7.008370757E-2,-4.365634918E-2,-4.324436188E-2,9.320771280E-2
4.310643229E0,-4.488775134E-2,-2.054071426E-2,-9.232997894E-2,1.046979282E-1
4.315622396E0,-8.124768734E-3,-2.121400833E-2,-1.244487762E-1,1.265051142E-1
4.320572344E0,-2.411252260E-2,-3.825521469E-2,-8.752441406E-2,9.851597969E-2
4.325551563E0,-5.424442887E-2,-2.640485764E-2,-6.765270233E-2,9.064525748E-2
4.330530729E0,-7.025483251E-2,-3.345680237E-2,-4.564762115E-2,9.021532260E-2
4.335509896E0,-7.468777895E-2,-3.337717056E-2,2.373504639E-2,8.518011661E-2
4.340489115E0,-5.353656411E-2,-1.201152802E-2,1.258745193E-1,1.373129095E-1
4.345468282E0,-6.612482667E-2,-3.848791122E-2,1.654911041E-1,1.823214676E-1
4.350419063E0,-8.092668653E-2,-3.891372681E-2,1.977939606E-1,2.172230595E-1
4.355398282E0,-3.606897593E-2,-1.479148865E-3,2.298927307E-1,2.327097474E-1
4.360377448E0,-1.276254654E-2,2.118062973E-2,1.834230423E-1,1.850824522E-1
4.365356615E0,-3.215658665E-2,1.033735275E-2,9.696865082E-2,1.026831348E-1
4.370335834E0,-4.635569453E-2,2.097272873E-2,4.447269440E-2,6.757607796E-2
4.375315000E0,-5.073046684E-2,-2.311801910E-2,3.516387939E-2,6.591298421E-2
4.380270417E0,-4.286202788E-2,-3.342914581E-2,5.434513092E-2,7.686386979E-2
4.385249636E0,-1.350015402E-2,3.003072739E-2,3.295135498E-2,4.658208390E-2
4.390228802E0,-5.092537403E-2,3.139352798E-2,-4.061985016E-2,7.231126846E-2
4.395207969E0,-5.498376489E-2,5.195856094E-2,-4.715347290E-2,8.914233822E-2
4.400187136E0,-4.753708839E-2,3.697919846E-2,-1.810359955E-2,6.288860157E-2
4.405166354E0,-6.666615605E-2,1.742219925E-2,2.732944489E-2,7.412697179E-2
4.410140729E0,-4.310545325E-2,-1.157808304E-2,8.907794952E-2,9.963439767E-2
4.415119948E0,-2.714806795E-2,-2.866077423E-2,1.385469437E-1,1.440614909E-1
4.420099115E0,-1.134860516E-2,-1.497125626E-2,1.592216492E-1,1.603261143E-1
4.425078282E0,2.372992039E-2,-2.318859100E-2,1.608991623E-1,1.642843885E-1
4.430057500E0,4.714804888E-2,-2.193784714E-2,1.174478531E-1,1.284453419E-1
4.435036667E0,3.759700060E-2,-6.497383118E-3,4.822826385E-2,6.149565737E-2
4.439988438E0,4.513084888E-2,-3.115653992E-3,-2.040958405E-2,4.962914408E-2
4.444967657E0,4.090470076E-2,7.603645325E-3,-3.396511078E-2,5.370883276E-2
4.449946823E0,2.258741856E-2,-3.098011017E-3,-6.644248962E-2,7.024523882E-2
4.454925990E0,-5.003690720E-3,-6.383419037E-3,-4.648876190E-2,4.719099430E-2
4.459905157E0,-1.571005583E-2,-3.385543823E-5,-5.374908447E-3,1.660411519E-2
4.464884375E0,2.256214619E-3,2.056980133E-2,2.348995209E-2,3.130471339E-2
4.469835886E0,2.974504232E-2,1.714658737E-2,7.590866089E-2,8.331205074E-2
4.474815104E0,2.628225088E-2,2.071523666E-2,6.382179260E-2,7.206315947E-2
4.479794271E0,2.545261383E-2,-1.981258392E-3,2.811908722E-2,3.797952082E-2
4.484773438E0,1.282811165E-2,-2.211618423E-2,-3.104209900E-2,4.021564327E-2
4.489752657E0,-7.097482681E-3,-1.331901550E-2,-8.982276917E-2,9.108183296E-2
4.494731823E0,-2.721264958E-2,7.492065430E-3,-2.004575729E-1,2.024349226E-1
4.499681042E0,-1.894015074E-2,-1.629543304E-2,-2.819957733E-1,2.831004885E-1
4.504660261E0,-3.016784787E-2,-2.754545212E-2,-2.632837296E-1,2.664341818E-1
4.509639427E0,-4.643225670E-2,-2.650547028E-2,-2.163581848E-1,2.228662347E-1
4.514618594E0,-3.663492203E-2,-3.482866287E-2,-1.437530518E-1,1.523814069E-1
4.519597813E0,-3.172010183E-2,-2.412414551E-2,-7.647895813E-2,8.623902999E-2
4.524576979E0,-1.279556751E-2,-3.751325607E-2,5.925750732E-2,7.129111518E-2
4.529528542E0,-6.007909775E-3,-5.601167679E-2,1.632165909E-1,1.726645837E-1
4.534507761E0,-1.833468676E-2,-1.033191681E-1,2.356548309E-1,2.579616456E-1
4.539486927E0,-8.975386620E-3,-1.080842018E-1,2.602663040E-1,2.819597511E-1
4.544466094E0,-9.068369865E-3,-1.061892509E-1,2.587823868E-1,2.798691052E-1
4.549445313E0,9.842634201E-3,-9.299898148E-2,1.791934967E-1,2.021286651E-1
4.554424479E0,4.039674997E-2,-9.215545654E-2,5.531311035E-2,1.148218871E-1
4.559377448E0,5.133646727E-2,-9.374332428E-2,-8.887100220E-2,1.390010746E-1
4.564356667E0,8.575767279E-2,-7.870960236E-2,-1.724433899E-1,2.080536053E-1
4.569335834E0,8.400273323E-2,-6.840991974E-2,-2.102384567E-1,2.365091647E-1
4.574315000E0,8.954125643E-2,-5.552148819E-2,-2.645034790E-1,2.847145284E-1
4.579294167E0,1.001144648E-1,-5.644130707E-2,-2.853469849E-1,3.076222179E-1
4.584273386E0,9.452986717E-2,-6.195688248E-2,-2.633581161E-1,2.865868951E-1
4.589222136E0,9.202450514E-2,-7.651662827E-2,-3.154335022E-1,3.373745667E-1
4.594201354E0,6.185275316E-2,-7.851171494E-2,-3.792743683E-1,3.922230219E-1
4.599180521E0,6.079602242E-2,-1.229343414E-1,-3.904962540E-1,4.138796117E-1
4.604159688E0,9.320640564E-2,-1.219639778E-1,-3.184366226E-1,3.535032228E-1
4.609138854E0,4.227811098E-2,-1.355614662E-1,-2.492065430E-1,2.868244251E-1
4.614118073E0,6.028831005E-3,-1.778974533E-1,-2.255191803E-1,2.873025433E-1
4.619067032E0,9.512305260E-4,-1.964673996E-1,-2.256145477E-1,2.991692967E-1
4.624046250E0,7.503271103E-3,-2.291822433E-1,-2.232942581E-1,3.200642521E-1
4.629025417E0,-2.779781818E-3,-2.237615585E-1,-2.422933578E-1,3.298227305E-1
4.634004584E0,-3.728151321E-3,-2.469878197E-1,-2.919549942E-1,3.824324788E-1
4.638983802E0,-2.412876487E-2,-2.341794968E-1,-3.982925415E-1,4.626653030E-1
4.643962969E0,-8.297663927E-2,-1.714391708E-1,-4.515256882E-1,4.900530166E-1
4.648915886E0,-8.725211024E-2,-1.707725525E-1,-4.663810730E-1,5.042692740E-1
4.653895104E0,-6.104102731E-2,-1.914415359E-1,-4.811143875E-1,5.213894155E-1
4.658874271E0,-4.950460792E-2,-2.213449478E-1,-4.720048904E-1,5.236725205E-1
4.663853438E0,-3.075003624E-4,-2.270350456E-1,-4.369297028E-1,4.923947315E-1
4.668832657E0,5.082917213E-2,-2.562389374E-1,-4.426240921E-1,5.139631161E-1
4.673811823E0,1.015899181E-1,-2.448210716E-1,-4.221401215E-1,4.984577723E-1
4.678761250E0,8.346885443E-2,-2.452874184E-1,-3.995199203E-1,4.761818287E-1
4.683740469E0,8.462613821E-2,-2.266936302E-1,-3.889961243E-1,4.581152365E-1
4.688719636E0,7.877397537E-2,-2.248301506E-1,-4.023494720E-1,4.675885301E-1
4.693698802E0,8.760219812E-2,-2.323360443E-1,-4.774484634E-1,5.381553845E-1
4.698678021E0,6.115388870E-2,-2.229909897E-1,-5.163917542E-1,5.657960970E-1
4.703657188E0,5.443525314E-2,-2.536988258E-1,-5.932474136E-1,6.475096793E-1
4.708610261E0,7.647448778E-2,-2.934060097E-1,-5.721969604E-1,6.475683712E-1
4.713589479E0,7.468080521E-2,-2.945680618E-1,-5.419282913E-1,6.213162147E-1
4.718568646E0,4.659467936E-2,-2.907152176E-1,-5.167760849E-1,5.947637546E-1
4.723547813E0,1.618987322E-2,-2.726440430E-1,-4.918222427E-1,5.625708885E-1
4.728527032E0,-2.661645412E-3,-3.047027588E-1,-4.052352905E-1,5.070172544E-1
4.733506198E0,-4.786419868E-2,-3.460445404E-1,-3.620843887E-1,5.031330937E-1
4.738458334E0,-5.745583773E-2,-3.824424744E-1,-3.096952438E-1,4.954538965E-1
4.743437552E0,-2.441158891E-2,-3.356890678E-1,-2.504587173E-1,4.195386097E-1
4.748416719E0,3.480017185E-3,-3.134355545E-1,-2.034139633E-1,3.736725810E-1
4.753395886E0,2.405166626E-3,-2.823266983E-1,-1.683998108E-1,3.287440428E-1
4.758375052E0,-3.714323044E-3,-2.782163620E-1,-1.594934464E-1,3.207121758E-1
4.763354271E0,1.794517040E-3,-3.437285423E-1,-1.788091660E-1,3.874599966E-1
4.768305209E0,1.211827993E-2,-3.545999527E-1,-2.380886078E-1,4.272869812E-1
4.773283490E0,5.080217123E-2,-3.445739746E-1,-3.773574829E-1,5.135277544E-1
4.778261823E0,7.253372669E-2,-3.419184685E-1,-5.225133896E-1,6.286410923E-1
4.783240104E0,7.983112335E-2,-3.346390724E-1,-6.331491470E-1,7.205790445E-1
4.788218386E0,5.353623629E-2,-3.511705399E-1,-7.309713364E-1,8.127151846E-1
4.793196719E0,2.486175299E-2,-3.435540199E-1,-8.209629059E-1,8.902963351E-1
4.798145313E0,6.044209003E-3,-3.380508423E-1,-8.913650513E-1,9.533344424E-1
4.803123594E0,-1.475119591E-2,-2.989406586E-1,-9.376316071E-1,9.842439462E-1
4.808101927E0,-2.331703901E-2,-3.284816742E-1,-9.624204636E-1,1.017200591E0
4.813080209E0,2.800309658E-2,-3.691015244E-1,-9.611682892E-1,1.029982810E0
4.818058490E0,6.756663322E-2,-3.398489952E-1,-9.674005508E-1,1.027582802E0
4.823036771E0,1.262031794E-1,-3.434553146E-1,-9.050283432E-1,9.761993125E-1
4.827997552E0,1.302855611E-1,-3.489112854E-1,-8.577070236E-1,9.350800773E-1
4.832975834E0,1.636368036E-1,-3.990612030E-1,-8.419036865E-1,9.459538385E-1
4.837954167E0,1.141124964E-1,-3.986101151E-1,-8.026533127E-1,9.034179686E-1
4.842932448E0,8.872812986E-2,-3.954544067E-1,-8.684148788E-1,9.583325470E-1
4.847910729E0,4.152858257E-2,-3.682727814E-1,-9.503650665E-1,1.020070206E0
4.852889063E0,-2.960509062E-2,-3.598799706E-1,-9.605493546E-1,1.026179866E0
4.857846459E0,-4.828175902E-2,-3.865633011E-1,-9.139194489E-1,9.934843094E-1
4.862824740E0,-2.918970585E-2,-3.579220772E-1,-8.536281586E-1,9.260892427E-1
4.867803073E0,3.675878048E-3,-3.267908096E-1,-7.346038818E-1,8.040202787E-1
4.872781354E0,1.221632957E-2,-3.409504890E-1,-6.189775467E-1,7.067741351E-1
4.877759636E0,2.296113968E-2,-3.599495888E-1,-4.566946030E-1,5.819457713E-1
4.882737969E0,3.126496077E-2,-3.578100204E-1,-3.502044678E-1,5.016459685E-1
4.887691563E0,-2.960979939E-3,-3.657078743E-1,-2.728719711E-1,4.563004814E-1
4.892669844E0,-3.472745419E-3,-3.598060608E-1,-1.888103485E-1,4.063518291E-1
4.897648177E0,1.279813051E-2,-3.570656776E-1,-1.882438660E-1,4.038507687E-1
4.902626459E0,4.123079777E-2,-3.286652565E-1,-2.397489548E-1,4.089014439E-1
4.907604740E0,1.986104250E-2,-3.555383682E-1,-3.381614685E-1,4.910755248E-1
4.912583073E0,3.704637289E-2,-3.515119553E-1,-4.237966537E-1,5.518484322E-1
4.917540000E0,3.028196096E-2,-3.215351105E-1,-5.228958130E-1,6.145908034E-1
4.922518282E0,-2.777576447E-4,-3.298134804E-1,-6.282920837E-1,7.095970346E-1
4.927496615E0,5.049943924E-3,-3.258981705E-1,-7.115497589E-1,7.826481833E-1
4.932474896E0,2.453827858E-2,-3.073620796E-1,-7.396669388E-1,8.013618131E-1
4.937453177E0,5.091410875E-2,-3.242778778E-1,-7.582063675E-1,8.262114041E-1
4.942431511E0,6.526523829E-2,-3.454127312E-1,-7.696561813E-1,8.461324622E-1
4.947400000E0,7.484090328E-2,-3.159065247E-1,-7.599153519E-1,8.263591442E-1
4.952378282E0,3.427964449E-2,-3.078222275E-1,-6.957073212E-1,7.615367979E-1
4.957356615E0,-1.079356670E-2,-3.164348602E-1,-6.534051895E-1,7.260756596E-1
4.962334896E0,1.472115517E-3,-3.320059776E-1,-5.924940109E-1,6.791754481E-1
4.967313177E0,1.735687256E-3,-3.284840584E-1,-5.795783997E-1,6.661950995E-1
4.972291459E0,1.395291090E-2,-3.083500862E-1,-5.715312958E-1,6.495556030E-1
4.977235104E0,4.051041603E-2,-3.167777061E-1,-5.636148453E-1,6.478046795E-1
4.982213386E0,5.981969833E-2,-3.345732689E-1,-5.581760406E-1,6.535121735E-1
4.987191719E0,2.443259954E-2,-3.329100609E-1,-5.600585938E-1,6.519905590E-1
4.992170000E0,1.437723637E-3,-3.074107170E-1,-5.358505249E-1,6.177695371E-1
4.997148282E0,2.807974815E-4,-3.010897636E-1,-5.261306763E-1,6.061918946E-1
5.002126615E0,1.564007998E-2,-2.828431129E-1,-5.141534805E-1,5.870252466E-1
5.007080157E0,-7.147610188E-3,-2.361760139E-1,-5.189342499E-1,5.701955398E-1
5.012058438E0,-3.808021545E-3,-2.348737717E-1,-4.738521576E-1,5.288818931E-1
5.017036771E0,-7.772922516E-3,-2.191872597E-1,-4.220752716E-1,4.756584994E-1
5.022015052E0,2.355623245E-2,-1.987428665E-1,-3.826494217E-1,4.318265890E-1
5.026993334E0,9.119510651E-3,-1.714439392E-1,-3.197231293E-1,3.629036637E-1
5.031971667E0,1.365482807E-2,-1.493310928E-1,-2.643384933E-1,3.039096390E-1
5.036927448E0,-1.760143042E-2,-1.514177322E-1,-2.211608887E-1,2.686061776E-1
5.041905729E0,-3.189283609E-2,-1.273298264E-1,-2.187414169E-1,2.551035969E-1
5.046884063E0,-7.785975933E-3,-1.296200752E-1,-2.472162247E-1,2.792451379E-1
5.051862344E0,4.435181618E-3,-1.296200752E-1,-2.279033661E-1,2.622231474E-1
5.056840625E0,1.210260391E-2,-1.272816658E-1,-2.348804474E-1,2.674246063E-1
5.061818959E0,2.005171776E-2,-1.177811623E-1,-2.228384018E-1,2.528466470E-1
5.066773334E0,1.387447119E-2,-1.035237312E-1,-2.418279648E-1,2.634206302E-1
5.071751615E0,-2.072095871E-2,-1.273612976E-1,-2.535486221E-1,2.844945730E-1
5.076729948E0,-2.168989182E-2,-1.274266243E-1,-1.819448471E-1,2.231858494E-1
5.081708229E0,-1.054805517E-2,-1.326265335E-1,-7.038402557E-2,1.505156800E-1
5.086686511E0,3.176867962E-3,-1.452407837E-1,-9.499549866E-3,1.455857795E-1
5.091664844E0,2.888470888E-2,-1.414670944E-1,1.144409180E-3,1.443903559E-1
5.096620938E0,3.768903017E-2,-1.311039925E-1,-9.440422058E-3,1.367400505E-1
5.101599219E0,1.071739197E-2,-1.212673187E-1,-4.823207855E-2,1.309463955E-1
5.106577552E0,1.935213804E-2,-1.095895767E-1,-1.126050949E-1,1.583170489E-1
5.111555834E0,-8.068144321E-3,-1.101922989E-1,-2.024087906E-1,2.306008591E-1
5.116534115E0,-5.001020432E-2,-9.659671783E-2,-2.866573334E-1,3.066013262E-1
5.121512448E0,-5.895996094E-2,-8.786821365E-2,-3.701677322E-1,3.849951298E-1
5.126427448E0,-3.744214773E-2,-6.948423386E-2,-4.744396210E-1,4.809604216E-1
5.131405729E0,-3.087422252E-2,-6.752395630E-2,-4.853353500E-1,4.909817759E-1
5.136384063E0,-3.271579742E-3,-7.948493958E-2,-4.749069214E-1,4.815237718E-1
5.141362344E0,5.030083656E-2,-1.126861572E-1,-3.790674210E-1,3.986482834E-1
5.146340625E0,8.241277933E-2,-1.172051430E-1,-2.507429123E-1,2.887921741E-1
5.151318959E0,6.978422403E-2,-1.196517944E-1,-1.447458267E-1,2.003440645E-1
5.156313229E0,7.673293352E-2,-9.376144409E-2,-9.895896912E-2,1.564353830E-1
5.161291511E0,6.995314360E-2,-1.159982681E-1,-1.199131012E-1,1.809093484E-1
5.166269844E0,4.464960098E-2,-1.121983528E-1,-1.619672775E-1,2.020283550E-1
5.171248125E0,4.615741968E-2,-1.394505501E-1,-2.653961182E-1,3.033349021E-1
5.176226407E0,5.495178699E-2,-1.259422302E-1,-3.894233704E-1,4.129548470E-1
5.181204740E0,7.542598248E-2,-1.264595985E-1,-4.698066711E-1,4.923407531E-1
5.186161459E0,5.012446642E-2,-1.195063591E-1,-5.425262451E-1,5.577893497E-1
5.191139740E0,1.294028759E-2,-1.526517868E-1,-5.031375885E-1,5.259443431E-1
5.196118073E0,-1.255810261E-2,-1.304249763E-1,-4.571342468E-1,4.755419014E-1
5.201096354E0,-2.155396342E-2,-1.153101921E-1,-3.712043762E-1,3.892989888E-1
5.206074636E0,-4.470545053E-2,-1.192798615E-1,-2.432537079E-1,2.745881080E-1
5.211052917E0,5.958259106E-3,-1.066770554E-1,-1.543340683E-1,1.877085497E-1
5.216009427E0,5.889123678E-2,-1.039805412E-1,-5.653190613E-2,1.321967743E-1
5.220987709E0,3.568470478E-2,-1.230711937E-1,-2.141952515E-3,1.281581243E-1
5.225966042E0,3.186780214E-2,-1.281452179E-1,-1.454734802E-2,1.328472018E-1
5.230944323E0,1.620495319E-2,-1.311430931E-1,-5.519676208E-2,1.432054256E-1
5.235922604E0,4.737377167E-4,-1.057128906E-1,-1.025743484E-1,1.472988005E-1
5.240900938E0,-2.986785769E-2,-9.256744385E-2,-1.423130035E-1,1.723769461E-1
5.245828698E0,-5.115896463E-2,-1.292743683E-1,-2.245082855E-1,2.640702032E-1
5.250806979E0,-6.092628837E-2,-1.155772209E-1,-2.775802612E-1,3.067913102E-1
5.255785313E0,-9.212255478E-3,-1.326789856E-1,-3.160285950E-1,3.428741048E-1
5.260763594E0,2.063524723E-2,-1.280260086E-1,-2.711162567E-1,3.005336869E-1
5.265741875E0,1.489382982E-2,-1.281132698E-1,-2.432470322E-1,2.753251800E-1
5.270720209E0,1.218008995E-2,-1.163306236E-1,-1.728792191E-1,2.087304313E-1
5.275676719E0,7.745504379E-3,-1.214265823E-1,-9.356021881E-2,1.534859025E-1
5.280654219E0,-3.233373165E-3,-1.078495979E-1,-7.889938354E-2,1.336678839E-1
5.285631667E0,-3.743737936E-2,-1.492185593E-1,-8.804893494E-2,1.772578651E-1
5.290609167E0,-5.940744281E-2,-1.285791397E-1,-1.255865097E-1,1.892982061E-1
5.295586667E0,-7.918271422E-2,-1.295862198E-1,-1.437425613E-1,2.091038367E-1
5.300564115E0,-1.228149533E-1,-1.069726944E-1,-1.236572266E-1,2.044939603E-1
5.305523021E0,-1.237379909E-1,-6.311798096E-2,-1.298713684E-1,1.901618843E-1
5.310500521E0,-1.157232821E-1,-5.771780014E-2,-1.169595718E-1,1.743638836E-1
5.315477969E0,-8.431601524E-2,-8.334732056E-2,-1.088447571E-1,1.609445476E-1
5.320455469E0,-3.443589807E-2,-6.372833252E-2,-1.149883270E-1,1.359023429E-1
5.325432969E0,2.978503704E-3,-3.729534149E-2,-7.586860657E-2,8.459231315E-2
5.330410417E0,4.713290930E-2,-6.121444702E-2,-5.833625793E-2,9.680825715E-2
5.335371250E0,3.882521391E-2,-4.712629318E-2,-5.274391174E-2,8.068584120E-2
5.340348750E0,-1.661196351E-2,-3.800916672E-2,-7.804965973E-2,8.838780159E-2
5.345326198E0,-7.196664810E-3,-5.998516083E-2,-1.125984192E-1,1.277826886E-1
5.350303698E0,2.312362194E-3,-4.614162445E-2,-1.563720703E-1,1.630540429E-1
5.355281198E0,-1.188966632E-2,-2.533388138E-2,-1.641330719E-1,1.665017568E-1
5.360258646E0,-1.623162627E-2,-6.661367416E-2,-1.836509705E-1,1.960319521E-1
5.365218073E0,-5.359849334E-2,-5.779933929E-2,-1.625690460E-1,1.806716824E-1
5.370195573E0,-5.029067397E-2,-5.395698547E-2,-1.700992584E-1,1.854029824E-1
5.375173021E0,-7.786288857E-2,-6.216192245E-2,-1.988859177E-1,2.224462683E-1
5.380150521E0,-1.073866487E-1,-6.797122955E-2,-2.559251785E-1,2.857440767E-1
5.385128021E0,-1.033585966E-1,-1.093168259E-1,-3.053874969E-1,3.404330936E-1
5.390105469E0,-9.007209539E-2,-1.287779808E-1,-3.212423325E-1,3.576218490E-1
5.395066302E0,-4.373785853E-2,-9.789562225E-2,-3.703546524E-1,3.855633822E-1
5.400043750E0,-9.643614292E-3,-9.539413452E-2,-4.263629913E-1,4.370108014E-1
5.405021250E0,-2.165794373E-3,-8.065795898E-2,-4.036750793E-1,4.116600135E-1
5.409998750E0,-2.345100045E-2,-1.086096764E-1,-3.575010300E-1,3.743701346E-1
5.414976198E0,-3.999838233E-2,-1.171250343E-1,-2.737865448E-1,3.004616720E-1
5.419953698E0,-5.902236700E-2,-1.493196487E-1,-1.646270752E-1,2.299610210E-1
5.424937917E0,-3.980851173E-2,-1.552629471E-1,-3.255748749E-2,1.635582170E-1
5.429915417E0,-3.015950322E-2,-1.186394691E-1,6.288719177E-2,1.376216486E-1
5.434892865E0,-3.709322214E-2,-1.017060280E-1,7.456111908E-2,1.314510697E-1
5.439870365E0,-5.337432027E-2,-1.042575836E-1,6.015968323E-2,1.316725077E-1
5.444847865E0,-8.353060484E-2,-1.095018387E-1,7.452869415E-2,1.565967460E-1
5.449825313E0,-1.036425531E-1,-1.243987083E-1,-1.804637909E-2,1.629186584E-1
5.454785469E0,-7.132372260E-2,-1.296591759E-1,-1.217327118E-1,1.916179230E-1
5.459762969E0,-5.595314503E-2,-1.254811287E-1,-2.007474899E-1,2.432608123E-1
5.464740417E0,-9.326010942E-2,-1.022796631E-1,-2.434797287E-1,2.800731258E-1
5.469717917E0,-1.353206635E-1,-1.052541733E-1,-2.930335999E-1,3.394978845E-1
5.474695417E0,-1.585300267E-1,-1.151280403E-1,-3.042325974E-1,3.618614491E-1
5.479672865E0,-1.391543746E-1,-1.269149780E-1,-2.513561249E-1,3.140879704E-1
5.484627240E0,-8.667811751E-2,-1.362237930E-1,-2.416820526E-1,2.906548338E-1
5.489604740E0,-4.416474700E-2,-1.074919701E-1,-1.798048019E-1,2.140906708E-1
5.494582188E0,-1.357376575E-2,-9.083557129E-2,-8.759593964E-2,1.269188590E-1
5.499559688E0,1.477369666E-2,-8.634042740E-2,-3.649330139E-2,9.489305856E-2
5.504537188E0,3.859159350E-2,-1.035556793E-1,1.429557800E-2,1.114336276E-1
5.509514688E0,3.161579370E-2,-9.479141235E-2,1.489734650E-2,1.010292096E-1
5.514444844E0,-1.074790955E-2,-1.053290367E-1,-1.291751862E-2,1.066610792E-1
5.519422344E0,-9.773582220E-3,-1.254892349E-1,-7.367324829E-2,1.458451868E-1
5.524399792E0,1.267212629E-2,-1.264710426E-1,-1.481819153E-1,1.952265029E-1
5.529377292E0,2.540239692E-2,-1.369495392E-1,-2.481994629E-1,2.846110178E-1
5.534354792E0,3.089630604E-2,-1.708111763E-1,-3.190088272E-1,3.631771902E-1
5.539332292E0,2.885663509E-2,-1.611924171E-1,-3.680334091E-1,4.028204202E-1
5.544325886E0,-6.610104442E-2,-1.751713753E-1,-3.668584824E-1,4.118731660E-1
5.549303334E0,-9.404000640E-2,-1.625556946E-1,-3.444604874E-1,3.923275468E-1
5.554280834E0,-8.637377620E-2,-1.308398247E-1,-2.748184204E-1,3.163931939E-1
5.559258334E0,-8.603644371E-2,-1.231336594E-1,-1.724967957E-1,2.287341519E-1
5.564235834E0,-9.282851219E-2,-8.480262756E-2,-7.806396484E-2,1.479952733E-1
5.569213282E0,-5.232003331E-2,-8.736991882E-2,-2.232074738E-2,1.042549968E-1
5.574173177E0,-2.167457342E-2,-1.115360260E-1,2.119159698E-2,1.155818152E-1
5.579150677E0,6.581664085E-3,-9.773159027E-2,2.677917480E-3,9.798955700E-2
5.584128125E0,3.712254763E-2,-9.601640701E-2,-1.326847076E-2,1.037944424E-1
5.589105625E0,5.101487041E-2,-9.917259216E-2,-2.666854858E-2,1.146687905E-1
5.594083125E0,4.844555259E-2,-8.112525940E-2,-7.313442230E-2,1.194860787E-1
5.599060573E0,6.010255218E-2,-9.638977051E-2,-1.762685776E-1,2.096995853E-1
5.604020000E0,4.768851399E-2,-1.161785126E-1,-2.096872330E-1,2.444184462E-1
5.608997500E0,3.312113881E-2,-1.216044426E-1,-2.428073883E-1,2.735691469E-1
5.613974948E0,1.193049550E-2,-1.100239754E-1,-2.853298187E-1,3.060403851E-1
5.618952448E0,7.766067982E-3,-1.432824135E-1,-3.443231583E-1,3.730262714E-1
5.623929948E0,2.039250731E-2,-1.544847488E-1,-3.816375732E-1,4.122240038E-1
5.628907396E0,4.429429770E-3,-1.413130760E-1,-4.046363831E-1,4.286252533E-1
5.633868229E0,-4.679712653E-2,-1.470146179E-1,-3.753070831E-1,4.057815614E-1
5.638845677E0,-5.727413297E-2,-1.572628021E-1,-2.465190887E-1,2.979657302E-1
5.643823177E0,-1.224365234E-1,-1.437034607E-1,-1.354103088E-1,2.323302361E-1
5.648800677E0,-1.184731126E-1,-1.780967712E-1,-4.643726349E-2,2.188852617E-1
5.653778125E0,-8.879306912E-2,-1.792774200E-1,1.821517944E-2,2.008890122E-1
5.658755625E0,-4.067268968E-2,-1.543254852E-1,-7.953643799E-4,1.595971669E-1
5.663676875E0,3.042060137E-2,-1.178474426E-1,-5.044174194E-2,1.317490116E-1
5.668654375E0,3.660050035E-2,-1.081585884E-1,-6.861686707E-2,1.332146813E-1
5.673631875E0,6.141641736E-2,-1.104350090E-1,-8.424472809E-2,1.518717938E-1
5.678609323E0,5.466023088E-2,-8.661508560E-2,-1.495780945E-1,1.812829839E-1
5.683586823E0,4.749682546E-2,-7.958602905E-2,-1.668481827E-1,1.908617314E-1
5.688564323E0,7.805991173E-2,-7.015371323E-2,-1.816205978E-1,2.097639980E-1
5.693562032E0,7.723346353E-2,-1.105980873E-1,-1.297807693E-1,1.871897243E-1
5.698539479E0,6.962805986E-2,-1.105203629E-1,-3.791332245E-2,1.360155776E-1
5.703516979E0,9.803274274E-2,-7.262420654E-2,-1.087856293E-2,1.224868856E-1
5.708494479E0,9.603869915E-2,-7.086849213E-2,-1.252460480E-2,1.200110021E-1
5.713471979E0,7.098072767E-2,-1.049952507E-1,7.296562195E-3,1.269468637E-1
5.718449427E0,6.340950727E-2,-1.009211540E-1,-2.530193329E-2,1.218442972E-1
5.723409375E0,2.778267860E-2,-8.736324310E-2,-7.190895081E-2,1.165122770E-1
5.728386875E0,6.972968578E-3,-7.154607773E-2,-1.490230560E-1,1.654549327E-1
5.733364323E0,1.007196307E-2,-7.703971863E-2,-2.089595795E-1,2.229364675E-1
5.738341823E0,1.055496931E-2,-8.937263489E-2,-2.162361145E-1,2.342155684E-1
5.743319323E0,2.018061280E-2,-8.957242966E-2,-2.828922272E-1,2.974197194E-1
5.748296771E0,1.030981541E-2,-8.003664017E-2,-2.873153687E-1,2.984330363E-1
5.753219427E0,9.549021721E-3,-1.273059845E-1,-3.013124466E-1,3.272417883E-1
5.758196927E0,-1.055508852E-2,-1.074843407E-1,-2.891283035E-1,3.086413279E-1
5.763174375E0,-4.622489214E-3,-1.089658737E-1,-2.320117950E-1,2.563677087E-1
5.768151875E0,3.204435110E-2,-1.245970726E-1,-1.825332642E-1,2.233151662E-1
5.773129375E0,2.815985680E-2,-1.067075729E-1,-1.786727905E-1,2.100082135E-1
5.778106823E0,1.017290354E-2,-1.102061272E-1,-1.535377502E-1,1.892689071E-1
5.783104479E0,2.105545998E-2,-1.041693687E-1,-1.238727570E-1,1.632147349E-1
5.788081407E0,4.147154093E-2,-9.110784531E-2,-4.692745209E-2,1.105563835E-1
5.793058386E0,5.931675434E-2,-1.139822006E-1,4.609870911E-2,1.365119423E-1
5.798035313E0,5.572623014E-2,-9.894990921E-2,1.456079483E-1,1.846569031E-1
5.803012292E0,7.605880499E-2,-1.271963120E-1,1.541948318E-1,2.138688611E-1
5.807989167E0,7.481956482E-2,-1.103563309E-1,2.222337723E-1,2.591608315E-1
5.812950521E0,5.216771364E-2,-1.107072830E-1,1.806306839E-1,2.181857393E-1
5.817927448E0,2.036648989E-2,-8.521795273E-2,1.537570953E-1,1.769693130E-1
5.822904427E0,8.026003838E-3,-3.162622452E-2,9.392833710E-2,9.943423618E-2
5.827881354E0,6.662011147E-4,-3.329610825E-2,3.793716431E-3,3.351815825E-2
5.832858334E0,7.837533951E-3,-1.594495773E-2,-9.510517120E-2,9.675051527E-2
5.837835209E0,3.259956837E-3,-6.041145325E-2,-1.552248001E-1,1.665980479E-1
5.842798542E0,8.314430714E-3,-6.635665894E-2,-2.648010254E-1,2.731152119E-1
5.847775521E0,8.478164673E-3,-1.005282402E-1,-3.213052750E-1,3.367712667E-1
5.852752448E0,-3.479063511E-3,-1.055312157E-1,-3.133621216E-1,3.306731931E-1
5.857729375E0,-2.028164268E-2,-9.605312347E-2,-2.794313431E-1,2.961746496E-1
5.862706354E0,-2.770072222E-2,-6.987380981E-2,-2.624683380E-1,2.730188780E-1
5.867683229E0,-6.377783418E-2,-5.341196060E-2,-2.100038528E-1,2.258806496E-1
5.872644271E0,-9.256815910E-2,-6.796646118E-2,-1.840991974E-1,2.169811476E-1
5.877621250E0,-7.624980807E-2,-6.097650528E-2,-1.227827072E-1,1.568686094E-1
5.882598177E0,-4.849579930E-2,-7.803153992E-2,-1.188640594E-1,1.502312497E-1
5.887575104E0,-2.574655414E-2,-1.068668365E-1,-6.982040405E-2,1.302240171E-1
5.892552032E0,2.531450987E-2,-6.653404236E-2,-5.921077728E-2,9.259330078E-2
5.897529011E0,4.981404543E-2,-5.263090134E-2,-8.909034729E-2,1.148413727E-1
5.902490157E0,7.931041718E-2,-6.261062622E-2,-6.647872925E-2,1.209531076E-1
5.907467136E0,3.755563498E-2,-5.578279495E-2,-6.074523926E-2,9.062080348E-2
5.912444063E0,2.729701996E-2,-1.035456657E-1,-5.987453461E-2,1.226857452E-1
5.917420990E0,3.648984432E-2,-8.205842972E-2,-3.525829315E-2,9.647923021E-2
5.922397969E0,2.688527107E-2,-7.971239090E-2,-3.701400757E-2,9.190712606E-2
5.927374844E0,3.177958727E-2,-7.986021042E-2,-3.159236908E-2,9.157332122E-2
5.932338125E0,5.727529526E-3,-8.484792709E-2,-8.080863953E-2,1.173116002E-1
5.937315052E0,-3.430008888E-3,-8.504486084E-2,-8.448219299E-2,1.199234516E-1
5.942292032E0,-2.671685815E-2,-1.158361435E-1,-1.238956451E-1,1.717030388E-1
5.947268959E0,-3.315585852E-2,-9.158802032E-2,-1.392955780E-1,1.699733346E-1
5.952245886E0,-8.488965034E-2,-4.611110687E-2,-1.569528580E-1,1.843005332E-1
5.957222865E0,-5.803787708E-2,-6.500959396E-2,-1.721429825E-1,1.929451966E-1
5.962185521E0,-7.799565792E-3,-4.560422897E-2,-1.373758316E-1,1.449575732E-1
5.967162448E0,-3.663623333E-2,-4.056978226E-2,-8.865261078E-2,1.041508820E-1
5.972139427E0,-7.499790192E-2,-5.695915222E-2,-5.932235718E-2,1.113021670E-1
5.977116354E0,-1.179087460E-1,-5.905199051E-2,1.970005035E-2,1.333330490E-1
5.982093282E0,-1.012789607E-1,-5.412387848E-2,6.725215912E-2,1.330777029E-1
5.987070261E0,-3.252351284E-2,-4.718923569E-2,9.555912018E-2,1.114277717E-1
5.991995886E0,-9.257853031E-3,-1.902866364E-2,8.565425873E-2,8.822952975E-2
5.996972865E0,-1.691055298E-2,-5.059719086E-2,6.399536133E-2,8.331535750E-2
6.001949792E0,-3.097057343E-3,-5.843496323E-2,3.790187836E-2,6.971935939E-2
6.006926719E0,5.920350552E-3,-4.492616653E-2,2.157020569E-2,5.018649981E-2
6.011903698E0,-8.797466755E-3,-5.780315399E-2,-1.119232178E-2,5.953039643E-2
6.016880625E0,7.584691048E-3,-5.855226517E-2,-2.950096130E-2,6.600153038E-2
6.021842292E0,-2.039730549E-3,-2.361392975E-2,-3.106689453E-2,3.907595315E-2
6.026819271E0,-2.586245537E-2,-2.935743332E-2,-2.073764801E-2,4.428064514E-2
6.031796198E0,-4.473301768E-2,-5.647468567E-2,-4.848289490E-2,8.683907007E-2
6.036773125E0,-6.483495235E-3,-8.109092712E-2,-6.644439697E-2,1.050363369E-1
6.041750104E0,-6.729066372E-3,-7.690334320E-2,-9.854316711E-2,1.251805109E-1
6.046727032E0,-1.198416948E-2,-5.844640732E-2,-7.336997986E-2,9.456615034E-2
6.051689115E0,-2.940535545E-3,-7.339715958E-2,-7.453823090E-2,1.046505502E-1
6.056666094E0,-2.480590343E-2,-7.411050797E-2,-6.138038635E-2,9.937430284E-2
6.061643021E0,-1.318150759E-2,-7.718801498E-2,-5.071353912E-2,9.329311255E-2
6.066620000E0,5.520224571E-3,-6.603336334E-2,-6.862163544E-2,9.539290751E-2
6.071596927E0,2.411133051E-2,-4.319524765E-2,-9.346103668E-2,1.057456905E-1
6.076573854E0,3.784173727E-2,-7.048654556E-2,-7.768726349E-2,1.115152953E-1
6.081574427E0,1.340216398E-2,-5.954265594E-2,-1.095523834E-1,1.254060229E-1
6.086551407E0,-3.750562668E-3,-5.808448792E-2,-1.578283310E-1,1.682190730E-1
6.091528334E0,-1.375132799E-2,-8.490371704E-2,-1.678009033E-1,1.885600258E-1
6.096505261E0,1.697337627E-2,-1.017680168E-1,-1.683130264E-1,1.974185898E-1
6.101482240E0,3.321373463E-2,-8.746433258E-2,-1.617660522E-1,1.868727302E-1
6.106459167E0,3.499317169E-2,-8.748817444E-2,-1.600408554E-1,1.857196224E-1
6.111420104E0,-6.167471409E-3,-5.891132355E-2,-1.797437668E-1,1.892522218E-1
6.116397032E0,-6.121715903E-2,-7.096052170E-2,-1.731519699E-1,1.968871273E-1
6.121374011E0,-5.171385407E-2,-9.235906601E-2,-1.666374207E-1,1.974146644E-1
6.126350938E0,-4.468554258E-2,-1.229777336E-1,-1.934823990E-1,2.335717436E-1
6.131327917E0,-2.819091082E-2,-1.080188751E-1,-1.536788940E-1,1.899473804E-1
6.136304844E0,-1.425451040E-2,-8.590984344E-2,-1.166505814E-1,1.455714615E-1
6.141266407E0,-1.713323593E-2,-7.586526871E-2,-1.155595779E-1,1.392950208E-1
6.146243334E0,-2.231794596E-2,-7.768774033E-2,-7.651710510E-2,1.113029338E-1
6.151220313E0,3.399968147E-3,-9.612083435E-2,-2.829647064E-2,1.002569939E-1
6.156197240E0,-1.555919647E-3,-7.412242889E-2,3.142452240E-2,8.052363603E-2
6.161174219E0,-1.089185476E-2,-7.141256332E-2,1.941108704E-2,7.480091577E-2
6.166151094E0,-1.753950119E-2,-6.388425827E-2,-2.061843872E-3,6.628034216E-2
6.171113125E0,-3.353840113E-2,-7.760381699E-2,-6.858921051E-2,1.088653138E-1
6.176090052E0,-5.419653654E-2,-8.160018921E-2,-1.084794998E-1,1.461631189E-1
6.181067032E0,-5.786192417E-2,-6.175518036E-2,-9.818744659E-2,1.296243775E-1
6.186043959E0,-7.809856534E-2,-2.049827576E-2,-5.006885529E-2,9.500766015E-2
6.191020938E0,-5.303126574E-2,-6.743288040E-2,-3.800678253E-2,9.382976086E-2
6.195997865E0,-6.396847963E-2,-8.099412918E-2,9.730339050E-3,1.036662667E-1
6.200928698E0,-1.225402057E-1,-1.089291573E-1,3.581237793E-2,1.678218988E-1
6.205921459E0,-1.073363721E-1,-9.169054031E-2,4.041099548E-2,1.468376672E-1
6.210898386E0,-1.119519174E-1,-7.702064514E-2,-1.001358032E-4,1.358875330E-1
6.215887500E0,-1.220876276E-1,-4.826259613E-2,-6.871318817E-2,1.481761426E-1
6.220864375E0,-1.184279919E-1,-2.929544449E-2,-8.681297302E-2,1.497327773E-1
6.225841302E0,-9.368062019E-2,-5.077791214E-2,-1.024150848E-1,1.477948056E-1
6.230800938E0,-4.812911153E-2,-2.433300018E-2,-1.417322159E-1,1.516460593E-1
6.235777813E0,1.349329948E-2,-9.711265564E-3,-1.262035370E-1,1.272937962E-1
6.240754792E0,5.357676744E-2,2.553462982E-3,-6.100559235E-2,8.123221332E-2
6.245731719E0,5.845153332E-2,-4.472064972E-2,2.025604248E-2,7.633364602E-2
6.250708698E0,8.316534758E-2,-4.898548126E-2,9.610652924E-2,1.362076260E-1
6.255685625E0,1.131621599E-1,-5.349111557E-2,1.571578979E-1,2.009118682E-1
6.260632136E0,1.387692094E-1,-3.663063049E-2,1.487989426E-1,2.067361165E-1
6.265609115E0,1.265337467E-1,-2.006006241E-2,1.405563354E-1,1.901822247E-1
6.270586042E0,9.800648689E-2,-1.094961166E-2,9.207820892E-2,1.349205767E-1
6.275562969E0,-1.854002476E-3,-2.100563049E-2,-2.007675171E-2,2.911614323E-2
6.280539948E0,-4.892525077E-2,-4.978370667E-2,-1.194944382E-1,1.383872045E-1
6.285516875E0,-2.692359686E-2,-3.545951843E-2,-1.159725189E-1,1.242251289E-1
6.290477657E0,-3.752708435E-4,-4.965639114E-2,-1.267814636E-1,1.361596031E-1
6.295454636E0,-7.332146168E-3,-3.276824951E-2,-1.779232025E-1,1.810640344E-1
6.300431563E0,-5.237960815E-2,-6.580591202E-2,-1.977968216E-1,2.149363255E-1
6.305408542E0,-6.630957127E-2,-8.891916275E-2,-2.080640793E-1,2.357843036E-1
6.310385469E0,-9.472849965E-2,-7.367992401E-2,-1.779127121E-1,2.146046434E-1
6.315362396E0,-9.698936343E-2,-7.267045975E-2,-1.456956863E-1,1.895129688E-1
6.320323542E0,-1.066367030E-1,-6.691455841E-2,-1.184835434E-1,1.728794222E-1
6.325300521E0,-7.610863447E-2,-6.121015549E-2,-6.059741974E-2,1.149402221E-1
6.330277448E0,-4.597917199E-2,-5.323123932E-2,-5.779647827E-2,9.103890376E-2
6.335254375E0,-4.235100746E-2,-2.161359787E-2,-7.636737823E-2,8.995961263E-2
6.340231354E0,-1.041567326E-2,-2.105522156E-2,-8.768749237E-2,9.077943006E-2
6.345208282E0,-1.982450485E-4,-1.808071136E-2,-1.416893005E-1,1.428384028E-1
6.350170625E0,2.596974373E-3,-3.400373459E-2,-1.050214767E-1,1.104196940E-1
6.355147604E0,3.624087572E-2,-4.975652695E-2,-1.403808594E-2,6.313620913E-2
6.360124532E0,1.496469975E-2,-3.934764862E-2,1.261224747E-1,1.329626200E-1
6.365101459E0,2.971059084E-2,8.601188660E-3,1.940164566E-1,1.964664986E-1
6.370078438E0,4.929620028E-2,2.241754532E-2,2.568082809E-1,2.624560056E-1
6.375055365E0,2.370262146E-2,4.955291748E-3,2.241821289E-1,2.254861328E-1
6.380018907E0,2.953857183E-2,-3.174209595E-2,1.658554077E-1,1.714295895E-1
6.384995886E0,2.403587103E-2,-3.982257843E-2,9.619331360E-2,1.068490263E-1
6.389972813E0,7.319450378E-5,-2.882814407E-2,-1.805496216E-2,3.401542160E-2
6.394949740E0,1.462543011E-2,-3.907108307E-2,-1.006002426E-1,1.089075826E-1
6.399926667E0,1.744014025E-2,-2.523326874E-2,-1.398286819E-1,1.431535422E-1
6.404903646E0,-1.060098410E-2,-4.224538803E-2,-1.241655350E-1,1.315831819E-1
6.409887448E0,-2.652782202E-2,-1.858329773E-2,-6.119346619E-2,6.923658426E-2
6.414864427E0,-1.167756319E-2,-1.174736023E-2,-7.474708557E-2,7.656038634E-2
6.419841354E0,-1.861494780E-2,6.956577301E-3,-2.642822266E-2,3.306601279E-2
6.424818282E0,-3.297495842E-2,8.831024170E-3,-6.874084473E-2,7.675049579E-2
6.429795209E0,-3.345787525E-2,-1.776552200E-2,-3.705310822E-2,5.299033890E-2
6.434772136E0,-4.367542267E-2,-1.335334778E-2,-1.982212067E-2,4.978725650E-2
6.439701094E0,-2.080166340E-2,-1.131057739E-2,-3.599739075E-2,4.308654664E-2
6.444678073E0,8.946537971E-3,-1.632690430E-2,-4.969787598E-2,5.307058717E-2
6.449655000E0,4.077064991E-2,-3.319072723E-2,-5.139732361E-2,7.352248052E-2
6.454631979E0,5.334573984E-2,-4.692554474E-3,-4.837417603E-2,7.216542755E-2
6.459608907E0,4.704618454E-2,-1.211833954E-2,-3.586292267E-2,6.038498866E-2
6.464585834E0,3.153359890E-2,1.897335052E-3,2.841949463E-4,3.159190571E-2
6.469580782E0,1.880532503E-2,-8.109092712E-3,5.756473541E-2,6.109907035E-2
6.474557709E0,2.319234610E-2,-4.013061523E-3,1.382112503E-1,1.402010674E-1
6.479534688E0,2.321755886E-2,3.059864044E-2,1.565532684E-1,1.611963328E-1
6.484511615E0,6.947159767E-3,3.376293182E-2,1.225919724E-1,1.273459472E-1
6.489488594E0,1.230722666E-2,2.007341385E-2,4.861736298E-2,5.401904992E-2
6.494465521E0,-8.578121662E-3,1.120519638E-2,-4.134368896E-2,4.368570950E-2
6.499433021E0,6.112635136E-3,-2.360486984E-2,-8.070945740E-2,8.431234015E-2
6.504409948E0,1.340901852E-2,-6.027841568E-2,-1.388483047E-1,1.519609848E-1
6.509386927E0,1.332885027E-2,-5.117988586E-2,-1.776437759E-1,1.853492652E-1
6.514363854E0,4.883724451E-2,-4.433727264E-2,-1.924514771E-1,2.034414933E-1
6.519340782E0,9.596854448E-2,6.756782532E-4,-1.858634949E-1,2.091785285E-1
6.524317709E0,7.374262810E-2,7.437705994E-3,-1.485061646E-1,1.659740208E-1
6.529278282E0,1.844662428E-2,-4.029893875E-2,-1.044273376E-1,1.134431631E-1
6.534255261E0,-2.197104692E-2,-8.284330368E-2,-4.174327850E-2,9.533226719E-2
6.539232188E0,-2.411526442E-2,-5.139350891E-2,1.567363739E-2,5.889398649E-2
6.544209115E0,-2.840363979E-2,-3.697347641E-2,6.553840637E-2,8.043063733E-2
6.549186094E0,-2.073323727E-2,3.309726715E-3,1.008024216E-1,1.029657691E-1
6.554163021E0,-2.030068636E-2,-4.477977753E-2,1.215906143E-1,1.311549611E-1
6.559089792E0,-2.699899673E-2,-5.696439743E-2,8.762931824E-2,1.079480700E-1
6.564066771E0,-3.843712807E-2,-4.544067383E-2,8.490657806E-2,1.036889322E-1
6.569043698E0,-2.367162704E-2,-4.132509232E-2,1.084289551E-1,1.184269711E-1
6.574020677E0,-5.173951387E-2,-3.738021851E-2,9.380722046E-2,1.134638825E-1
6.578997604E0,-5.572152138E-2,-2.386569977E-2,2.936744690E-2,6.735656247E-2
6.583974532E0,-2.621990442E-2,-5.335283279E-2,-2.498245239E-2,6.448357219E-2
6.588972917E0,2.703082561E-2,-4.929494858E-2,-4.090690613E-2,6.952720660E-2
6.593949844E0,4.650694132E-2,-7.064819336E-3,-1.090488434E-1,1.187621889E-1
6.598926823E0,3.258192539E-2,-3.632593155E-2,-1.481790543E-1,1.560070104E-1
6.603903750E0,5.172240734E-2,-4.624652863E-2,-1.941337585E-1,2.061598046E-1
6.608880729E0,3.262096643E-2,-4.383850098E-2,-2.089958191E-1,2.160212814E-1
6.613857604E0,-6.934404373E-4,-6.981801987E-2,-1.572790146E-1,1.720805776E-1
6.618823386E0,1.715779305E-3,-7.167768478E-2,-1.298065186E-1,1.482914922E-1
6.623800365E0,1.118242741E-2,-8.051300049E-2,-9.312343597E-2,1.236097256E-1
6.628777292E0,7.748496532E-2,-3.217983246E-2,-7.815933228E-2,1.146662230E-1
6.633754219E0,1.028016806E-1,-2.226400375E-2,-2.530574799E-2,1.081861926E-1
6.638731146E0,5.656951666E-2,-4.806661606E-2,1.286029816E-2,7.533854965E-2
6.643708073E0,8.254587650E-3,-7.844638824E-2,6.023597717E-2,9.924891431E-2
6.648627813E0,-2.530372143E-2,-1.015763283E-1,7.639122009E-2,1.295903055E-1
6.653604792E0,7.839500904E-3,-8.644580841E-2,5.438041687E-2,1.024283423E-1
6.658581719E0,1.460009813E-2,-7.134437561E-2,5.863571167E-2,9.349507730E-2
6.663558698E0,-9.503960609E-3,-6.833171844E-2,6.526756287E-2,9.497054162E-2
6.668535625E0,5.232363939E-2,-7.964754105E-2,9.323406219E-2,1.333194824E-1
6.673512552E0,7.795572281E-2,-9.580898285E-2,9.255504608E-2,1.543466633E-1
6.678511667E0,4.647660255E-2,-8.837509155E-2,9.676647186E-2,1.390466881E-1
6.683488646E0,2.000862360E-2,-9.065008163E-2,1.033878326E-1,1.389490060E-1
6.688465573E0,-3.236776590E-2,-5.256414413E-2,3.158187866E-2,6.934029549E-2
6.693442500E0,-4.394805431E-2,-5.993318558E-2,-6.575393677E-2,9.923204327E-2
6.698419427E0,-2.454787493E-2,-6.243705750E-2,-1.504268646E-1,1.647095198E-1
6.703396354E0,1.766085625E-3,-3.357696533E-2,-1.823492050E-1,1.854232031E-1
6.708358907E0,6.689846516E-3,-6.421279907E-2,-1.523189545E-1,1.654360949E-1
6.713335886E0,2.114701271E-2,-5.891084671E-2,-1.581993103E-1,1.701314368E-1
6.718312813E0,2.619081736E-2,-2.021551132E-2,-1.094932556E-1,1.143826859E-1
6.723289740E0,5.367398262E-3,-1.952362061E-2,-1.065053940E-1,1.084130051E-1
6.728266719E0,-2.946203947E-2,-4.956912994E-2,-1.226234436E-1,1.355050528E-1
6.733243594E0,-9.262284636E-2,-8.624601364E-2,-1.268386841E-1,1.791798491E-1
6.738208229E0,-5.795228481E-2,-6.075000763E-2,-9.067821503E-2,1.235781915E-1
6.743184740E0,-2.620309591E-2,-6.629610062E-2,-5.007648468E-2,8.711733186E-2
6.748161198E0,-4.728591442E-2,-5.521106720E-2,2.585983276E-2,7.715536660E-2
6.753137657E0,-6.330052018E-2,-4.664134979E-2,1.059293747E-1,1.319219610E-1
6.758114167E0,-4.578256607E-2,-2.654790878E-2,1.712036133E-1,1.791968527E-1
6.763090625E0,-3.776896000E-2,-5.217599869E-2,2.171220779E-1,2.264747799E-1
6.768054063E0,-3.443324566E-2,-2.803421021E-2,2.295484543E-1,2.338034607E-1
6.773030521E0,-4.808491468E-2,-2.091741562E-2,1.612167358E-1,1.695303312E-1
6.778006979E0,-6.193289161E-2,-2.821636200E-2,9.827518463E-2,1.195401943E-1
6.782983438E0,-3.587257862E-2,1.428747177E-2,1.695823669E-2,4.217292423E-2
6.787959948E0,-4.618191719E-2,1.139593124E-2,-1.143074036E-2,4.892135065E-2
6.792936407E0,-5.461889505E-2,3.733158112E-3,-3.240013123E-2,6.361547508E-2
6.797896094E0,-6.320714951E-3,-6.242752075E-3,-1.516246796E-2,1.757338401E-2
6.802872552E0,3.199422359E-2,-3.509712219E-2,3.754901886E-2,6.054227570E-2
6.807849011E0,9.395664930E-2,-7.084083557E-2,4.467487335E-2,1.258654847E-1
6.812825469E0,1.439723969E-1,-4.690074921E-2,1.608085632E-2,1.522705660E-1
6.817801979E0,1.893826723E-1,-1.851606369E-2,1.624870300E-2,1.909781703E-1
6.822778386E0,1.259197593E-1,-2.599811554E-2,-9.765625000E-3,1.289459391E-1
6.827747292E0,7.552564144E-2,-3.089427948E-2,-6.893539429E-2,1.068207265E-1
6.832723750E0,5.693107843E-2,-3.308868408E-2,-9.452056885E-2,1.151961225E-1
6.837700209E0,2.461570501E-2,-3.260564804E-2,-8.917140961E-2,9.808466500E-2
6.842676667E0,1.164770126E-2,-5.107450485E-2,-8.152198792E-2,9.690257223E-2
6.847653177E0,-3.686785698E-2,-5.969572067E-2,-6.690025330E-2,9.694566435E-2
6.852629636E0,-6.138795614E-2,-8.235359192E-2,-3.820419312E-2,1.095908556E-1
6.857595886E0,-9.786254168E-2,-9.773254395E-2,3.779697418E-2,1.433783054E-1
6.862572396E0,-1.107433438E-1,-1.511673927E-1,7.527065277E-2,2.019439031E-1
6.867548854E0,-1.263867617E-1,-1.424846649E-1,1.030035019E-1,2.165299394E-1
6.872525313E0,-1.161958873E-1,-8.422994614E-2,4.512977600E-2,1.504422306E-1
6.877501823E0,-9.230890870E-2,-8.352088928E-2,4.242610931E-2,1.315167226E-1
6.882478282E0,-6.408342719E-2,-5.203342438E-2,-5.798339844E-4,8.254997941E-2
6.887441407E0,-6.956309080E-2,-6.818580627E-2,-3.377342224E-2,1.030969050E-1
6.892417865E0,-5.136638880E-2,-6.744194031E-2,-8.337497711E-2,1.189046173E-1
6.897394323E0,-5.235016346E-2,-9.458065033E-3,-8.753871918E-2,1.024354527E-1
6.902370782E0,-3.605723381E-3,1.245307922E-2,-7.029819489E-2,7.148368085E-2
6.907347292E0,1.874101162E-2,2.467346191E-2,3.468799591E-2,4.651088367E-2
6.912323750E0,-8.562207222E-3,8.090972900E-3,1.364917755E-1,1.369991971E-1
6.917255417E0,-1.841199398E-2,-3.214883804E-2,1.922922134E-1,1.958286104E-1
6.922231927E0,5.525708199E-3,-3.659820557E-2,1.740427017E-1,1.779348873E-1
6.927208334E0,2.477592230E-2,-4.831743240E-2,1.845216751E-1,1.923451824E-1
6.932184844E0,3.944534063E-2,-6.003284454E-2,1.379241943E-1,1.555087158E-1
6.937161302E0,3.993052244E-2,-2.660417557E-2,1.083745956E-1,1.185212292E-1
6.942137761E0,3.808569908E-2,-6.713724136E-2,1.075935364E-1,1.324171391E-1
6.947101302E0,-8.714973927E-3,-7.411861420E-2,1.115798950E-1,1.342370765E-1
6.952077813E0,-6.697580218E-2,-8.355665207E-2,1.013460159E-1,1.474397746E-1
6.957054271E0,-1.203463972E-1,-7.873630524E-2,7.462501526E-2,1.620233131E-1
6.962030729E0,-1.570911705E-1,-6.929731369E-2,3.156948090E-2,1.745748713E-1
6.967007240E0,-1.322383583E-1,-6.003189087E-2,7.950782776E-3,1.454442376E-1
6.971983698E0,-1.268557012E-1,-8.637952805E-2,-2.737903595E-2,1.558954887E-1
6.976983594E0,-1.217100620E-1,-7.697248459E-2,-6.473064423E-2,1.578865380E-1
6.981960000E0,-8.586838841E-2,-7.473087311E-2,-1.041564941E-1,1.542940660E-1
6.986936511E0,-3.139305115E-2,-7.241630554E-2,-7.915306091E-2,1.117803740E-1
6.991912969E0,-3.205621243E-2,-6.532287598E-2,-7.813358307E-2,1.067686081E-1
6.996889427E0,-1.848971844E-2,-6.538248062E-2,-9.138965607E-2,1.138806731E-1
7.001865938E0,2.135455608E-3,-7.257366180E-2,-1.354160309E-1,1.536521981E-1
7.006792657E0,-3.488421440E-3,-6.288909912E-2,-1.102771759E-1,1.269971000E-1
7.011769167E0,-4.206001759E-3,-7.704734802E-2,-8.535194397E-2,1.150605868E-1
7.016745573E0,-4.868090153E-3,-7.901525497E-2,-1.034898758E-1,1.302968273E-1
7.021722032E0,-5.407691002E-3,-7.132577896E-2,-1.096715927E-1,1.309368860E-1
7.026698542E0,1.231014729E-3,-7.082700729E-2,-8.967399597E-2,1.142777577E-1
7.031675000E0,-1.494407654E-3,-9.393453598E-2,-7.705497742E-2,1.215047318E-1
7.036641042E0,-1.343852282E-2,-1.189866066E-1,-9.080219269E-2,1.502778914E-1
7.041617500E0,3.535568714E-3,-1.245746613E-1,-1.283292770E-1,1.788847389E-1
7.046594011E0,8.865773678E-3,-1.133041382E-1,-1.514015198E-1,1.893115154E-1
7.051570417E0,-2.360463142E-3,-6.863784790E-2,-1.530199051E-1,1.677254224E-1
7.056546927E0,-3.487306833E-2,-5.484867096E-2,-1.429252625E-1,1.570099941E-1
7.061523386E0,-4.117012024E-2,-4.321336746E-2,-1.211843491E-1,1.350852338E-1
7.066526250E0,-6.418278813E-2,-1.256752014E-2,-4.502868652E-2,7.940374969E-2
7.071502761E0,-7.279956341E-2,2.261209488E-2,4.948329926E-2,9.088278260E-2
7.076479219E0,-6.008371711E-2,1.212406158E-2,1.884632111E-1,1.981802913E-1
7.081455677E0,-6.174930930E-2,2.040147781E-2,2.884330750E-1,2.956735298E-1
7.086432188E0,-5.157279968E-2,-2.326965332E-4,3.283452988E-1,3.323709419E-1
7.091408646E0,-3.903591633E-2,-1.641845703E-2,3.301362991E-1,3.328413203E-1
7.096372396E0,-1.484280825E-2,-2.106046677E-2,3.012609482E-1,3.023607301E-1
7.101348854E0,-7.621407509E-3,-4.984521866E-2,2.942152023E-1,2.985049697E-1
7.106325365E0,-5.310833454E-3,-4.547548294E-2,2.850217819E-1,2.886756669E-1
7.111301823E0,-1.487231255E-2,-3.909444809E-2,2.214221954E-1,2.253383016E-1
7.116278282E0,-1.482957602E-2,-6.854391098E-2,1.394157410E-1,1.560606705E-1
7.121254740E0,-1.733195782E-2,-8.359861374E-2,8.665752411E-2,1.216497080E-1
7.126176667E0,-1.284408569E-2,-7.004451752E-2,2.723312378E-2,7.624203566E-2
7.131153125E0,-6.211698055E-3,-4.716396332E-2,-4.828357697E-2,6.778147559E-2
7.136129636E0,-3.766793013E-2,-3.854084015E-2,-9.950160980E-2,1.131584715E-1
7.141106042E0,-2.388608456E-2,-3.691196442E-2,-1.598806381E-1,1.658157309E-1
7.146082552E0,-1.245272160E-2,-6.822395325E-2,-1.320285797E-1,1.491345833E-1
7.151059011E0,3.827869892E-3,-4.938220978E-2,-1.115493774E-1,1.220512959E-1
7.156066407E0,5.358523130E-2,-5.203151703E-2,-7.940578461E-2,1.090134598E-1
7.161042865E0,7.484716177E-2,-7.099962234E-2,-1.355886459E-1,1.703740735E-1
7.166019375E0,8.430796862E-2,-7.063055038E-2,-1.486415863E-1,1.849076240E-1
7.170995834E0,9.375709295E-2,-5.108070374E-2,-1.759300232E-1,2.057935952E-1
7.175972292E0,6.507152319E-2,-6.233882904E-2,-1.603403091E-1,1.839278322E-1
7.180948750E0,5.790799856E-2,-3.288936615E-2,-1.497344971E-1,1.638763751E-1
7.185912500E0,2.690142393E-2,-8.166313171E-3,-1.773433685E-1,1.795579172E-1
7.190889011E0,7.706165314E-3,-3.081703186E-2,-1.763601303E-1,1.791981306E-1
7.195865469E0,-2.334839106E-2,-3.170967102E-2,-9.469795227E-2,1.025590209E-1
7.200841927E0,-3.998285532E-2,-3.981065750E-2,-6.540298462E-3,5.680046368E-2
7.205818438E0,-4.913854599E-2,-7.891225815E-2,1.094627380E-1,1.436100004E-1
7.210794844E0,1.431405544E-3,-5.145263672E-2,2.174911499E-1,2.234990448E-1
7.215760521E0,2.326130867E-2,-5.790519714E-2,2.749223709E-1,2.819156086E-1
7.220736927E0,2.858746052E-2,-3.384876251E-2,2.845468521E-1,2.879755071E-1
7.225713438E0,3.126621246E-3,-3.180360794E-2,2.634048462E-1,2.653363116E-1
7.230689896E0,-3.166878223E-2,-2.525520325E-2,1.689090729E-1,1.736980482E-1
7.235666354E0,-6.407952309E-2,-3.533697128E-2,4.906272888E-2,8.810243007E-2
7.240642813E0,-6.103727221E-2,2.314567566E-3,-5.683898926E-3,6.134502856E-2
7.245606042E0,-2.281671762E-2,-7.962226868E-3,-3.376579285E-2,4.152262548E-2
7.250582136E0,1.221418381E-2,3.321647644E-3,-3.549861908E-2,3.768781747E-2
7.255558177E0,1.609367132E-2,-3.775310516E-2,-2.534008026E-2,4.823300606E-2
7.260534219E0,1.518732309E-2,-6.167364120E-2,-4.385852814E-2,7.718719643E-2
7.265510365E0,1.205468178E-2,-5.446577072E-2,-8.125686646E-2,9.856223353E-2
7.270486407E0,2.352958918E-2,-4.252529144E-2,-1.112585068E-1,1.214104498E-1
7.275452552E0,9.014248848E-3,-3.994989395E-2,-1.506376266E-1,1.561055581E-1
7.280428594E0,-2.694129944E-3,-5.857896805E-2,-1.304130554E-1,1.429906251E-1
7.285404688E0,9.666562080E-3,-1.148638725E-1,-9.621143341E-2,1.501459009E-1
7.290380729E0,3.419941664E-2,-1.207075119E-1,-8.611583710E-2,1.521704338E-1
7.295356875E0,3.244662285E-2,-8.834600449E-2,-7.142639160E-2,1.181504518E-1
7.300332917E0,-2.367073298E-2,-1.298990250E-1,-6.399917603E-2,1.467308925E-1
7.305262240E0,-6.980207562E-2,-1.021642685E-1,-1.152324677E-2,1.242684704E-1
7.310238334E0,-6.099730730E-2,-7.451963425E-2,1.194763184E-2,9.703913279E-2
7.315214427E0,-5.468866229E-2,-5.199861526E-2,4.004287720E-2,8.542913898E-2
7.320190521E0,-5.586209893E-2,-3.435993195E-2,1.325893402E-2,6.691022606E-2
7.325166563E0,-4.560035467E-2,-2.528667450E-3,-6.082344055E-2,7.606101121E-2
7.330142657E0,2.037644386E-3,-1.582384109E-2,-3.223800659E-2,3.596991814E-2
7.335149584E0,1.777762175E-2,-1.237392426E-2,5.553340912E-2,5.960803104E-2
7.340125625E0,3.284478188E-2,-1.618814468E-2,9.277248383E-2,9.973750288E-2
7.345101719E0,5.926114321E-2,3.205204010E-2,1.773490906E-1,1.897153560E-1
7.350077813E0,4.511749744E-2,2.971506119E-2,2.827358246E-1,2.878508641E-1
7.355053907E0,8.111655712E-2,4.383230209E-2,3.113098145E-1,3.246767117E-1
7.360029948E0,1.076241732E-1,3.608179092E-2,3.160467148E-1,3.358130197E-1
7.364994011E0,1.012246013E-1,1.847600937E-2,2.781457901E-1,2.965684801E-1
7.369970104E0,1.004980803E-1,-8.873939514E-3,2.335634232E-1,2.544218614E-1
7.374946146E0,1.074492931E-1,2.334785461E-2,1.537075043E-1,1.889880149E-1
7.379922240E0,8.623695374E-2,-1.809597015E-3,1.125450134E-1,1.417972739E-1
7.384898282E0,2.729010582E-2,1.358604431E-2,8.599281311E-2,9.123647507E-2
7.389874375E0,-1.909607649E-2,1.921463013E-2,7.159233093E-2,7.654622131E-2
7.394836615E0,-5.079376698E-2,-2.512121201E-2,3.594398499E-2,6.710478457E-2
7.399812657E0,-6.098291278E-2,-5.706644058E-2,-2.322006226E-2,8.668717081E-2
7.404788750E0,-2.626067400E-2,-5.777168274E-2,-8.429145813E-2,1.055094320E-1
7.409764844E0,-1.594424248E-2,-6.556510925E-2,-1.377201080E-1,1.533617637E-1
7.414740938E0,-8.380651474E-3,-2.323532104E-2,-1.503829956E-1,1.523980342E-1
7.419716979E0,-8.439949155E-2,-1.093420982E-1,-1.511316299E-1,2.047431029E-1
7.424688177E0,-1.008161008E-1,-1.280622482E-1,-1.210374832E-1,2.030120636E-1
7.429664219E0,-6.977453828E-2,-1.085233688E-1,-7.935142517E-2,1.514676746E-1
7.434640313E0,6.096363068E-3,-8.663034439E-2,-7.846069336E-2,1.170387227E-1
7.439616354E0,1.726263762E-2,-5.062770844E-2,-3.959083557E-2,6.654771055E-2
7.444592448E0,1.193827391E-2,-4.344272614E-2,-1.055526733E-2,4.627317264E-2
7.449568542E0,-2.724468708E-3,-6.239891052E-2,1.577377319E-3,6.247827529E-2
7.454535417E0,-2.919375896E-3,-2.423715591E-2,-1.250171661E-2,2.742727476E-2
7.459511459E0,2.297055721E-2,-6.245756149E-2,-2.682685852E-3,6.660172888E-2
7.464487552E0,3.187692165E-2,-4.804515839E-2,-4.839897156E-3,5.786104029E-2
7.469463646E0,5.120635033E-3,-3.603982925E-2,2.478599548E-3,3.648607476E-2
7.474439688E0,1.650148630E-2,-2.166509628E-2,1.919937134E-2,3.332103400E-2
7.479415782E0,4.446846247E-2,-4.778194427E-2,2.389431000E-2,6.950896635E-2
7.484381250E0,7.481443882E-2,-3.329706192E-2,1.665687561E-2,8.356641726E-2
7.489357292E0,7.680088282E-2,-9.338855743E-3,6.642532349E-2,1.019701595E-1
7.494333386E0,5.527651310E-2,-9.333610535E-3,5.637359619E-2,7.950214798E-2
7.499309427E0,2.450388670E-2,-2.371406555E-2,6.309127808E-2,7.171685114E-2
7.504285573E0,-1.518619061E-2,-4.515409470E-2,7.450962067E-2,8.843752724E-2
7.509261615E0,-5.216747522E-2,-5.215644836E-2,7.157611847E-2,1.027856085E-1
7.514228854E0,-4.845547676E-2,-5.928325653E-2,5.925083160E-2,9.681476529E-2
7.519204896E0,-3.780776262E-2,-4.738521576E-2,7.556533813E-2,9.687572407E-2
7.524180990E0,-3.009670973E-2,-4.518318176E-2,7.756328583E-2,9.467520879E-2
7.529157084E0,-3.950637579E-2,-6.457471848E-2,5.353260040E-2,9.271670454E-2
7.534133125E0,-8.466222882E-2,-8.385705948E-2,2.261257172E-2,1.212890259E-1
7.539109219E0,-6.337434053E-2,-9.109830856E-2,-3.415489197E-2,1.161110051E-1
7.544076146E0,-4.014736414E-2,-7.210254669E-2,-9.045505524E-2,1.224447022E-1
7.549052240E0,1.124399900E-2,-1.750373840E-2,-1.297092438E-1,1.313670289E-1
7.554028282E0,2.650219202E-2,-2.032804489E-2,-1.163892746E-1,1.210869887E-1
7.559004375E0,4.407852888E-2,-2.541303635E-2,-7.472324371E-2,9.040078692E-2
7.563980469E0,3.798681498E-2,-6.129646301E-2,-9.681701660E-3,7.275980921E-2
7.568956511E0,3.455501795E-2,-8.738470078E-2,2.154827118E-2,9.640779629E-2
7.573923542E0,6.949168444E-2,-6.821346283E-2,3.591346741E-2,1.037879948E-1
7.578899584E0,6.629687548E-2,-6.591701508E-2,6.206703186E-2,1.122169551E-1
7.583875677E0,1.595091820E-2,-6.829071045E-2,2.616977692E-2,7.485258946E-2
7.588851719E0,3.771561384E-2,-3.030776978E-2,-2.368450165E-2,5.387006641E-2
7.593827865E0,3.810793161E-2,-6.659030914E-3,-8.987712860E-2,9.784914609E-2
7.598803907E0,2.930283546E-2,-4.346847534E-3,-1.200160980E-1,1.236180207E-1
7.603768334E0,5.885988474E-2,-1.136827469E-2,-1.523866653E-1,1.637541434E-1
7.608744427E0,1.959091425E-2,-2.740526199E-2,-1.395750046E-1,1.435828479E-1
7.613720469E0,9.274721146E-3,-3.361558914E-2,-1.008367538E-1,1.066962005E-1
7.618696511E0,-3.544747829E-3,-3.008556366E-2,-1.147575378E-1,1.186886636E-1
7.623672657E0,-1.656794548E-2,-2.383995056E-2,-7.170391083E-2,7.735819858E-2
7.628648698E0,-2.292239666E-2,3.733158112E-3,-1.472187042E-2,2.749738545E-2
7.633616354E0,-6.314218044E-2,4.896640778E-3,6.323051453E-2,8.949307241E-2
7.638592448E0,-1.060607433E-1,-3.585815430E-3,2.024011612E-1,2.285343944E-1
7.643568490E0,-1.205601096E-1,-1.721191406E-2,3.002738953E-1,3.240299403E-1
7.648544584E0,-1.138648093E-1,-4.791641235E-2,3.904895782E-1,4.095647544E-1
7.653520677E0,-3.814893961E-2,-3.142690659E-2,4.279508591E-1,4.307956938E-1
7.658496719E0,-1.015257835E-2,-1.322555542E-2,4.463186264E-1,4.466299435E-1
7.663464688E0,-7.320046425E-4,9.151935577E-3,3.672962189E-1,3.674109500E-1
7.668440782E0,3.064906597E-2,-1.185083389E-2,2.677154541E-1,2.697246223E-1
7.673416823E0,4.069501162E-2,2.715110779E-3,1.215486526E-1,1.282089340E-1
7.678392865E0,2.245962620E-2,-1.856470108E-2,2.757072449E-3,2.926917122E-2
7.683369011E0,4.468566179E-2,-1.801300049E-2,-1.032934189E-1,1.139772212E-1
7.688345052E0,4.508531094E-2,1.607370377E-2,-1.871967316E-1,1.932192162E-1
7.693313438E0,-1.169639826E-2,-6.381320953E-2,-2.277889252E-1,2.368474739E-1
7.698289532E0,-2.534127235E-2,-4.051589966E-2,-1.945714951E-1,2.003541487E-1
7.703265573E0,-5.075263977E-2,-2.834320068E-3,-1.404047012E-1,1.493229518E-1
7.708241667E0,-2.859812975E-2,-2.250623703E-2,-8.429050446E-2,9.181107162E-2
7.713217761E0,-3.993058205E-2,-4.210329056E-2,-2.147388458E-2,6.187298423E-2
7.718193802E0,-2.251803875E-2,-2.589797974E-2,-1.857948303E-2,3.902517922E-2
7.723150052E0,9.374737740E-3,-3.605556488E-2,-6.184577942E-3,3.776424858E-2
7.728126146E0,1.983410120E-2,-6.044101715E-2,1.372337341E-3,6.362697097E-2
7.733102188E0,2.566653490E-2,-7.279491425E-2,-2.437973022E-2,8.094591898E-2
7.738078229E0,-1.879274845E-3,-7.302951813E-2,-7.373523712E-2,1.037965673E-1
7.743054375E0,-2.486944199E-2,-7.544898987E-2,-1.726293564E-1,1.900314024E-1
7.748030417E0,-5.984899402E-2,-7.280540466E-2,-1.852998734E-1,2.078907696E-1
7.753004479E0,-7.571700215E-2,-8.894014359E-2,-1.789665222E-1,2.137110892E-1
7.757980261E0,-4.643425345E-2,-6.921052933E-2,-1.869783401E-1,2.047123273E-1
7.762955990E0,1.099175215E-2,-6.361770630E-2,-1.570405960E-1,1.697933449E-1
7.767931771E0,7.252401114E-2,-6.505966187E-2,-1.440382004E-1,1.738950688E-1
7.772907500E0,9.087330103E-2,-6.165552139E-2,-7.179927826E-2,1.312040263E-1
7.777883282E0,4.271614552E-2,-4.873943329E-2,1.643848419E-2,6.686123845E-2
7.782852344E0,-7.249474525E-3,-5.507469177E-2,1.016216278E-1,1.158133489E-1
7.787828073E0,-1.638942957E-2,-4.733610153E-2,1.244392395E-1,1.341433719E-1
7.792803854E0,-3.500014544E-2,-3.281259537E-2,1.733331680E-1,1.798501146E-1
7.797779584E0,-3.665822744E-2,-4.714345932E-2,1.316452026E-1,1.445572232E-1
7.802755365E0,-1.906222105E-2,-7.104682922E-2,1.046333313E-1,1.279029094E-1
7.807731146E0,1.088202000E-3,-5.684709549E-2,6.599998474E-2,8.711357205E-2
7.812662500E0,3.764384985E-2,-4.741764069E-2,8.640289307E-3,6.115673862E-2
7.817638229E0,1.924115419E-2,-5.223369598E-2,-8.153915405E-2,9.872798314E-2
7.822614011E0,-1.575052738E-3,-4.955816269E-2,-1.449785233E-1,1.532229242E-1
7.827589740E0,-3.192865849E-2,-5.630445480E-2,-2.079257965E-1,2.177676921E-1
7.832565521E0,-8.364275098E-2,-5.073404312E-2,-2.016248703E-1,2.241040857E-1
7.837541302E0,-1.162468493E-1,-2.348852158E-2,-1.955184937E-1,2.286755824E-1
7.842548750E0,-1.250340939E-1,-1.512908936E-2,-1.658601761E-1,2.082594823E-1
7.847524479E0,-8.867588639E-2,-4.314899445E-3,-8.425331116E-2,1.223954722E-1
7.852500261E0,-4.062393308E-2,-2.670383453E-2,-3.190803528E-2,5.815085066E-2
7.857476042E0,-1.663088799E-2,-1.578474045E-2,6.994628906E-2,7.360861240E-2
7.862451771E0,-2.578747272E-2,-3.127288818E-2,1.187601089E-1,1.254868549E-1
7.867427552E0,2.256464958E-2,-4.445695877E-2,1.672363281E-1,1.745095242E-1
7.872355313E0,4.903215170E-2,-1.031303406E-2,1.821966171E-1,1.889606252E-1
7.877331042E0,1.520872116E-3,-3.137826920E-2,1.805458069E-1,1.832585529E-1
7.882306823E0,-1.967722178E-2,-2.875089645E-2,1.386499405E-1,1.429601801E-1
7.887282552E0,-1.250028610E-2,-2.533912659E-3,1.304483414E-1,1.310703919E-1
7.892258334E0,-1.276808977E-2,1.945018768E-3,1.461505890E-1,1.467201482E-1
7.897234063E0,-8.454382420E-3,8.795738220E-3,1.260833740E-1,1.266722495E-1
7.902240209E0,-2.094626427E-3,1.776218414E-2,1.110477448E-1,1.124788169E-1
7.907215990E0,-1.020008326E-2,5.185604095E-3,1.318216324E-1,1.323173267E-1
7.912191719E0,-1.339244843E-2,-7.475852966E-3,1.287517548E-1,1.296621009E-1
7.917167500E0,-1.636683941E-2,-1.322984695E-2,1.448535919E-1,1.463744014E-1
