"Time (s)","Linear Acceleration x (m/s^2)","Linear Acceleration y (m/s^2)","Linear Acceleration z (m/s^2)","Absolute acceleration (m/s^2)"
4.988887200E-2,0.000000000E0,0.000000000E0,0.000000000E0,0.000000000E0
5.463762200E-2,2.153785527E-2,4.765039310E-3,4.787445068E-3,2.257220502E-2
5.938642400E-2,-3.732740879E-5,1.274168678E-2,9.575843811E-3,1.593890711E-2
6.413522600E-2,1.427963376E-2,1.854325086E-2,-2.334117889E-2,3.305405762E-2
6.888402800E-2,1.832947135E-3,7.136058062E-3,4.310607910E-3,8.536062349E-3
7.363277800E-2,-2.501651645E-3,1.393609494E-2,-4.386901855E-3,1.482288471E-2
7.838158100E-2,-1.449684799E-2,-6.514225155E-3,-5.811691284E-3,1.692245510E-2
8.313038300E-2,-3.160449117E-2,-9.930167347E-3,-7.180213928E-3,3.389701400E-2
8.787918500E-2,-2.382713556E-2,-3.556497395E-4,-2.340602875E-2,3.340211157E-2
9.262793500E-2,-4.516234994E-2,-1.328952983E-2,-8.137702942E-3,4.777522019E-2
9.737673700E-2,-3.024306893E-2,-5.568305030E-3,-3.045082092E-3,3.090180843E-2
1.021255390E-1,-2.996044606E-2,-7.307864726E-4,-1.156806946E-2,3.212448611E-2
1.068743410E-1,-3.432885557E-2,-9.530473500E-3,4.792213440E-3,3.594809536E-2
1.116231430E-1,-5.243286490E-3,1.339203119E-2,-1.333332062E-2,1.961162898E-2
1.163718930E-1,-1.384855062E-2,1.697875559E-2,-1.691341400E-2,2.767894631E-2
1.211206950E-1,2.711370587E-3,2.263458446E-2,2.099037170E-3,2.289283515E-2
1.258694970E-1,2.954712510E-2,1.675269008E-2,1.976013184E-3,3.402337218E-2
1.306182990E-1,-1.559898257E-3,2.482228726E-2,1.543331146E-2,2.927057106E-2
1.353670490E-1,1.664988697E-2,1.215880364E-2,1.462078094E-2,2.527493773E-2
1.401158510E-1,-1.152019203E-2,1.608410105E-2,-2.030372620E-3,1.988807542E-2
1.448646530E-1,-1.098902524E-2,-2.911087126E-3,-8.773803711E-3,1.436010917E-2
1.496134560E-1,-3.705881536E-3,1.747589558E-3,1.219367981E-2,1.286364857E-2
1.543622580E-1,-5.906984210E-3,1.997457817E-2,-4.365921021E-3,2.128232840E-2
1.591110080E-1,-1.941649616E-2,7.428191602E-4,2.105331421E-2,2.864950510E-2
1.638598100E-1,2.083167434E-3,-3.845062107E-3,-7.369041443E-3,8.568947482E-3
1.686086120E-1,-1.412869245E-2,5.494780838E-3,-1.399135590E-2,2.062936273E-2
1.733574140E-1,-2.123363316E-3,-1.086357981E-2,-4.251480103E-3,1.185753436E-2
1.781061640E-1,-3.213208169E-2,-1.258440316E-3,-2.487659454E-2,4.065586430E-2
1.828549660E-1,-2.187896520E-2,-1.281675883E-2,1.990318298E-2,3.223499834E-2
1.876037680E-1,1.349166036E-2,-2.166362479E-2,7.266998291E-4,2.553165939E-2
1.923525700E-1,-1.010185480E-2,-3.256607801E-2,-8.564949036E-3,3.515615535E-2
1.971013200E-1,6.403446198E-3,-6.025321782E-3,-1.989173889E-2,2.174833101E-2
2.018501220E-1,2.006550133E-2,-3.594353795E-3,1.553440094E-2,2.562930618E-2
2.065989240E-1,1.478250325E-2,3.465436399E-3,8.107185364E-3,1.721214996E-2
2.113477260E-1,2.594323456E-2,-5.897756666E-3,5.550384521E-3,2.717796390E-2
2.160965280E-1,6.584420800E-3,-1.270609349E-2,2.401542664E-2,2.795603916E-2
2.208452780E-1,-2.872504294E-3,-7.331073284E-4,-1.157379150E-2,1.194744228E-2
2.255940810E-1,1.847967505E-3,-1.238705218E-2,1.204204559E-2,1.737425992E-2
2.303428830E-1,1.111386716E-2,-1.444726065E-2,-2.264022827E-3,1.836755789E-2
2.350916850E-1,-7.883735001E-3,-1.179661229E-2,-2.206802368E-3,1.435908478E-2
2.398404350E-1,3.913179040E-3,7.188145071E-3,-2.317237854E-2,2.457522181E-2
2.445892370E-1,1.548777521E-2,4.635065794E-3,1.009845734E-2,1.906131833E-2
2.493380390E-1,1.510998607E-2,6.848607212E-3,-2.053546906E-2,2.639925357E-2
2.540868410E-1,1.472081244E-2,4.308018833E-3,9.889602661E-4,1.537008092E-2
2.588355910E-1,1.905773580E-2,-4.862472415E-4,9.670257568E-4,1.908844858E-2
2.635843930E-1,1.628386974E-2,1.820717007E-3,7.971763611E-3,1.822164755E-2
2.683331950E-1,1.357658207E-2,-2.949658781E-3,-3.913879395E-3,1.443407495E-2
2.730819970E-1,1.562032104E-2,8.843969554E-3,1.023387909E-2,2.066258715E-2
2.778307990E-1,-1.280272007E-2,-1.712271944E-2,-8.738517761E-3,2.309672823E-2
2.825795490E-1,-1.728487760E-2,-7.412914187E-3,3.169059753E-3,1.907252553E-2
2.873283510E-1,-2.869918197E-2,-2.619381994E-3,-1.801776886E-2,3.398741242E-2
2.920771530E-1,-9.408973157E-3,4.486981779E-3,1.520156860E-2,1.843229420E-2
2.968259560E-1,-2.093750238E-2,6.791330874E-3,-1.562213898E-2,2.699170997E-2
3.015747060E-1,-1.821793616E-2,1.140518114E-2,-1.063346863E-2,2.398003356E-2
3.063235080E-1,-3.206448257E-2,-1.229642332E-2,1.313209534E-3,3.436651842E-2
3.110723100E-1,-2.216102183E-2,-5.010977387E-3,-1.516914368E-2,2.731892572E-2
3.158211120E-1,2.046281099E-2,-4.911597818E-3,-3.141403198E-3,2.127719063E-2
3.205699140E-1,1.771104336E-2,1.868446544E-2,1.808834076E-2,3.146392183E-2
3.253186640E-1,3.300189972E-3,-1.221651956E-2,1.072216034E-2,1.658611849E-2
3.300674660E-1,7.907643914E-3,-4.882939160E-3,4.114723206E-2,4.218374845E-2
3.348162680E-1,1.247009635E-2,4.627257586E-3,5.150794983E-3,1.426343243E-2
3.395650700E-1,-1.853600144E-3,-1.192390919E-2,2.626705170E-2,2.890628735E-2
3.443138200E-1,4.858374596E-4,-2.821620181E-2,-2.423286438E-3,2.832423697E-2
3.490626220E-1,-2.080622315E-2,-1.595312729E-2,4.003620148E-2,4.785706449E-2
3.538114240E-1,5.454421043E-3,-2.279672772E-2,8.776664734E-3,2.502940965E-2
3.585602260E-1,-1.353694499E-2,-8.321614936E-3,1.571655273E-2,2.234967974E-2
3.633089760E-1,-1.102244854E-2,-1.083541662E-3,-1.045989990E-2,1.523410451E-2
3.680577780E-1,1.029537618E-2,2.955162898E-2,-7.946014404E-3,3.228672623E-2
3.728065810E-1,5.324304104E-3,2.438766137E-2,-2.434539795E-2,3.486839031E-2
3.775553830E-1,1.700146496E-2,1.933097467E-2,4.321098328E-3,2.610379825E-2
3.823041330E-1,2.615721524E-2,1.668144390E-2,1.842308044E-2,3.608157941E-2
3.870529350E-1,1.400019228E-2,-7.175605744E-3,-1.488399506E-2,2.165705452E-2
3.918017370E-1,1.984000206E-3,-3.070722893E-2,2.073860168E-2,3.710740849E-2
3.965505390E-1,1.610976458E-2,-9.025031701E-3,-5.520820618E-3,1.927317234E-2
4.012993410E-1,4.066050053E-3,2.918086946E-3,1.640319824E-3,5.266748863E-3
4.060480910E-1,8.719846606E-3,1.237002760E-2,-2.909564972E-2,3.279649585E-2
4.107968930E-1,-5.617789924E-3,7.523316890E-3,-2.162837982E-2,2.357852146E-2
4.155456950E-1,3.861516714E-3,-4.435498267E-3,-8.010864258E-5,5.881443157E-3
4.202944970E-1,-1.041648537E-2,-1.151607931E-2,7.013320923E-3,1.703848351E-2
4.250432990E-1,-1.506099105E-2,1.228113100E-2,-9.622573853E-3,2.168533047E-2
4.297920490E-1,-2.437937260E-2,2.154157311E-2,2.321243286E-3,3.261566112E-2
4.345408510E-1,-2.844214439E-3,9.437073022E-3,-3.081512451E-2,3.235304934E-2
4.392896530E-1,-9.952090681E-3,1.643067226E-2,-2.060890198E-3,1.931989566E-2
4.440384560E-1,-1.458297670E-2,2.025309950E-3,-2.036094666E-3,1.486306736E-2
4.487872060E-1,-2.628147602E-3,4.407409579E-3,-2.012252808E-3,5.511948873E-3
4.535360080E-1,-4.981555045E-3,1.140881330E-2,9.843826294E-3,1.587065933E-2
4.582848100E-1,-2.546966076E-3,6.555315107E-3,7.363319397E-3,1.018222298E-2
4.630336120E-1,9.326860309E-3,-1.244240627E-2,1.201343536E-2,1.965009990E-2
4.677823620E-1,4.441350698E-3,6.674636155E-3,1.187801361E-2,1.433051189E-2
4.725311640E-1,1.147666574E-2,6.611648947E-3,1.884841919E-2,2.303672425E-2
4.772799660E-1,-7.637977600E-3,1.842703670E-3,9.170532227E-3,1.207613017E-2
4.820287680E-1,-1.947005093E-2,-2.184727974E-2,2.091121674E-2,3.596756179E-2
4.867775180E-1,-1.933552325E-2,2.102921903E-2,-6.275177002E-4,2.857418924E-2
4.915263200E-1,-1.914778352E-2,1.131404564E-2,1.748085022E-3,2.230921432E-2
4.962751220E-1,-3.080867231E-2,-3.035385162E-3,-6.399154663E-4,3.096445291E-2
5.010239240E-1,-1.871679723E-2,-5.390241742E-3,-6.322860718E-4,1.948776515E-2
5.057726740E-1,-3.044578433E-2,6.495092064E-3,-2.994537354E-3,3.127457847E-2
5.105214760E-1,1.250097156E-2,-6.686374545E-4,-2.964019775E-3,1.286494381E-2
5.152702780E-1,-4.261083901E-3,-3.151663020E-2,-5.302429199E-3,3.224237229E-2
5.200190810E-1,-4.293359816E-3,-1.225752756E-2,-5.083084106E-4,1.299762662E-2
5.247678830E-1,4.150569439E-4,9.208578616E-3,-5.025863647E-4,9.231618788E-3
5.295166330E-1,1.461653411E-2,-5.121685565E-3,-1.946258545E-2,2.487301680E-2
5.342654350E-1,1.205739379E-2,4.394125193E-3,1.628971100E-2,2.073749661E-2
5.390142370E-1,7.153034210E-3,4.334170371E-3,-9.947776794E-3,1.299650701E-2
5.437630390E-1,-1.806020737E-5,-4.392452538E-4,6.746292114E-3,6.760600554E-3
5.485118410E-1,7.078662515E-3,6.691005081E-3,-7.546424866E-3,1.232175070E-2
5.532605910E-1,-1.490563154E-4,1.896221191E-3,2.012252808E-3,2.768940944E-3
5.580093930E-1,-7.309749722E-3,2.086493373E-2,-1.935291290E-2,2.938219084E-2
5.627581950E-1,-2.629470825E-2,2.299977839E-2,4.547119141E-3,3.522893385E-2
5.675069970E-1,-4.722528160E-3,-9.785369039E-4,-2.612113953E-3,5.484792247E-3
5.722557470E-1,1.190987229E-2,-3.359597176E-3,3.062725067E-2,3.303271764E-2
5.770045490E-1,2.294778824E-3,-3.413524851E-2,1.848983765E-2,3.888901255E-2
5.817533510E-1,-1.195220649E-2,-2.904796600E-2,-6.570816040E-4,3.141769128E-2
5.865021530E-1,7.091119885E-3,9.187236428E-3,-3.024101257E-3,1.199310147E-2
5.912509030E-1,-2.146777511E-2,1.615273580E-2,-2.996444702E-3,2.703247903E-2
5.959997060E-1,4.778921604E-3,2.305941284E-2,6.525039673E-3,2.443666824E-2
6.007485080E-1,-7.119536400E-3,8.574966341E-3,6.469726562E-3,1.288701704E-2
6.054973100E-1,-2.132005990E-2,2.272817865E-2,1.667976379E-3,3.120732613E-2
6.102461120E-1,-2.590684593E-2,1.125816256E-3,1.352310181E-2,2.924562208E-2
6.149948620E-1,-9.089805186E-3,-1.217946410E-3,8.663177490E-3,1.261580739E-2
6.197436640E-1,-1.143476367E-2,-2.493770048E-2,-9.050369263E-4,2.744925896E-2
6.244924660E-1,-6.637737155E-3,1.086534560E-2,-1.514148712E-2,1.978332433E-2
6.292412680E-1,-9.003020823E-3,3.663562238E-3,-3.144264221E-3,1.021579511E-2
6.339900180E-1,-1.137703657E-2,-1.060101576E-2,8.754730225E-3,1.784555400E-2
6.387388200E-1,5.421936512E-4,-3.379393369E-3,8.682250977E-3,9.332510676E-3
6.434876220E-1,2.185842395E-2,1.380082220E-3,2.523040771E-2,3.341060906E-2
6.482364240E-1,1.456451416E-2,-9.657926857E-4,1.789665222E-2,2.309432807E-2
6.529852260E-1,1.445370913E-2,2.047829330E-2,-1.074218750E-2,2.727021812E-2
6.577339760E-1,1.903499663E-2,2.503895760E-2,-3.529548645E-3,3.165024815E-2
6.624827780E-1,9.275957942E-3,-1.557539031E-2,1.312065125E-2,2.237828564E-2
6.672315810E-1,2.001181245E-3,-1.071465574E-2,2.725791931E-2,2.935647696E-2
6.719803310E-1,6.772041321E-3,-2.485904470E-2,1.041030884E-2,2.778861596E-2
6.767291330E-1,-9.921304882E-3,-1.514408737E-2,-3.921508789E-3,1.852441373E-2
6.814779350E-1,-1.697895676E-2,-1.025838591E-2,-1.813316345E-2,2.687621757E-2
6.862267370E-1,-1.925820112E-2,-7.815733552E-3,-1.085853577E-2,2.344934542E-2
6.909755390E-1,-1.442466676E-2,-1.014136337E-2,-1.076698303E-2,2.066025619E-2
6.957242890E-1,-1.435078681E-2,-1.007458009E-2,-1.179695129E-3,1.757367140E-2
7.004730910E-1,-7.183760405E-3,-7.633831352E-3,5.953788757E-3,1.205526421E-2
7.052218930E-1,-1.429279149E-2,-1.471001655E-2,-1.216888428E-3,2.054627199E-2
7.099706950E-1,5.333125591E-5,-2.705488354E-3,-1.206398010E-3,2.962753384E-3
7.147194450E-1,4.783302546E-3,-2.975836396E-4,-1.781558990E-2,1.844895073E-2
7.194682470E-1,7.099702954E-3,2.090252936E-3,-1.529216766E-2,1.698897676E-2
7.242170490E-1,2.274364233E-3,4.458185285E-3,3.828048706E-3,6.300960689E-3
7.289658510E-1,1.410827041E-2,-5.092911422E-3,3.796577454E-3,1.547239610E-2
7.337146530E-1,2.130538225E-3,-2.640622109E-2,1.088714600E-2,2.864188635E-2
7.384634030E-1,-2.508014441E-4,-8.752569556E-5,1.079654694E-2,1.079981425E-2
7.432122060E-1,-9.734742343E-3,4.644513130E-3,-3.539085388E-3,1.135173274E-2
7.479610080E-1,-4.923216999E-3,1.414217427E-2,-5.883216858E-3,1.608885948E-2
7.527098100E-1,4.596650600E-3,6.884153932E-3,3.663063049E-3,9.052005469E-3
7.574585600E-1,4.483342171E-3,6.809432060E-3,8.381843567E-3,1.169290484E-2
7.622073620E-1,-9.845472872E-3,-1.932279393E-2,8.312225342E-3,2.322491747E-2
7.669561640E-1,-4.299069941E-2,1.174155250E-2,3.494262695E-3,4.470205994E-2
7.717049660E-1,5.587935448E-5,-2.161934972E-4,-1.790142059E-2,1.790281323E-2
7.764537160E-1,-9.459070861E-3,6.919261068E-3,5.989074707E-3,1.316127696E-2
7.812025180E-1,-9.455271065E-3,-9.774791077E-3,1.068878174E-2,1.729736242E-2
7.859513200E-1,7.365643978E-5,2.245742828E-3,1.534748077E-2,1.551109126E-2
7.907001220E-1,4.774630070E-3,-1.672564074E-2,9.756088257E-4,1.742113553E-2
7.954488720E-1,-5.990266800E-5,-1.892063767E-2,1.758575439E-2,2.583123837E-2
8.001976740E-1,2.296626568E-3,2.616319805E-3,1.269054413E-2,1.315938954E-2
8.049464760E-1,-1.195672154E-2,-4.545282573E-3,-1.659393311E-3,1.289869644E-2
8.096952780E-1,-1.187509298E-2,7.346350700E-3,-8.768081665E-3,1.648835826E-2
8.144440810E-1,7.170468569E-3,2.519853413E-3,-8.693695068E-3,1.154753717E-2
8.191928310E-1,-4.778258502E-3,-2.208556980E-3,7.998466492E-3,9.575225557E-3
8.239416330E-1,-7.187828422E-3,2.245157957E-4,-1.564025879E-3,7.359447106E-3
8.286904350E-1,-8.039176464E-5,-2.113385312E-2,-2.054309845E-2,2.947312512E-2
8.334392370E-1,2.247840166E-3,9.832073003E-3,-2.037048340E-2,2.273057498E-2
8.381879870E-1,6.959393620E-3,3.350320458E-2,-1.307868958E-2,3.663263570E-2
8.429367890E-1,2.347397804E-2,1.655905321E-2,-8.220672607E-3,2.987991544E-2
8.476855910E-1,2.560596168E-2,-2.435222268E-4,-1.527309418E-2,2.981596858E-2
8.524343930E-1,8.755788207E-3,-2.634628490E-2,1.571750641E-2,3.190345691E-2
8.571831950E-1,1.101052761E-2,-1.896451786E-2,-3.406524658E-3,2.219209468E-2
8.619319450E-1,6.152704358E-3,-6.924904883E-3,3.745079041E-3,9.991781401E-3
8.666807470E-1,-1.050680131E-2,2.583097667E-3,-2.002811432E-2,2.276380088E-2
8.714295490E-1,1.324722171E-2,-1.170067117E-2,-1.511192322E-2,2.325435039E-2
8.761783510E-1,-2.017638087E-2,-6.900414824E-3,-5.489349365E-3,2.201896969E-2
8.809271010E-1,-1.293236017E-2,-2.116190828E-2,-6.942749023E-4,2.481036718E-2
8.856759030E-1,-2.233906090E-2,-1.390903443E-2,2.542781830E-2,3.659328933E-2
8.904247060E-1,-2.217078209E-2,-4.285324365E-3,1.809310913E-2,2.893558676E-2
8.951735080E-1,-1.247864962E-2,1.709999144E-2,-5.799293518E-3,2.194899107E-2
8.999222580E-1,-7.672578096E-3,3.115571290E-2,-8.123397827E-3,3.309888961E-2
9.046710600E-1,1.841515303E-3,2.135356516E-2,-5.681037903E-3,2.217295910E-2
9.094198620E-1,2.311858535E-2,-2.583589405E-3,-8.840560913E-4,2.327929290E-2
9.141686640E-1,1.483604312E-3,6.888616830E-3,2.998828888E-2,3.080505792E-2
9.189174140E-1,-1.282021403E-2,1.164821535E-2,1.074504852E-2,2.038369144E-2
9.236662160E-1,-5.637623370E-3,1.159166917E-2,-2.733135223E-2,3.021841171E-2
9.284150180E-1,-1.753649861E-2,6.729792804E-3,1.388549805E-3,1.883472764E-2
9.331638200E-1,-1.028566808E-2,1.618113741E-2,-2.948760986E-2,3.517304808E-2
9.379126220E-1,-1.027496904E-2,1.125207916E-2,2.298927307E-2,2.758062636E-2
9.426613720E-1,-3.113344312E-3,-7.297843695E-4,-9.422302246E-4,3.333661024E-3
9.474101740E-1,-1.735027879E-2,-7.891692221E-3,-1.280498505E-2,2.296254826E-2
9.521589760E-1,-3.152558208E-2,-1.256301627E-2,-1.744556427E-2,3.815808454E-2
9.569077780E-1,-3.133775294E-2,-2.437535673E-2,8.816719055E-3,4.066875103E-2
9.616565280E-1,-4.978738725E-3,-7.570922375E-3,-1.737308502E-2,1.959415188E-2
9.664053310E-1,-1.445171237E-2,1.861900464E-2,1.600933075E-2,2.849241996E-2
9.711541330E-1,1.645776629E-2,-1.482051611E-2,-3.116607666E-3,2.236557651E-2
9.759029350E-1,1.149730384E-2,-1.951978728E-2,4.033088684E-3,2.301034323E-2
9.806517370E-1,1.887023449E-3,-7.532302290E-3,1.824378967E-2,1.982756407E-2
9.854004870E-1,1.135012507E-2,-7.544390857E-3,2.284049988E-2,2.659758649E-2
9.901492890E-1,-3.007113934E-3,1.149393246E-2,-3.464698792E-3,1.237567595E-2
9.948980910E-1,1.831027865E-2,6.603933871E-3,1.555824280E-2,2.491861083E-2
9.996468930E-1,6.240621209E-3,-6.198361516E-4,1.186370850E-3,6.382556363E-3
1.004395643E0,-1.285089552E-2,1.601520181E-2,1.304721832E-2,2.432821635E-2
1.009144445E0,-1.038741320E-2,-1.025161706E-2,-8.428573608E-3,1.685333375E-2
1.013893247E0,-3.165738285E-2,-1.727779210E-2,-1.235961914E-3,3.608655692E-2
1.018642049E0,-5.475133657E-4,-2.189946361E-2,-3.600120544E-3,2.220016093E-2
1.023390851E0,-5.608350039E-4,4.381302744E-3,-1.543998718E-2,1.605937589E-2
1.028139601E0,-1.247324049E-2,-7.515110075E-3,-1.531028748E-2,2.112968316E-2
1.032888403E0,1.829043031E-3,-3.184601665E-4,1.093387604E-2,1.109037693E-2
1.037637206E0,-2.672241628E-2,-2.760328352E-4,-8.150100708E-3,2.793900262E-2
1.042386008E0,-2.804696560E-3,6.831355393E-3,-8.081436157E-3,1.094729874E-2
1.047134758E0,1.949101686E-3,2.008777112E-3,-2.700805664E-2,2.715270348E-2
1.051883560E0,-5.207471550E-3,-5.119197071E-3,-3.153038025E-2,3.236493191E-2
1.056632362E0,1.615671813E-2,-4.023462534E-4,-1.464748383E-2,2.181169883E-2
1.061381164E0,-1.011156291E-2,9.080614895E-3,-1.690006256E-2,2.168670989E-2
1.066129914E0,-2.894192934E-3,4.210729152E-3,-2.514839172E-3,5.694822982E-3
1.070878716E0,8.982792497E-3,-2.935595810E-3,-9.615898132E-3,1.348235071E-2
1.075627518E0,-7.757425308E-3,-1.949076727E-2,3.082466125E-2,3.728575328E-2
1.080376320E0,-6.452202797E-4,4.452526569E-3,2.079963684E-3,4.956566451E-3
1.085125070E0,-1.021120697E-2,4.397321492E-3,2.063751221E-3,1.130770769E-2
1.089873872E0,-7.046461105E-4,-3.760345280E-4,-2.701759338E-3,2.817344784E-3
1.094622674E0,1.587370038E-2,2.100600675E-2,-7.426261902E-3,2.735646266E-2
1.099371476E0,-5.700819194E-3,8.942492306E-3,1.163005829E-2,1.573930634E-2
1.104120278E0,-2.706708014E-2,1.122476533E-2,1.390743256E-2,3.243514859E-2
1.108869028E0,8.809819818E-3,2.069651708E-2,4.294395447E-3,2.289979425E-2
1.113617831E0,1.584073901E-2,-5.551058799E-3,-4.901885986E-4,1.679236586E-2
1.118366633E0,4.186357558E-2,-7.867738605E-3,1.887321472E-3,4.263827217E-2
1.123115435E0,-1.310846210E-2,4.079394042E-3,-1.712226868E-2,2.194641927E-2
1.127864185E0,1.072438061E-2,-3.094401211E-3,2.014160156E-3,1.134215586E-2
1.132612987E0,-1.309579611E-2,6.439190358E-3,-5.125999451E-3,1.546735008E-2
1.137361789E0,-1.778139919E-2,-7.257051766E-4,-9.830474854E-3,2.033083965E-2
1.142110591E0,6.090492010E-3,-7.859833539E-3,-7.373809814E-3,1.237918201E-2
1.146859393E0,-2.246791124E-2,-1.968242973E-2,1.168060303E-2,3.207244242E-2
1.151608143E0,-5.708090961E-3,-5.425810814E-4,-1.215744019E-2,1.344172788E-2
1.156356945E0,-1.045525819E-2,-5.332272500E-3,1.168632507E-2,1.656248012E-2
1.161105747E0,-1.044302434E-2,-1.714774221E-2,9.216308594E-3,2.209167636E-2
1.165854549E0,-2.230186760E-2,1.146794856E-2,-1.222705841E-2,2.789960753E-2
1.170603299E0,-1.272299886E-2,-5.442723632E-4,4.495620728E-3,1.350487090E-2
1.175352101E0,-1.266330481E-2,8.967690170E-3,4.459381104E-3,1.614511801E-2
1.180100903E0,1.612350345E-3,2.552245557E-2,2.049446106E-3,2.565532384E-2
1.184849706E0,-7.931143045E-4,1.107608899E-2,-9.839057922E-3,1.483630138E-2
1.189598456E0,-1.985459030E-2,-3.176860511E-2,4.488945007E-3,3.773061958E-2
1.194347258E0,-1.261313260E-2,-1.012532972E-2,-7.418632507E-3,1.779464875E-2
1.199096060E0,-5.432151258E-3,1.841370016E-3,-2.336502075E-4,5.740514197E-3
1.203844862E0,-7.778778672E-3,1.808296889E-3,4.516601562E-3,9.174912803E-3
1.208593612E0,-2.194818854E-2,8.926879615E-3,1.634883881E-2,2.878709243E-2
1.213342414E0,-3.368246555E-2,6.489548832E-3,-9.902000427E-3,3.570255372E-2
1.218091216E0,-7.304027677E-3,6.418112665E-3,-3.223419189E-4,9.728560777E-3
1.222840018E0,-1.678621024E-2,-2.445952594E-2,1.392459869E-2,3.277101940E-2
1.227588820E0,1.419959962E-2,-2.427268028E-2,9.060859680E-3,2.954472568E-2
1.232337570E0,1.643742621E-2,-2.748623490E-3,1.135921478E-2,2.016868047E-2
1.237086372E0,-2.710625529E-3,9.127669036E-3,4.141807556E-3,1.038346776E-2
1.241835174E0,4.387959838E-3,4.314512014E-3,-6.399154663E-4,6.186978040E-3
1.246583976E0,-2.817615867E-3,1.915995032E-3,-1.250457764E-2,1.296049606E-2
1.251332726E0,6.656005979E-3,-7.613919675E-3,-1.002597809E-2,1.424059075E-2
1.256081528E0,-2.913817763E-3,1.928392798E-3,-1.943874359E-2,1.975028570E-2
1.260830331E0,4.129096866E-3,2.552294731E-2,-2.822875977E-4,2.585633320E-2
1.265579133E0,-1.251380146E-2,2.286200598E-2,-1.452445984E-2,2.983666332E-2
1.270327935E0,-7.650554180E-3,1.321465895E-2,-1.592636108E-4,1.527034889E-2
1.275076685E0,-1.469869912E-2,2.015287802E-2,-7.280349731E-3,2.598449038E-2
1.279825487E0,-2.414792776E-2,1.756525040E-2,-7.218360901E-3,3.072076123E-2
1.284574289E0,-1.689939946E-2,5.559716374E-3,4.713058472E-3,1.840415900E-2
1.289323091E0,4.533752799E-3,-8.720293641E-3,9.423255920E-3,1.361602687E-2
1.294071841E0,2.046689391E-3,-1.810407639E-2,6.971359253E-3,1.950759773E-2
1.298820643E0,4.357084632E-3,-3.667809069E-3,2.165794373E-3,6.093248323E-3
1.303569445E0,1.851896942E-2,-1.074773259E-2,-2.260208130E-4,2.141301169E-2
1.308318247E0,6.476134062E-3,-3.496330231E-3,-2.598762512E-3,7.805011471E-3
1.313067049E0,-3.092423081E-3,1.078927889E-2,-2.576828003E-3,1.151571371E-2
1.317815799E0,-1.495538652E-2,-1.216914505E-3,-1.802444458E-4,1.500589734E-2
1.322564601E0,-5.323506892E-3,5.955439061E-3,4.570007324E-3,9.202822772E-3
1.327313403E0,1.796871424E-3,5.917020142E-3,-2.155303955E-4,6.187594656E-3
1.332062206E0,-7.732450962E-3,-1.076905616E-2,9.283065796E-3,1.618451973E-2
1.336810956E0,-1.718261093E-2,5.922742188E-3,-2.666473389E-3,1.836929704E-2
1.341559758E0,-2.180571854E-2,3.482252359E-3,-1.451396942E-2,2.642481317E-2
1.346308560E0,-2.648815513E-3,-1.083719544E-2,-1.201915741E-2,1.639881622E-2
1.351057362E0,-7.393032312E-3,1.300617307E-2,-7.170677185E-3,1.659024039E-2
1.355806112E0,-2.269744873E-4,3.441337496E-3,1.144409180E-5,3.448833447E-3
1.360554914E0,-2.715289593E-4,1.021161675E-3,-1.185894012E-2,1.190592122E-2
1.365303716E0,4.432454705E-3,1.761470363E-2,1.115798950E-4,1.816416496E-2
1.370052518E0,1.390278339E-2,8.029639721E-4,2.485275269E-3,1.414597930E-2
1.374801268E0,-1.472060382E-2,-1.624163240E-3,2.464294434E-3,1.501355488E-2
1.379550070E0,-2.170971036E-2,-6.404839456E-3,-7.053375244E-3,2.370830223E-2
1.384298872E0,-2.553492785E-3,1.265291870E-2,1.277923584E-4,1.290864082E-2
1.389047674E0,-1.450651884E-2,6.308257580E-4,4.877090454E-3,1.531740975E-2
1.393796476E0,-1.440338790E-2,-1.132002287E-2,7.210731506E-3,1.968743634E-2
1.398545226E0,-1.664672047E-2,-1.121485792E-2,2.861022949E-5,2.007204920E-2
1.403294028E0,-2.133142948E-2,-1.108125784E-2,-2.345085144E-3,2.415209273E-2
1.408042831E0,-2.357414365E-2,-2.759711444E-2,-2.325057983E-3,3.636958714E-2
1.412791633E0,-1.155328751E-2,-2.741342410E-2,2.444267273E-3,2.984876406E-2
1.417540383E0,-2.812261134E-2,-1.029208302E-3,2.424240112E-3,2.824566301E-2
1.422289185E0,7.677510381E-3,1.326402277E-2,-4.718780518E-3,1.603575241E-2
1.427037987E0,7.595658302E-3,1.794155687E-2,2.855873108E-2,3.457158673E-2
1.431786789E0,7.485911250E-3,3.529798239E-3,-1.688003540E-4,8.278093767E-3
1.436535539E0,7.377207279E-3,-6.013929844E-3,2.357387543E-2,2.542278785E-2
1.441284341E0,-2.198740840E-3,-5.981169641E-3,2.100372314E-2,2.194915118E-2
1.446033143E0,1.472979784E-4,1.202326268E-3,1.845550537E-2,1.849521461E-2
1.450781945E0,-7.051497698E-3,-8.264143020E-3,1.592826843E-2,1.928028565E-2
1.455530747E0,-7.039055228E-3,8.434601128E-3,-3.196716309E-3,1.144158162E-2
1.460279497E0,-2.249985933E-3,1.790067181E-2,1.579284668E-3,1.811051153E-2
1.465028299E0,-1.649387926E-2,-1.310158521E-2,6.313323975E-3,2.198994424E-2
1.469777101E0,-1.165446639E-2,-8.290398866E-3,8.636474609E-3,1.670766273E-2
1.474525903E0,9.792000055E-3,-5.835581571E-3,3.815650940E-3,1.202066843E-2
1.479274653E0,1.441211998E-2,-2.236584388E-2,8.532524109E-3,2.794179920E-2
1.484023456E0,4.720419645E-3,-7.951926440E-3,-1.053142548E-2,1.401522095E-2
1.488772258E0,6.980106235E-3,-2.449311316E-2,-1.044273376E-2,2.752608152E-2
1.493521060E0,-9.771980345E-3,-1.952987164E-2,-7.980346680E-3,2.325066492E-2
1.498269862E0,6.853476167E-3,9.133860469E-3,-7.905960083E-4,1.144650972E-2
1.503018612E0,1.624652743E-2,2.093968913E-2,-7.905006409E-3,2.765699479E-2
1.507767414E0,2.793541551E-2,2.312199026E-2,-1.970863342E-2,4.127280103E-2
1.512516216E0,6.288841367E-3,2.288338915E-2,-1.004695892E-2,2.577092176E-2
1.517264966E0,-8.054897189E-3,2.267533913E-2,-1.708412170E-2,2.951134677E-2
1.522013768E0,-1.521378756E-2,5.878545344E-3,-1.456642151E-2,2.186772194E-2
1.526762570E0,-1.747929305E-2,1.533810794E-2,-1.919364929E-2,3.015260211E-2
1.531511372E0,-3.135308623E-3,9.484216571E-4,4.709243774E-3,5.736431010E-3
1.536260174E0,-5.529664457E-3,3.296934068E-3,-7.724761963E-5,6.438395021E-3
1.541008924E0,-1.024975628E-2,3.309227526E-3,-1.194763184E-2,1.608584462E-2
1.545757726E0,8.810833097E-3,5.638819188E-3,2.288818359E-5,1.046076410E-2
1.550506528E0,-7.771998644E-4,-1.107275300E-2,2.288818359E-5,1.110001903E-2
1.555255331E0,3.930866718E-3,-1.099708490E-2,2.398490906E-3,1.192226271E-2
1.560004133E0,-8.966177702E-4,-1.092279889E-2,9.501457214E-3,1.450479742E-2
1.564752883E0,2.277754247E-2,-2.981450409E-2,1.417064667E-2,4.010646235E-2
1.569501685E0,-1.200422645E-3,-1.296361908E-2,6.931304932E-3,1.474921768E-2
1.574250487E0,2.725301683E-2,-1.052773558E-2,1.637077332E-2,3.348973517E-2
1.578999289E0,-6.229810417E-3,-3.307107836E-3,1.860904694E-2,1.990085747E-2
1.583748091E0,1.517145336E-2,-3.325089812E-3,8.957862854E-3,1.792965494E-2
1.588496841E0,7.819980383E-4,-1.043642499E-2,1.600456238E-2,1.912266991E-2
1.593245643E0,-8.738875389E-3,-7.964473218E-3,1.824569702E-2,2.174180849E-2
1.597994445E0,-3.964200616E-3,1.345187053E-2,1.571941376E-2,2.106579398E-2
1.602743247E0,-1.819381863E-2,-5.671139807E-3,8.466720581E-3,2.085335034E-2
1.607491997E0,-1.571449637E-2,-1.038953476E-2,1.077079773E-2,2.170018231E-2
1.612240799E0,-6.104715168E-3,6.298348308E-3,-5.938529968E-3,1.059258594E-2
1.616989601E0,-2.031649649E-2,-1.044803672E-2,-1.139640808E-3,2.287400888E-2
1.621738403E0,-3.681278974E-2,-3.255508840E-3,-1.299953461E-2,3.917611168E-2
1.626487153E0,-1.758808643E-2,8.654322475E-3,-1.051616669E-2,2.224472619E-2
1.631235956E0,-2.463908494E-2,-8.742436767E-4,-2.467155457E-2,3.487885338E-2
1.635984758E0,-2.213461697E-2,-2.228021063E-2,1.649856567E-3,3.144950049E-2
1.640733560E0,-1.252858341E-2,-3.147277981E-3,-1.498222351E-2,1.978225928E-2
1.645482310E0,-1.959319413E-2,-7.886324078E-3,4.137039185E-3,2.152213876E-2
1.650231112E0,-2.828881145E-3,1.659005880E-3,-1.014328003E-2,1.066025322E-2
1.654979914E0,-1.947067678E-2,1.627452672E-3,-1.480579376E-2,2.451463615E-2
1.659728716E0,9.134814143E-3,1.596909016E-3,-1.705646515E-2,1.941437486E-2
1.664477518E0,-9.980939329E-3,8.688688278E-3,2.080917358E-3,1.339562133E-2
1.669226268E0,-5.224607885E-3,6.225153804E-3,-7.432937622E-3,1.101352029E-2
1.673975070E0,4.269316792E-3,6.126616150E-3,-2.479553223E-4,7.471544229E-3
1.678723872E0,-1.477731764E-2,3.684055060E-3,2.128601074E-3,1.537765655E-2
1.683472674E0,-4.557222128E-4,8.355736732E-3,1.398181915E-2,1.629470116E-2
1.688221424E0,4.221349955E-3,1.064289734E-2,-3.786087036E-4,1.145575854E-2
1.692970226E0,1.603892446E-2,1.048009843E-2,9.122848511E-3,2.122041295E-2
1.697719028E0,1.823297143E-2,1.752641797E-2,1.925468445E-3,2.536383257E-2
1.702467831E0,1.094070077E-2,1.742013171E-2,2.090167999E-2,2.932644112E-2
1.707216581E0,-3.470256925E-3,-1.832642406E-2,1.597976685E-2,2.456121842E-2
1.711965383E0,1.075711846E-2,-1.514896750E-3,6.350517273E-3,1.258330558E-2
1.716714185E0,8.275568485E-3,3.256849945E-3,-1.744365692E-2,1.957992013E-2
1.721462987E0,8.188590407E-3,1.036374271E-2,1.119136810E-2,1.731204482E-2
1.726211737E0,-6.170995533E-3,1.028858498E-2,-7.715225220E-4,1.202212185E-2
1.730960539E0,3.330707550E-3,7.810965180E-3,-3.138542175E-3,9.052913168E-3
1.735709341E0,8.823573589E-4,-1.796636730E-3,4.012107849E-3,4.483689044E-3
1.740458143E0,-2.053865790E-2,2.920329571E-3,1.110172272E-2,2.352898299E-2
1.745206945E0,1.519815624E-2,-4.271991551E-3,-1.273155212E-2,2.028118055E-2
1.749955695E0,-1.106227189E-2,-1.850277185E-3,-7.877349854E-3,1.370583911E-2
1.754704497E0,-2.045600116E-2,5.270231515E-3,1.118087769E-2,2.390053032E-2
1.759453299E0,-6.058521569E-3,-1.381279156E-2,-5.531311035E-3,1.606531344E-2
1.764202101E0,-6.025798619E-3,-3.030588850E-2,-3.111839294E-3,3.105544511E-2
1.768950903E0,-3.647759557E-3,-2.766836062E-2,1.116085052E-2,3.005676153E-2
1.773699653E0,-1.790893823E-2,-1.338768750E-3,1.581668854E-2,2.393094245E-2
1.778448456E0,-1.308652759E-2,-6.064325571E-3,1.093864441E-2,1.810213221E-2
1.783197258E0,-1.067844778E-2,-1.080763526E-2,1.352310181E-3,1.525329374E-2
1.787946008E0,-3.456458449E-3,-1.076311804E-2,3.714561462E-3,1.189915047E-2
1.792694810E0,-3.445655107E-3,-1.193813980E-3,-1.293563843E-2,1.343980924E-2
1.797443612E0,6.004646420E-3,-5.949515849E-3,3.792762756E-3,9.264856545E-3
1.802192414E0,-5.962468684E-3,-2.250814252E-2,1.088428497E-2,2.570282420E-2
1.806941216E0,-1.545569301E-2,-9.709745646E-4,3.672599792E-3,1.591569122E-2
1.811689966E0,1.245707273E-3,8.487790823E-3,1.269340515E-3,8.672116524E-3
1.816438768E0,-5.876563489E-3,1.560821384E-2,-1.115798950E-3,1.671512324E-2
1.821187570E0,8.399307728E-3,-3.503460437E-3,-8.228302002E-3,1.226896732E-2
1.825936372E0,2.736173570E-2,-1.117467880E-3,-3.664970398E-2,4.575056412E-2
1.830685174E0,-1.087064296E-2,-2.489517629E-2,-1.497650146E-2,3.101993354E-2
1.835433924E0,1.051215827E-2,-3.365926445E-3,2.313423157E-2,2.563254967E-2
1.840182726E0,1.040655375E-2,-1.042017154E-2,4.905891418E-2,5.122161064E-2
1.844931528E0,1.748129725E-2,2.534797415E-2,8.288383484E-3,3.188750301E-2
1.849680278E0,-1.108635217E-2,-7.975865155E-3,-4.638767242E-2,4.835636238E-2
1.854429081E0,3.204479814E-3,-1.979749650E-2,-4.125308990E-2,4.586967392E-2
1.859177883E0,3.102645278E-3,1.632146537E-3,-1.004409790E-2,1.063833693E-2
1.863926685E0,7.835656404E-3,3.947149962E-3,-5.211830139E-3,1.020493398E-2
1.868675487E0,-2.068020403E-2,1.637004316E-3,-2.891063690E-2,3.558336055E-2
1.873424237E0,-1.346030831E-2,2.062737197E-2,-1.917171478E-2,3.121254590E-2
1.878173039E0,7.645040751E-4,1.320181414E-2,2.134990692E-2,2.511355986E-2
1.882921841E0,-8.699104190E-3,2.972166985E-2,2.354526520E-2,3.890284804E-2
1.887670643E0,-1.090452820E-2,8.203927428E-3,-3.938674927E-4,1.365167726E-2
1.892419393E0,-6.083242595E-3,1.057803631E-2,-1.463508606E-2,1.905482712E-2
1.897168195E0,5.734741688E-3,-3.829862922E-3,2.107620239E-3,7.210906691E-3
1.901916997E0,1.044580340E-2,-1.334007457E-2,2.108192444E-2,2.704662523E-2
1.906665799E0,-8.652314544E-3,1.055747271E-3,-5.208969116E-3,1.015433447E-2
1.911414601E0,-1.574935019E-2,1.058406010E-2,-9.914398193E-3,2.140933561E-2
1.916163351E0,-1.505464315E-3,1.285302639E-2,2.340793610E-2,2.674692847E-2
1.920912153E0,-1.510798931E-3,5.634684116E-3,3.033638000E-2,3.089220177E-2
1.925660956E0,3.232195973E-3,3.253348172E-3,-3.154754639E-3,5.566313140E-3
1.930409758E0,7.276684046E-4,-2.522414178E-2,3.995895386E-3,2.554905105E-2
1.935158508E0,-1.356962323E-2,-3.664344549E-3,6.337165833E-3,1.541822838E-2
1.939907310E0,7.705837488E-4,-2.739301696E-2,1.578044891E-2,3.162267771E-2
1.944656112E0,-1.627862453E-3,3.738950938E-3,-1.996231079E-2,2.037458079E-2
1.949404914E0,7.807284594E-3,8.438736200E-3,-1.029872894E-2,1.543469401E-2
1.954153664E0,-1.129753143E-2,-1.061318628E-2,1.659393311E-3,1.558934013E-2
1.958902466E0,-4.070267081E-3,3.702785820E-3,4.019737244E-3,6.814395384E-3
1.963651268E0,-2.547892928E-2,2.259138972E-2,-2.212810516E-2,4.061034061E-2
1.968400070E0,-1.600131392E-3,-3.729861230E-3,8.920669556E-3,9.800542362E-3
1.973148820E0,-6.381668150E-3,-2.748579532E-2,6.472587585E-3,2.894976723E-2
1.977897622E0,3.178790212E-3,-1.187037677E-3,6.418228149E-3,7.259987482E-3
1.982646424E0,-2.300965786E-2,-8.288759738E-3,-5.504608154E-3,2.506887719E-2
1.987395226E0,-8.647903800E-3,1.078432798E-2,-1.732826233E-2,2.216656594E-2
1.992143976E0,1.986747980E-2,-5.941931158E-3,-7.685661316E-3,2.211544007E-2
1.996892778E0,-1.115130633E-2,-3.564186394E-3,-9.996414185E-3,1.539426367E-2
2.001641581E0,7.944852114E-4,1.066448912E-2,-2.415657043E-2,2.641784303E-2
2.006390383E0,7.414221764E-4,1.052970439E-2,-9.710311890E-3,1.434275212E-2
2.011139185E0,5.351394415E-3,-1.334543899E-2,1.648807526E-2,2.187680940E-2
2.015887935E0,5.289033055E-3,3.395635635E-3,4.481315613E-3,7.719222865E-3
2.020636737E0,2.853170037E-3,1.055736095E-2,2.070426941E-3,1.113036914E-2
2.025385539E0,-4.396632314E-3,1.757447049E-2,-5.067825317E-3,1.881157203E-2
2.030134341E0,7.435873151E-3,-1.585634798E-2,6.846427917E-3,1.880397713E-2
2.034883091E0,4.953429103E-3,5.653947592E-3,6.790161133E-3,1.012965308E-2
2.039631893E0,-1.647293568E-2,-6.224520504E-3,-1.700782776E-2,2.448200299E-2
2.044380695E0,1.799315214E-4,-2.521212772E-2,4.503250122E-3,2.561177504E-2
2.049129497E0,7.486343384E-5,-1.789693907E-2,9.216308594E-3,2.013073214E-2
2.053878247E0,-2.346351743E-3,1.075318456E-2,1.388835907E-2,1.772069023E-2
2.058627049E0,-4.718959332E-3,5.955424160E-3,1.377296448E-2,1.572991432E-2
2.063375851E0,-9.502932429E-3,1.060817391E-2,1.128578186E-2,1.817162487E-2
2.068124653E0,-7.067479193E-3,-1.083635353E-2,1.831436157E-2,2.242301629E-2
2.072873456E0,-6.997786462E-3,-1.238629222E-3,1.543045044E-3,7.272152758E-3
2.077622206E0,-3.307285905E-2,2.252400294E-2,-2.696037292E-2,4.824941888E-2
2.082371008E0,-3.759198636E-2,5.728472024E-3,-2.435874939E-2,4.515884744E-2
2.087119810E0,-1.118121296E-2,3.318544477E-3,-1.465988159E-2,1.873350979E-2
2.091868612E0,-1.350863278E-2,-1.094278879E-2,-2.165889740E-2,2.777292968E-2
2.096617362E0,-1.103978604E-2,1.762082428E-2,-1.673126221E-2,2.668905130E-2
2.101366164E0,-2.280800045E-2,-2.050080150E-2,-1.659202576E-2,3.486808090E-2
2.106114966E0,1.060226560E-2,-1.554189995E-2,-1.882743835E-2,2.661636949E-2
2.110863768E0,-1.374706626E-3,-2.017803490E-2,-6.799697876E-3,2.133726323E-2
2.115612518E0,9.644478559E-4,-8.127938956E-3,-1.386451721E-2,1.610026052E-2
2.120361320E0,1.752901077E-2,-1.045170613E-2,-2.799320221E-2,3.464280228E-2
2.125110122E0,-1.656696200E-3,-8.853673935E-4,-4.437732697E-2,4.441706503E-2
2.129858924E0,-1.689329743E-3,-5.643635988E-3,-3.688430786E-2,3.735179552E-2
2.134607674E0,2.997919917E-3,1.094834134E-2,-2.707958221E-2,2.936251820E-2
2.139356476E0,5.272090435E-3,-1.030985266E-3,-2.685260773E-2,2.738467473E-2
2.144105278E0,1.470687985E-2,1.801055297E-2,-5.511856079E-2,5.982247134E-2
2.148854081E0,1.222071052E-2,-8.243579417E-3,-5.465888977E-2,5.661180617E-2
2.153602883E0,1.212954521E-2,-3.386832774E-3,-4.470539093E-2,4.644532788E-2
2.158351633E0,7.262289524E-3,1.089748368E-2,-9.419155121E-2,9.509755159E-2
2.163100435E0,1.430633664E-2,-8.175309747E-3,-1.195220947E-1,1.206525511E-1
2.167849237E0,-7.226787508E-3,-5.692910403E-3,-1.327705383E-1,1.330888858E-1
2.172598039E0,-9.615659714E-3,1.402541995E-3,-1.530303955E-1,1.533386122E-1
2.177346789E0,-2.142402530E-2,1.373134553E-3,-1.683740616E-1,1.697371467E-1
2.182095591E0,-2.360896766E-2,3.747034818E-3,-1.954612732E-1,1.969175791E-1
2.186844393E0,-2.062633634E-3,8.474923670E-3,-2.009544373E-1,2.011436418E-1
2.191593195E0,-1.630808413E-2,1.316340640E-2,-2.040271759E-1,2.051007493E-1
2.196341945E0,-9.039193392E-3,5.942836404E-3,-2.118244171E-1,2.121004668E-1
2.201090747E0,-1.370151341E-2,1.774672791E-2,-2.243032455E-1,2.254209923E-1
2.205839549E0,-2.313041687E-2,-1.087937690E-2,-2.556724548E-1,2.569470397E-1
2.210588351E0,-2.767542005E-2,-6.057359278E-3,-2.677850723E-1,2.692795303E-1
2.215337153E0,-2.743425965E-2,1.127120107E-3,-2.655534744E-1,2.669692057E-1
2.220085903E0,-1.297871768E-2,1.059738174E-2,-2.847080231E-1,2.852006487E-1
2.224834706E0,-5.737461150E-3,-8.472938091E-3,-3.108263016E-1,3.109946927E-1
2.229583508E0,1.088309288E-2,-1.268710941E-3,-2.987375259E-1,2.989383895E-1
2.234332310E0,-1.064958423E-2,3.472477198E-3,-3.081188202E-1,3.083223623E-1
2.239081060E0,-1.060699672E-2,1.051985472E-2,-3.079242706E-1,3.082864450E-1
2.243829862E0,-3.413990140E-3,8.012294769E-3,-2.958612442E-1,2.959894052E-1
2.248578664E0,-8.123070002E-3,5.582161248E-3,-3.100147247E-1,3.101713629E-1
2.253327466E0,-1.047565788E-2,7.892135531E-3,-3.216762543E-1,3.219435320E-1
2.258076216E0,-1.280863583E-2,-8.781883866E-3,-3.213682175E-1,3.217432421E-1
2.262825018E0,-7.999822497E-3,-3.977678716E-3,-3.281850815E-1,3.283066658E-1
2.267573820E0,-1.275621355E-2,7.584579289E-4,-3.159532547E-1,3.162115675E-1
2.272322622E0,-8.253604174E-4,3.109019250E-3,-3.109455109E-1,3.109621487E-1
2.277071372E0,1.509472728E-3,1.733914390E-2,-3.012304306E-1,3.017328234E-1
2.281820174E0,-1.751395315E-2,2.189692855E-2,-2.987203598E-1,3.000334438E-1
2.286568976E0,-7.889062166E-3,1.225700602E-2,-2.938575745E-1,2.942188736E-1
2.291317778E0,-5.495466292E-3,2.157783508E-2,-2.724142075E-1,2.733227095E-1
2.296066528E0,-7.841452956E-3,-2.332706004E-3,-2.677707672E-1,2.678957142E-1
2.300815331E0,-5.419619381E-3,1.428815722E-2,-2.679128647E-1,2.683483310E-1
2.305564133E0,-1.245781779E-2,-7.215850055E-3,-2.656803131E-1,2.660700932E-1
2.310312935E0,-1.946584880E-2,9.474441409E-3,-2.515964508E-1,2.525261538E-1
2.315061685E0,-2.702593803E-3,2.602639794E-2,-2.684926987E-1,2.697647246E-1
2.319810487E0,-2.754747868E-3,1.149145886E-2,-2.496347427E-1,2.499142794E-1
2.324559289E0,1.970440149E-3,-7.614701986E-3,-2.523021698E-1,2.524247436E-1
2.329308091E0,9.030252695E-3,-5.222272128E-3,-2.312049866E-1,2.314401940E-1
2.334056841E0,4.160508513E-3,4.301004112E-3,-2.150335312E-1,2.151167776E-1
2.338805643E0,-2.197921276E-2,1.873802394E-3,-2.227373123E-1,2.238269582E-1
2.343554445E0,-5.251385272E-3,4.186823964E-3,-2.090091705E-1,2.091170483E-1
2.348303247E0,-5.225352943E-3,-6.135627627E-4,-2.143898010E-1,2.144543484E-1
2.353052049E0,-5.199782550E-3,4.179999232E-3,-2.078552246E-1,2.079622671E-1
2.357800799E0,-4.825890064E-4,1.362493262E-2,-2.203655243E-1,2.207868564E-1
2.362549601E0,1.821026206E-3,3.245982900E-2,-1.971626282E-1,1.998250700E-1
2.367298403E0,1.759856939E-3,-8.188366890E-3,-1.978921890E-1,1.980693437E-1
2.372047206E0,-1.494824886E-2,1.091280207E-2,-1.677513123E-1,1.687691979E-1
2.376795956E0,6.497666240E-3,1.558125392E-2,-1.782245636E-1,1.790223176E-1
2.381544758E0,1.677528024E-3,1.311663166E-2,-1.909847260E-1,1.914419642E-1
2.386293560E0,-3.102451563E-3,3.521826118E-3,-1.917667389E-1,1.918241659E-1
2.391042362E0,-5.468450487E-3,-3.562346101E-3,-1.759233475E-1,1.760443650E-1
2.395791112E0,-1.021712273E-2,-3.521572798E-3,-1.958236694E-1,1.961216474E-1
2.400539914E0,-1.255208254E-2,1.073548570E-2,-1.941909790E-1,1.948921285E-1
2.405288716E0,-1.011926681E-2,1.297475398E-2,-1.973190308E-1,1.980038982E-1
2.410037518E0,-1.480092108E-2,2.946850657E-2,-1.885538101E-1,1.914157764E-1
2.414786268E0,-7.572576404E-3,-1.658897847E-3,-1.751108170E-1,1.752823267E-1
2.419535070E0,9.063780308E-3,1.498466730E-2,-1.926441193E-1,1.934384891E-1
2.424283872E0,6.568312645E-3,-1.805003732E-3,-1.839160919E-1,1.840421953E-1
2.429032674E0,-5.374975502E-3,-1.605162770E-2,-1.918792725E-1,1.926245060E-1
2.433781424E0,4.092290998E-3,6.840154529E-4,-2.045240402E-1,2.045661207E-1
2.438530226E0,-5.484305322E-3,3.007099032E-3,-2.028188705E-1,2.029152890E-1
2.443279028E0,4.012107849E-3,-1.600007713E-2,-1.987543106E-1,1.994376481E-1
2.448027831E0,-3.105282784E-3,-8.704271168E-3,-1.970987320E-1,1.973152738E-1
2.452776633E0,6.427735090E-3,5.680628121E-3,-2.191982269E-1,2.193660138E-1
2.457525383E0,-3.083810210E-3,-1.569440588E-2,-2.221212387E-1,2.226963604E-1
2.462274185E0,-1.019821316E-2,-8.401919156E-3,-2.178955078E-1,2.182957813E-1
2.467022987E0,-2.200162411E-2,-8.320841938E-3,-2.184543610E-1,2.197171265E-1
2.471771789E0,-2.421019971E-2,-1.117628068E-3,-2.118854523E-1,2.132670339E-1
2.476520539E0,-2.715125680E-3,-3.499586135E-3,-2.291126251E-1,2.291554363E-1
2.481269341E0,-1.466529071E-2,2.028173953E-2,-2.366981506E-1,2.380177183E-1
2.486018143E0,-2.883366495E-2,3.532528877E-3,-2.276029587E-1,2.294492663E-1
2.490766945E0,-9.702451527E-3,1.301110536E-2,-2.280788422E-1,2.286556028E-1
2.495515695E0,4.605665803E-3,9.866692126E-4,-2.451705933E-1,2.452158345E-1
2.500264497E0,-7.349491119E-3,1.280468330E-2,-2.407531738E-1,2.412054428E-1
2.505013299E0,-1.208244264E-2,-6.311938167E-3,-2.601137161E-1,2.604706726E-1
2.509762101E0,-1.437351108E-2,5.622442812E-3,-2.698163986E-1,2.702574673E-1
2.514510851E0,-1.901964843E-2,-1.106053963E-2,-2.604446411E-1,2.613723276E-1
2.519259653E0,-2.259477973E-3,5.604706705E-3,-2.653970718E-1,2.654658617E-1
2.524008456E0,1.160353422E-4,-1.102225110E-2,-2.584381104E-1,2.586730762E-1
2.528757258E0,-2.332910895E-3,5.727779120E-3,-2.871475220E-1,2.872141175E-1
2.533506060E0,-1.422978938E-2,-3.833994269E-3,-2.942495346E-1,2.946183549E-1
2.538254810E0,-1.412893832E-2,5.705945194E-3,-2.775526047E-1,2.779705615E-1
2.543003612E0,2.590253949E-3,5.669414997E-3,-3.061037064E-1,3.061671614E-1
2.547752414E0,9.673655033E-3,1.755972207E-2,-3.106746674E-1,3.113208512E-1
2.552501164E0,2.141809464E-2,1.033004001E-2,-3.033370972E-1,3.042677095E-1
2.557249966E0,-3.100895882E-2,-1.616511494E-3,-3.103055954E-1,3.118553049E-1
2.561998768E0,9.581446648E-5,3.128204495E-3,-3.077201843E-1,3.077360991E-1
2.566747570E0,-7.073178887E-3,-1.356163062E-2,-3.099040985E-1,3.102813207E-1
2.571496320E0,2.464801073E-3,1.262192056E-2,-3.168172836E-1,3.170781912E-1
2.576245122E0,5.255639553E-5,-1.689109951E-3,-3.260488510E-1,3.260532305E-1
2.580993924E0,-2.339735627E-3,3.056600690E-3,-3.043375015E-1,3.043618439E-1
2.585742726E0,-1.661082357E-2,5.388621241E-3,-3.279161453E-1,3.283808080E-1
2.590491476E0,-2.129426599E-2,6.064064801E-4,-3.299312592E-1,3.306182833E-1
2.595240278E0,-1.878821850E-2,-6.510104984E-3,-3.248071671E-1,3.254152338E-1
2.599989081E0,2.880245447E-4,-4.126720130E-3,-2.983579636E-1,2.983866404E-1
2.604737883E0,-2.134069800E-3,-2.544868179E-2,-3.101158142E-1,3.111655635E-1
2.609486685E0,2.586618066E-3,3.319747746E-3,-2.790403366E-1,2.790720709E-1
2.614235435E0,-2.200648189E-3,2.467002347E-2,-2.957077026E-1,2.967431521E-1
2.618984237E0,1.916739345E-2,2.682195976E-2,-2.861213684E-1,2.880143121E-1
2.623733039E0,1.189540327E-2,2.191779390E-2,-2.766160965E-1,2.777379253E-1
2.628481841E0,-4.812188447E-3,1.942751184E-2,-2.885541916E-1,2.892474838E-1
2.633230591E0,1.182946563E-2,-2.090755850E-3,-2.790269852E-1,2.792854561E-1
2.637979393E0,-1.015961170E-4,-1.158653572E-2,-2.743282318E-1,2.745728262E-1
2.642728195E0,-1.436327398E-2,-2.575147711E-2,-2.649192810E-1,2.665551869E-1
2.647476997E0,-2.615986764E-2,-1.812003553E-3,-2.627105713E-1,2.640160342E-1
2.652225747E0,-2.217873931E-3,-6.534244865E-3,-2.723932266E-1,2.724806144E-1
2.656974549E0,2.531424165E-3,-1.361920126E-2,-2.273874283E-1,2.278089842E-1
2.661723351E0,1.670970023E-2,3.068823367E-3,-2.278661728E-1,2.284986312E-1
2.666472153E0,-2.523943782E-3,7.802493870E-3,-2.283401489E-1,2.284873581E-1
2.671220903E0,-1.682107896E-2,-4.066515714E-3,-2.454290390E-1,2.460384084E-1
2.675969706E0,-7.229939103E-3,1.265389100E-2,-2.125205994E-1,2.130197130E-1
2.680718508E0,2.309173346E-3,1.256012917E-2,-2.226190567E-1,2.229850523E-1
2.685467310E0,4.646480083E-3,6.239190698E-4,-2.065191269E-1,2.065723332E-1
2.690216060E0,-1.912344992E-2,1.012662426E-2,-2.237920761E-1,2.248358250E-1
2.694964862E0,-1.657965034E-2,1.482972130E-2,-2.171773911E-1,2.183135924E-1
2.699713664E0,-2.123510838E-2,5.192611367E-3,-1.963748932E-1,1.975879341E-1
2.704462466E0,-1.635544747E-2,2.172431722E-2,-1.686201096E-1,1.707986767E-1
2.709211216E0,-2.338702977E-2,2.561401576E-3,-1.648397446E-1,1.665102259E-1
2.713960018E0,-2.089102566E-2,1.679549739E-2,-1.587171555E-1,1.609647760E-1
2.718708820E0,-3.263282776E-2,1.426409557E-2,-1.740131378E-1,1.776202072E-1
2.723457622E0,-1.575929672E-2,-9.585328400E-3,-1.654405594E-1,1.664656500E-1
2.728206372E0,-2.989016473E-2,-1.427103765E-2,-1.759319305E-1,1.790227043E-1
2.732955174E0,-2.968636155E-2,-7.046591491E-3,-1.530981064E-1,1.561088232E-1
2.737703976E0,-2.942870557E-2,-1.409902237E-2,-1.375780106E-1,1.413949792E-1
2.742452778E0,-2.685444802E-2,-6.876371801E-3,-1.530485153E-1,1.555387216E-1
2.747201581E0,-3.614455462E-2,-1.624944434E-2,-1.375284195E-1,1.431242098E-1
2.751950331E0,-4.301089793E-2,-1.610348001E-2,-1.363811493E-1,1.439064880E-1
2.756699133E0,-4.269772023E-2,-2.788475528E-2,-1.423664093E-1,1.512245000E-1
2.761447935E0,-3.283490986E-2,-1.102242991E-2,-1.245603561E-1,1.292861462E-1
2.766196737E0,-3.729917854E-2,-1.566795632E-2,-9.740734100E-2,1.054746588E-1
2.770945487E0,1.036345959E-3,-3.711726516E-3,-1.179628372E-1,1.180257679E-1
2.775694289E0,-3.654435277E-3,-3.698054701E-3,-1.146068573E-1,1.147247238E-1
2.780443091E0,3.536909819E-3,-8.488770574E-3,-1.326446533E-1,1.329630513E-1
2.785191893E0,3.490149975E-3,-3.455091268E-2,-1.172943115E-1,1.223270298E-1
2.789940643E0,3.415852785E-3,-1.997938752E-2,-1.234378815E-1,1.250909851E-1
2.794689445E0,-1.406125724E-3,-1.033319160E-2,-8.917045593E-2,8.977818359E-2
2.799438247E0,1.995539665E-2,1.350566745E-2,-6.943416595E-2,7.349642379E-2
2.804187049E0,1.739753783E-2,2.052647620E-2,-7.835292816E-2,8.284438363E-2
2.808935799E0,2.432990074E-2,2.511425689E-2,-8.244800568E-2,8.955637113E-2
2.813684601E0,2.885791659E-2,4.156306759E-2,-1.244955063E-1,1.343852634E-1
2.818433403E0,3.100170195E-2,1.745907217E-2,-1.305799484E-1,1.353404879E-1
2.823182206E0,6.984353065E-3,1.260434091E-2,-1.413612366E-1,1.420938063E-1
2.827930956E0,1.405885816E-2,1.720329374E-2,-1.330623627E-1,1.349044001E-1
2.832679758E0,4.372149706E-3,-6.726205349E-3,-1.058359146E-1,1.061395230E-1
2.837428560E0,1.138520241E-2,7.585637271E-3,-7.171535492E-2,7.300860811E-2
2.842177362E0,1.776337624E-3,4.664249718E-4,-9.248542786E-2,9.250366097E-2
2.846926112E0,2.545769513E-2,2.903498709E-3,-1.083326340E-1,1.113215349E-1
2.851674914E0,6.262898445E-3,-2.087941766E-2,-1.287975311E-1,1.306291621E-1
2.856423716E0,3.847181797E-3,-1.594696566E-2,-1.609630585E-1,1.617968254E-1
2.861172518E0,1.561319828E-2,-3.250624612E-2,-1.738643646E-1,1.775647636E-1
2.865921268E0,1.303616166E-2,-8.538875729E-3,-1.462993622E-1,1.471270107E-1
2.870670070E0,-1.418277621E-3,-3.219757229E-2,-1.403312683E-1,1.439845826E-1
2.875418872E0,-8.601777256E-3,-2.714232355E-2,-1.415348053E-1,1.443703481E-1
2.880167674E0,-1.092137396E-2,-3.220006824E-3,-1.427288055E-1,1.431822502E-1
2.884916424E0,-1.351028681E-3,-8.362568915E-4,-1.534109116E-1,1.534191396E-1
2.889665226E0,-2.747302502E-2,3.714095801E-2,-1.473827362E-1,1.544535166E-1
2.894414028E0,-1.539071649E-2,5.103174597E-2,-1.366586685E-1,1.466857353E-1
2.899162831E0,-3.899369389E-2,7.670563459E-2,-1.355199814E-1,1.605301464E-1
2.903911633E0,-1.737424731E-2,5.465449765E-2,-1.272678375E-1,1.395925537E-1
2.908660383E0,-1.017996669E-2,6.130500510E-2,-1.333284378E-1,1.470999922E-1
2.913409185E0,-3.382652253E-2,3.471784294E-2,-1.654548645E-1,1.724090323E-1
2.918157987E0,-2.649538964E-2,2.019561827E-2,-1.617012024E-1,1.650973880E-1
2.922906737E0,-3.584398329E-2,1.291574910E-2,-1.793460846E-1,1.833483727E-1
2.927655539E0,-2.849547565E-2,2.225979418E-2,-1.564826965E-1,1.606061172E-1
2.932404341E0,-4.492224008E-2,1.015936956E-2,-1.480560303E-1,1.550542116E-1
2.937153143E0,-2.317032218E-2,-6.533093750E-3,-1.468219757E-1,1.487825181E-1
2.941901893E0,-3.481020033E-2,1.255382970E-2,-1.527204514E-1,1.571396988E-1
2.946650695E0,-5.110137165E-2,-8.823432028E-3,-1.728162766E-1,1.804291234E-1
2.951399497E0,-2.457738668E-2,-1.583342813E-2,-1.974916458E-1,1.996439219E-1
2.956148299E0,-2.441773564E-2,-1.811978221E-2,-1.934709549E-1,1.958457626E-1
2.960897101E0,-2.657832950E-2,-2.745379694E-2,-1.728658676E-1,1.770387719E-1
2.965645851E0,-2.872076631E-2,-4.617929831E-2,-1.737995148E-1,1.821089821E-1
2.970394653E0,-7.131561637E-3,-2.676239051E-2,-1.913442612E-1,1.933383330E-1
2.975143456E0,-4.743240774E-3,-5.501757190E-2,-1.541376114E-1,1.637309830E-1
2.979892258E0,7.122032344E-3,-3.552738205E-2,-1.386079788E-1,1.432658020E-1
2.984641008E0,-7.709860802E-5,-2.329439297E-2,-1.422014236E-1,1.440967716E-1
2.989389810E0,2.602184564E-2,-8.789207786E-3,-1.528873444E-1,1.553348856E-1
2.994138612E0,2.581533790E-2,-2.052053809E-2,-1.587352753E-1,1.621246797E-1
2.998887414E0,4.935203493E-2,-2.505932562E-2,-1.597862244E-1,1.691012438E-1
3.003636164E0,5.599059165E-2,-8.248258382E-3,-1.442098618E-1,1.549176050E-1
3.008384966E0,3.886002302E-2,3.646772355E-3,-1.335096359E-1,1.390978908E-1
3.013133768E0,1.477752626E-2,1.552524790E-2,-9.915924072E-2,1.014493155E-1
3.017882570E0,2.885417640E-2,5.910485983E-3,-1.291961670E-1,1.325109313E-1
3.022631320E0,2.147373557E-2,8.274592459E-3,-1.281194687E-1,1.301698447E-1
3.027380122E0,2.127723396E-2,5.898330361E-3,-1.412973404E-1,1.430120603E-1
3.032128924E0,1.865307987E-2,-8.384507149E-3,-1.543636322E-1,1.557124539E-1
3.036877726E0,-2.914763987E-3,-1.313460805E-2,-1.459541321E-1,1.465729254E-1
3.041626476E0,-6.164908409E-4,-1.069541648E-2,-1.352396011E-1,1.356632659E-1
3.046375278E0,-1.492891461E-2,-2.243820205E-2,-1.269884109E-1,1.298168014E-1
3.051124081E0,-1.957023144E-2,-1.034165919E-2,-1.544189453E-1,1.559972902E-1
3.055872883E0,-1.942469180E-2,-7.473193109E-4,-1.602554321E-1,1.614301108E-1
3.060621633E0,-2.661205828E-3,-7.879950106E-3,-2.016553879E-1,2.018268344E-1
3.065370435E0,-9.806498885E-3,-3.110006452E-3,-1.833534241E-1,1.836418190E-1
3.070119237E0,-1.457316428E-2,1.346297190E-2,-1.533346176E-1,1.546128510E-1
3.074868039E0,6.843000650E-3,1.491226256E-3,-1.449327469E-1,1.451018661E-1
3.079616789E0,-1.931922138E-2,3.235317767E-2,-1.389760971E-1,1.439941526E-1
3.084365591E0,-1.682883501E-2,2.022330090E-2,-1.401920319E-1,1.426393963E-1
3.089114393E0,-4.835247993E-3,2.716081589E-2,-1.366491318E-1,1.394061504E-1
3.093863195E0,-3.098301589E-2,1.504697278E-2,-1.616258621E-1,1.652551904E-1
3.098611945E0,-4.681482911E-3,7.423050702E-4,-1.436595917E-1,1.437377667E-1
3.103360747E0,-9.407907724E-3,3.120724112E-3,-1.377134323E-1,1.380696820E-1
3.108109549E0,1.496970654E-4,3.394224495E-2,-1.246957779E-1,1.292328729E-1
3.112858351E0,7.590651512E-5,3.836373240E-2,-1.094102859E-1,1.159413317E-1
3.117607101E0,-1.896274090E-2,1.428581029E-2,-9.662723541E-2,9.950121879E-2
3.122355903E0,-3.776002675E-2,9.484406561E-3,-1.266870499E-1,1.325344566E-1
3.127104706E0,-4.215594381E-2,1.176313683E-2,-1.137619019E-1,1.218903823E-1
3.131853508E0,-4.891679436E-2,-1.672618091E-4,-1.507987976E-1,1.585344067E-1
3.136602258E0,-5.090054870E-2,2.358643338E-2,-1.258001328E-1,1.377420019E-1
3.141351060E0,-5.286777020E-2,-7.463239133E-3,-1.271266937E-1,1.378836369E-1
3.146099862E0,-5.238921940E-2,-1.448548399E-2,-1.213197708E-1,1.329396342E-1
3.150848664E0,-4.012683779E-2,-1.910189912E-2,-1.464233398E-1,1.530190841E-1
3.155597414E0,-5.883054435E-2,2.408236265E-3,-1.143388748E-1,1.286087510E-1
3.160346216E0,-5.832999945E-2,-2.843740955E-2,-1.110115051E-1,1.285870498E-1
3.165095018E0,-6.020791456E-2,-3.520156816E-2,-1.100873947E-1,1.303202895E-1
3.169843820E0,-5.022695661E-2,-4.914195091E-2,-1.186656952E-1,1.379102089E-1
3.174592570E0,-5.217251182E-2,-3.450357169E-2,-9.393501282E-2,1.128550135E-1
3.179341372E0,-3.038778901E-2,-1.054599881E-2,-7.890796661E-2,8.521210599E-2
3.184090174E0,-4.036165774E-3,6.116665900E-3,-8.537292480E-2,8.568687487E-2
3.188838976E0,5.504220724E-3,2.509756014E-2,-7.041645050E-2,7.495772456E-2
3.193587726E0,3.636008501E-2,2.964751050E-2,-8.407592773E-2,9.627976052E-2
3.198336528E0,6.215561181E-2,7.988523692E-3,-6.675529480E-2,9.156094131E-2
3.203085331E0,8.530672640E-2,1.972128823E-2,-4.245758057E-2,9.730782561E-2
3.207834133E0,9.402015060E-2,3.615925461E-2,-1.836109161E-2,1.023934085E-1
3.212582883E0,1.074643135E-1,3.114794195E-2,-8.710861206E-3,1.122258975E-1
3.217331685E0,9.940144420E-2,3.567535430E-2,-1.576042175E-2,1.067790659E-1
3.222080487E0,9.378005564E-2,1.167489588E-2,-5.124187469E-2,1.075022407E-1
3.226829289E0,1.047969162E-1,9.242128581E-3,-4.369068146E-2,1.139152590E-1
3.231578039E0,8.963370323E-2,6.802495569E-3,-3.620338440E-2,9.690799628E-2
3.236326841E0,8.884200454E-2,6.729088724E-3,-6.201648712E-2,1.085551799E-1
3.241075643E0,3.107748926E-2,-2.658214979E-2,-4.487991333E-2,6.071760574E-2
3.245824445E0,3.549470007E-2,-3.590182588E-2,-8.961391449E-2,1.028565433E-1
3.250573195E0,1.370458305E-2,-4.039591551E-2,-7.462024689E-2,8.595246845E-2
3.255321997E0,6.395682693E-3,-3.532770276E-2,-9.298992157E-2,9.967987185E-2
3.260070799E0,-7.919475436E-3,-4.449235275E-2,-8.509254456E-2,9.634847525E-2
3.264819601E0,-1.739480346E-2,-3.455919400E-2,-1.318664551E-1,1.374251762E-1
3.269568351E0,-3.388597071E-2,-1.761424914E-2,-1.188974380E-1,1.248804290E-1
3.274317153E0,-6.208308041E-2,-7.932588458E-3,-1.487703323E-1,1.613996487E-1
3.279065956E0,-8.775354922E-2,8.735843003E-3,-1.142921448E-1,1.443596021E-1
3.283814758E0,-8.941388130E-2,2.297443897E-2,-1.631965637E-1,1.874987611E-1
3.288563508E0,-1.148018688E-1,2.522363141E-2,-1.737060547E-1,2.097367257E-1
3.293312310E0,-1.043934077E-1,2.980036288E-2,-1.461429596E-1,1.820544145E-1
3.298061112E0,-1.201598272E-1,2.241324261E-2,-1.472988129E-1,1.914097118E-1
3.302809914E0,-1.049857661E-1,5.067206919E-2,-8.196830750E-2,1.425078002E-1
3.307558664E0,-5.192443728E-2,5.978500471E-2,-7.653808594E-2,1.101293447E-1
3.312307466E0,-3.491776437E-2,6.882271171E-2,-3.554058075E-2,8.496439722E-2
3.317056268E0,-6.182081997E-3,5.164199322E-2,-3.286743164E-2,6.152545542E-2
3.321805070E0,5.805134773E-3,3.943480924E-2,-9.194946289E-2,1.002173014E-1
3.326553820E0,-1.410633326E-3,4.621264338E-2,-6.269264221E-2,7.789714810E-2
3.331302622E0,2.704594284E-2,2.681837976E-2,-5.742168427E-2,6.890543042E-2
3.336051424E0,3.395327926E-2,3.127156198E-2,-2.132987976E-2,5.084977415E-2
3.340800174E0,4.784324020E-2,-7.019910961E-3,-4.014492035E-2,6.284798654E-2
3.345548976E0,6.879453361E-2,-4.256249592E-2,5.298614502E-3,8.106990335E-2
3.350297778E0,6.113652885E-2,-4.926454648E-2,-5.172538757E-2,9.402226555E-2
3.355046581E0,4.636484385E-2,-4.414949939E-2,-7.740974426E-2,1.004546940E-1
3.359795331E0,6.252551079E-2,-5.807098374E-2,-6.489372253E-2,1.072048221E-1
3.364544133E0,3.117853403E-2,-5.997862294E-2,-8.097267151E-2,1.054803760E-1
3.369292935E0,2.375173569E-2,-6.659083068E-2,-4.943180084E-2,8.626694972E-2
3.374041737E0,1.876114309E-2,-8.499158919E-2,-8.938026428E-2,1.247572938E-1
3.378790487E0,1.141037047E-2,-7.717793435E-2,-4.827404022E-2,9.174428082E-2
3.383539289E0,2.076724172E-2,-6.230657548E-2,-6.923866272E-2,9.543259449E-2
3.388288091E0,1.108065248E-2,-3.326009214E-2,-1.066474915E-1,1.122617567E-1
3.393036893E0,2.516110241E-2,9.789954871E-3,-9.626102448E-2,9.997554263E-2
3.397785643E0,1.060666144E-2,2.631183714E-2,-5.747318268E-2,6.409353140E-2
3.402534445E0,3.178556263E-2,6.886692345E-2,-6.648921967E-2,1.008652144E-1
3.407283247E0,3.859825432E-2,9.687665105E-2,-3.507137299E-2,1.100223248E-1
3.412032049E0,-6.904512644E-3,9.850987792E-2,-2.053260803E-2,1.008635531E-1
3.416780799E0,-3.778325021E-2,1.167210937E-1,-2.748394012E-2,1.257249166E-1
3.421529601E0,-4.698256403E-2,8.014807105E-2,-5.337047577E-2,1.071423460E-1
3.426278403E0,-4.901008308E-2,8.189327270E-2,-7.666683197E-2,1.224185422E-1
3.431027206E0,-8.185719699E-2,6.700487435E-2,-1.140136719E-1,1.555293260E-1
3.435775956E0,-1.026145741E-1,3.084540740E-2,-8.932113647E-2,1.394971520E-1
3.440524758E0,-1.088991910E-1,-3.344763443E-2,-1.574277878E-1,1.943226349E-1
3.445273560E0,-1.246004850E-1,-4.270958900E-2,-1.466188431E-1,1.970950912E-1
3.450022362E0,-1.164844483E-1,-8.993522078E-2,-1.335248947E-1,1.987105134E-1
3.454771112E0,-1.060343236E-1,-8.688312024E-2,-1.442823410E-1,1.990209745E-1
3.459519914E0,-9.564386308E-2,-9.807391465E-2,-1.407060623E-1,1.963783014E-1
3.464268716E0,-5.687749386E-2,-9.017860889E-2,-1.086683273E-1,1.522367767E-1
3.469017466E0,-3.977398574E-2,-8.234944195E-2,-7.452487946E-2,1.179718534E-1
3.473766268E0,-4.175161570E-2,-6.031252071E-2,-9.052371979E-2,1.165132671E-1
3.478515070E0,-4.851587862E-2,-2.888042107E-2,-8.739566803E-2,1.040474507E-1
3.483263872E0,-2.430491894E-2,-1.443926618E-2,-8.429431915E-2,8.890868199E-2
3.488012622E0,4.452563822E-3,-2.465192229E-3,-7.884311676E-2,7.900721206E-2
3.492761424E0,5.185398459E-2,1.415739208E-2,-5.919265747E-2,7.995647671E-2
3.497510226E0,7.511902601E-2,7.100161910E-2,-5.869865417E-2,1.188681201E-1
3.502258976E0,7.444833964E-2,6.327119470E-2,8.268356323E-3,9.805184889E-2
3.507007778E0,9.984420985E-2,1.054071411E-1,6.518173218E-2,1.591483266E-1
3.511756581E0,1.227637753E-1,1.117171049E-1,3.614711761E-2,1.698772209E-1
3.516505383E0,1.003832519E-1,1.012739688E-1,8.570289612E-2,1.663676664E-1
3.521254185E0,5.439321697E-2,6.954979897E-2,7.786846161E-2,1.177255023E-1
3.526002935E0,7.526242733E-2,3.571620956E-2,9.621334076E-2,1.272677788E-1
3.530751737E0,5.322305858E-2,-1.210772246E-2,9.778594971E-2,1.119883158E-1
3.535500539E0,4.566705227E-2,-7.247045636E-3,7.560443878E-2,8.862296822E-2
3.540249289E0,2.384661138E-2,-3.329006955E-2,6.785297394E-2,7.925222822E-2
3.544998091E0,1.885461807E-2,-4.724568874E-2,8.865547180E-2,1.022127409E-1
3.549746893E0,1.384951174E-2,-9.197670966E-2,1.069116592E-1,1.417096573E-1
3.554495695E0,1.123297215E-2,-1.102197245E-1,1.535053253E-1,1.893104652E-1
3.559244445E0,1.106721163E-2,-1.258817017E-1,1.712188721E-1,2.128017579E-1
3.563993247E0,1.378789544E-3,-8.926419914E-2,2.172765732E-1,2.349023362E-1
3.568742049E0,-1.286758482E-2,-1.122777462E-1,2.012214661E-1,2.307854966E-1
3.573490851E0,-1.277767122E-2,-6.624959409E-2,2.280349731E-1,2.378071205E-1
3.578239601E0,-1.506241411E-2,-1.348330453E-2,2.332572937E-1,2.341316742E-1
3.582988403E0,-3.872289509E-2,-1.489799470E-3,2.621774673E-1,2.650258600E-1
3.587737206E0,-1.232910156E-2,2.462119237E-2,2.766132355E-1,2.779803804E-1
3.592485956E0,-1.472755522E-2,5.294402689E-2,3.407869339E-1,3.451893758E-1
3.597234758E0,-7.609717548E-3,8.809909225E-2,3.545684814E-1,3.654287426E-1
3.601983560E0,1.609553397E-2,1.157830358E-1,4.204645157E-1,4.364117168E-1
3.606732362E0,8.821606636E-3,1.242709607E-1,4.050912857E-1,4.238160476E-1
3.611481112E0,-3.167770803E-3,1.018799320E-1,4.278316498E-1,4.398061799E-1
3.616229914E0,6.255075336E-3,7.487218082E-2,4.456357956E-1,4.519250289E-1
3.620978716E0,-2.465094626E-2,3.007810563E-3,4.419221878E-1,4.426194033E-1
3.625727518E0,-5.292513967E-2,-1.602680050E-2,4.311170578E-1,4.346491071E-1
3.630476268E0,-7.157757133E-2,-4.917449504E-2,4.299001694E-1,4.385836697E-1
3.635225070E0,-8.292458206E-2,-4.878035560E-2,4.286928177E-1,4.393558254E-1
3.639973872E0,-6.563216448E-2,-4.121194780E-2,4.274950027E-1,4.344628673E-1
3.644722674E0,-7.940278947E-2,-2.901380882E-2,4.619207382E-1,4.695927730E-1
3.649471424E0,-4.557573050E-2,-4.537952319E-2,4.509487152E-1,4.555120109E-1
3.654220226E0,-7.124631852E-2,-9.012621641E-2,4.709310532E-1,4.847420238E-1
3.658969028E0,-6.824066490E-2,-6.562250108E-2,4.551353455E-1,4.648777083E-1
3.663717778E0,-4.637732357E-2,-1.267922968E-1,4.276018143E-1,4.484088026E-1
3.668466581E0,-6.019802764E-2,-1.613363624E-1,4.857654572E-1,5.153846173E-1
3.673215383E0,-6.440658122E-2,-1.172467321E-1,5.030832291E-1,5.205648271E-1
3.677964133E0,-1.397453994E-2,-6.157117710E-2,4.395370483E-1,4.440485497E-1
3.682712935E0,-6.752848625E-3,-3.498727083E-2,4.976015091E-1,4.988757079E-1
3.687461737E0,2.649649233E-2,3.246169537E-3,5.148229599E-1,5.155145796E-1
3.692210539E0,7.611557096E-2,3.881416470E-2,5.010366440E-1,5.082694543E-1
3.696959289E0,8.493293822E-2,5.512027070E-2,5.443449020E-1,5.536815155E-1
3.701708091E0,1.150719598E-1,6.894369423E-2,5.113191605E-1,5.286228076E-1
3.706456893E0,1.283125728E-1,5.642685294E-2,5.949020386E-1,6.111927205E-1
3.711205643E0,1.438171118E-1,1.011044234E-1,5.282173157E-1,5.567036902E-1
3.715954445E0,1.544442773E-1,7.896095514E-2,5.119438171E-1,5.405315339E-1
3.720703247E0,1.127515733E-1,8.778266609E-2,5.741558075E-1,5.916701826E-1
3.725452049E0,1.189446598E-1,7.993996143E-2,4.815273285E-1,5.024010327E-1
3.730200799E0,9.425017238E-2,1.518270746E-2,4.656429291E-1,4.753282518E-1
3.734949601E0,6.730407476E-2,-1.345086284E-2,4.665117264E-1,4.715336203E-1
3.739698403E0,5.016224086E-2,-3.463919088E-2,3.581609726E-1,3.633117205E-1
3.744447153E0,2.126446366E-2,-2.724385262E-2,3.717947006E-1,3.733975152E-1
3.749195956E0,6.824716926E-3,-5.786906928E-2,3.212137222E-1,3.264562165E-1
3.753944758E0,4.348173738E-3,-1.229417510E-2,3.612728119E-1,3.615080884E-1
3.758693560E0,-2.908292413E-2,-9.861961007E-3,4.010000229E-1,4.021742074E-1
3.763442310E0,-7.602356374E-3,4.718359560E-2,4.119043350E-1,4.146676606E-1
3.768191112E0,-3.364446759E-2,-2.971418202E-3,3.823547363E-1,3.838436191E-1
3.772939914E0,-6.413410604E-2,-2.893947437E-2,2.794532776E-1,2.881749661E-1
3.777688664E0,-1.038938612E-1,-1.670548692E-2,1.940269470E-1,2.207248601E-1
3.782437466E0,-1.078219861E-1,-2.133076638E-2,1.995334625E-1,2.278029520E-1
3.787186268E0,-7.138462365E-2,-9.298846126E-3,1.812524796E-1,1.950248558E-1
3.791935070E0,-5.664601177E-2,-1.161245815E-2,2.272272110E-1,2.344692416E-1
3.796683820E0,-1.641958952E-3,-4.236829281E-2,2.443275452E-1,2.479792685E-1
3.801432622E0,-2.538736165E-2,-4.672429711E-2,2.707815170E-1,2.759534527E-1
3.806181424E0,-1.326671243E-2,-2.018043771E-2,2.329130173E-1,2.341617589E-1
3.810930174E0,-2.267022431E-2,-1.759924740E-2,2.024822235E-1,2.045060474E-1
3.815678976E0,-1.543208212E-2,-1.031955890E-2,2.055444717E-1,2.063811336E-1
3.820427778E0,-3.478042781E-3,1.351850480E-2,2.133283615E-1,2.137845565E-1
3.825176581E0,-2.958229184E-2,-5.520135164E-3,1.806869507E-1,1.831757572E-1
3.829925331E0,-2.700693160E-2,-1.018390246E-2,1.578130722E-1,1.604308324E-1
3.834674133E0,-6.558001041E-4,-3.374572843E-2,1.470012665E-1,1.508263127E-1
3.839422935E0,6.426557899E-3,-2.395658940E-2,1.339063644E-1,1.361841887E-1
3.844171685E0,8.729532361E-3,-4.516884685E-2,1.636552811E-1,1.699984720E-1
3.848920487E0,2.048195899E-2,-1.157098636E-2,1.314277649E-1,1.335164999E-1
3.853669289E0,1.786360145E-2,-2.095981874E-2,2.276735306E-1,2.293330739E-1
3.858418091E0,1.535102725E-2,2.436259389E-2,2.186536789E-1,2.205416544E-1
3.863166841E0,-1.357510686E-3,4.321965203E-2,1.954631805E-1,2.001890010E-1
3.867915643E0,1.059070230E-2,5.242373422E-2,1.487245560E-1,1.580487407E-1
3.872664445E0,-3.923242539E-2,3.780927509E-2,8.812904358E-2,1.036120302E-1
3.877413195E0,-7.690949738E-2,5.415255949E-2,1.467485428E-1,1.743063547E-1
3.882161997E0,-9.055896103E-2,-8.015584201E-3,1.004171371E-1,1.354576555E-1
3.886910799E0,-6.848271191E-2,-1.748963818E-2,1.067047119E-1,1.279908779E-1
3.891659549E0,-7.982828468E-2,-5.546122789E-3,1.699180603E-1,1.878176289E-1
3.896408351E0,-6.968398392E-2,-3.632485494E-2,1.566314697E-1,1.752391794E-1
3.901157153E0,-2.158186585E-2,-2.886072546E-2,1.529512405E-1,1.571394298E-1
3.905905956E0,-1.658704132E-2,-1.676720381E-2,1.136884689E-1,1.161091600E-1
3.910654706E0,-9.315788746E-3,-1.904699579E-2,1.127414703E-1,1.147179633E-1
3.915403508E0,-6.909556687E-3,-3.074802086E-2,8.806133270E-2,9.353064245E-2
3.920152310E0,2.396629751E-2,-3.768689558E-2,1.443090439E-1,1.510621914E-1
3.924901060E0,5.461306870E-2,-1.130259410E-2,1.549758911E-1,1.647053816E-1
3.929649862E0,3.511920571E-2,-8.851280436E-3,1.655569077E-1,1.694721023E-1
3.934398664E0,5.849456787E-2,7.577240467E-4,1.855440140E-1,1.945476028E-1
3.939147414E0,4.846505821E-2,3.397209942E-2,1.863737106E-1,1.955457118E-1
3.943896216E0,6.703680754E-2,5.263712257E-2,1.824455261E-1,2.013727147E-1
3.948645018E0,5.458974838E-2,6.405255198E-2,1.738033295E-1,1.931071396E-1
3.953393768E0,4.462046921E-2,3.029244393E-2,2.245864868E-1,2.309712287E-1
3.958142570E0,3.716446459E-2,4.664274305E-2,1.942253113E-1,2.031753293E-1
3.962891372E0,8.263036609E-3,5.101408064E-2,1.285057068E-1,1.385078730E-1
3.967640174E0,1.049432158E-2,5.464222282E-3,1.559267044E-1,1.563749521E-1
3.972388924E0,-6.229996681E-3,-1.116055436E-2,1.427555084E-1,1.433265712E-1
3.977137726E0,-2.055324614E-2,-2.767410129E-2,1.320714951E-1,1.364960498E-1
3.981886528E0,-3.238287568E-2,-2.983357385E-2,1.784563065E-1,1.838079054E-1
3.986635278E0,-3.444873542E-2,-1.764671877E-2,1.271114349E-1,1.328737707E-1
3.991384081E0,-5.794887990E-2,-1.273998991E-2,1.711616516E-1,1.811537772E-1
3.996132883E0,1.814022660E-3,-6.720014662E-2,1.364974976E-1,1.521535975E-1
4.000881633E0,-2.939142287E-3,-6.657224894E-2,1.282377243E-1,1.445178772E-1
4.005630435E0,-3.142224252E-2,-7.072595507E-2,1.485366821E-1,1.674892951E-1
4.010379237E0,-1.455906779E-2,-6.297466159E-2,1.330537796E-1,1.479225565E-1
4.015128039E0,1.163223386E-2,-3.160301596E-2,1.366949081E-1,1.407819498E-1
4.019876789E0,1.855579019E-2,-2.898220718E-2,1.687955856E-1,1.722679175E-1
4.024625591E0,6.812830269E-2,5.199135467E-2,2.053766251E-1,2.225401643E-1
4.029374393E0,6.748667359E-2,6.581438333E-2,2.535228729E-1,2.704807410E-1
4.034123143E0,9.777048230E-2,6.055713072E-2,2.086763382E-1,2.382688553E-1
4.038871945E0,7.316854596E-2,6.481181085E-2,2.069387436E-1,2.288620776E-1
4.043620747E0,8.910389245E-2,4.523371160E-2,2.052154541E-1,2.282519987E-1
4.048369549E0,9.309194982E-2,2.822102234E-2,1.821374893E-1,2.064863246E-1
4.053118299E0,8.984008431E-2,4.696194455E-2,2.067365646E-1,2.302534954E-1
4.057867101E0,5.340546370E-2,2.987783402E-2,2.430009842E-1,2.505879224E-1
4.062615903E0,1.266658306E-2,8.272934705E-3,2.219829559E-1,2.224979022E-1
4.067364653E0,-3.491167724E-2,-1.306713000E-2,1.702737808E-1,1.743064414E-1
4.072113456E0,-2.997447550E-2,3.671828657E-3,1.759786606E-1,1.785509465E-1
4.076862258E0,-5.348391831E-2,-5.567289889E-2,1.436481476E-1,1.630790958E-1
4.081611008E0,-7.447957993E-2,-4.100894183E-2,1.519489288E-1,1.741189769E-1
4.086359810E0,-7.630722970E-2,-6.917332858E-2,1.221933365E-1,1.598091179E-1
4.091108612E0,-1.302946061E-1,-6.855693460E-2,1.662845612E-1,2.220974852E-1
4.095857362E0,-1.434151232E-1,-8.691106737E-2,8.417606354E-2,1.876353934E-1
4.100606164E0,-1.422376335E-1,-9.567235410E-2,1.238355637E-1,2.114710158E-1
4.105354966E0,-1.576326787E-1,-8.299328387E-2,9.906101227E-2,2.038357935E-1
4.110103768E0,-1.728712469E-1,-3.005937114E-2,1.362209320E-1,2.221354905E-1
4.114852518E0,-1.571470797E-1,3.676283360E-2,7.335758209E-2,1.772795686E-1
4.119601320E0,-1.629776061E-1,2.456861362E-2,1.154804230E-1,2.012487141E-1
4.124350070E0,-1.236226782E-1,3.146956116E-2,9.315013885E-2,1.579552095E-1
4.129098872E0,-6.554596126E-2,5.970779434E-2,1.564741135E-1,1.798483859E-1
4.133847674E0,-4.124751687E-2,5.450048298E-2,1.171846390E-1,1.356609741E-1
4.138596476E0,-7.655076683E-3,4.458862171E-2,1.328277588E-1,1.403209139E-1
4.143345226E0,2.093721181E-2,5.838844925E-2,1.649580002E-1,1.762348424E-1
4.148094028E0,8.012707531E-2,4.123718664E-2,1.873245239E-1,2.078733533E-1
4.152842831E0,9.843485802E-2,4.084821790E-2,1.976337433E-1,2.245375128E-1
4.157591581E0,1.189360470E-1,6.895225495E-2,2.221050262E-1,2.612103356E-1
4.162340383E0,1.346025765E-1,8.495170623E-2,2.083826065E-1,2.622173844E-1
4.167089185E0,1.501386315E-1,7.713240385E-2,1.829032898E-1,2.488867811E-1
4.171837987E0,1.393446475E-1,2.661647275E-2,1.742582321E-1,2.247026900E-1
4.176586737E0,1.642811745E-1,-2.111528069E-3,1.348190308E-1,2.125298424E-1
4.181335539E0,1.652686149E-1,-4.252804071E-2,1.716833115E-1,2.420692231E-1
4.186084289E0,1.187648773E-1,-5.880982801E-2,1.132726669E-1,1.743398664E-1
4.190833091E0,1.058020890E-1,-5.115799978E-2,1.598129272E-1,1.983718596E-1
4.195581893E0,7.870228589E-2,-8.873482794E-2,1.869735718E-1,2.214204960E-1
4.200330695E0,4.481880367E-2,-4.281862825E-2,1.450548172E-1,1.577436531E-1
4.205079445E0,1.664593816E-3,-3.521494567E-2,8.924102783E-2,9.595219810E-2
4.209828247E0,-4.828067869E-2,-5.622087419E-2,9.799480438E-2,1.228608657E-1
4.214577049E0,-2.180863917E-2,-2.956916764E-2,3.544998169E-2,5.105539755E-2
4.219325799E0,-6.203345209E-2,1.107745990E-2,3.990364075E-2,7.458659291E-2
4.224074601E0,-6.879787147E-2,2.993292361E-2,3.007602692E-2,8.083127136E-2
4.228823403E0,-5.648459494E-2,1.539355516E-2,1.081743240E-1,1.230006317E-1
4.233572153E0,-4.421746731E-2,1.058494300E-2,3.842353821E-2,5.952809187E-2
4.238320956E0,-3.210917115E-2,-2.736479789E-2,5.709648132E-2,7.099182499E-2
4.243069758E0,-3.672059625E-2,-5.758345127E-3,8.273983002E-2,9.070523799E-2
4.247818560E0,-3.411474824E-2,1.807083562E-2,7.730197906E-2,8.640582801E-2
4.252567310E0,-4.102734476E-2,1.321203634E-2,1.051483154E-1,1.136396461E-1
4.257316112E0,-3.595497459E-2,6.047464907E-3,6.628608704E-2,7.565168448E-2
4.262064862E0,-1.193168759E-2,-3.459800035E-3,5.623722076E-2,5.759305847E-2
4.266813664E0,-1.894426346E-2,-5.821917206E-3,6.526470184E-2,6.820748599E-2
4.271562466E0,1.888573170E-4,-1.285575330E-2,6.234645844E-2,6.365836111E-2
4.276311268E0,2.486974001E-3,-1.742855459E-2,2.384185791E-2,2.963737073E-2
4.281060018E0,2.613325417E-2,-1.492559910E-2,5.925655365E-2,6.646096322E-2
4.285808820E0,5.433078110E-2,2.788874879E-2,7.538223267E-2,9.701596305E-2
4.290557622E0,7.276846468E-2,6.559801102E-2,1.483545303E-1,1.777847439E-1
4.295306372E0,3.893443942E-2,4.612618685E-2,9.963607788E-2,1.164940501E-1
4.300055174E0,1.725310087E-2,1.729176939E-2,8.218669891E-2,8.573988720E-2
4.304803976E0,-1.611842215E-2,4.839301109E-4,7.200527191E-2,7.378886707E-2
4.309552726E0,-4.909860343E-2,-1.850181445E-2,-2.118682861E-2,5.658508375E-2
4.314301528E0,-8.666536957E-2,-5.637908354E-2,5.258846283E-2,1.159958351E-1
4.319050331E0,-1.120764911E-1,-5.830058455E-2,-2.455711365E-3,1.263571468E-1
4.323799081E0,-1.135062203E-1,-2.688280493E-2,7.061958313E-3,1.168598241E-1
4.328547883E0,-1.291971952E-1,-3.857461363E-2,8.772373199E-2,1.608582271E-1
4.333296685E0,-1.067143679E-1,-1.455714181E-2,2.051639557E-2,1.096393596E-1
4.338045487E0,-1.082167178E-1,-2.395033091E-2,7.495212555E-2,1.337994675E-1
4.342794237E0,-8.831094205E-2,-5.460428819E-2,8.619689941E-2,1.349457530E-1
4.347543039E0,-5.189554393E-2,-3.042531759E-2,6.411075592E-2,8.791493875E-2
4.352291841E0,-4.189924151E-2,-4.437762871E-2,5.407810211E-2,8.154361715E-2
4.357040591E0,-2.964038402E-2,-8.328270167E-3,4.175567627E-2,5.187917645E-2
4.361789393E0,3.827072680E-3,-2.967203036E-2,1.078834534E-1,1.119549703E-1
4.366538195E0,2.757551521E-2,-5.841931328E-3,1.069841385E-1,1.106351802E-1
4.371286945E0,9.374754876E-2,8.349563926E-3,1.060934067E-1,1.418242894E-1
4.376035747E0,8.348052949E-2,5.571674183E-2,1.883058548E-1,2.133833383E-1
4.380784549E0,9.000287950E-2,7.428467274E-2,1.534957886E-1,1.928203517E-1
4.385533299E0,9.627266228E-2,7.839673758E-2,1.617155075E-1,2.038783444E-1
4.390282101E0,7.171094418E-2,5.155470595E-2,2.031021118E-1,2.214741860E-1
4.395030903E0,7.120865583E-2,6.295104325E-2,1.681709290E-1,1.931708256E-1
4.399779653E0,7.531726360E-2,7.193488628E-2,1.548986435E-1,1.866571933E-1
4.404528456E0,5.565002561E-2,3.338960931E-2,1.678533554E-1,1.799626080E-1
4.409277258E0,2.670674026E-2,1.186955720E-2,1.237192154E-1,1.271242724E-1
4.414026008E0,1.453904808E-2,2.228509635E-3,1.155672073E-1,1.164994832E-1
4.418774810E0,-3.082211316E-2,-4.760734737E-2,1.787080765E-1,1.874914366E-1
4.423523612E0,-2.826552838E-2,-5.669609457E-2,7.275676727E-2,9.647245420E-2
4.428272414E0,-1.385997236E-2,-8.470079303E-2,1.410017014E-1,1.650690854E-1
4.433021164E0,-3.987807781E-2,-7.442982495E-2,6.860256195E-2,1.087950892E-1
4.437769966E0,-3.490046412E-2,-5.477619171E-2,9.177207947E-2,1.124303702E-1
4.442518768E0,-3.877066076E-3,-7.570353150E-2,1.313705444E-1,1.516716067E-1
4.447267518E0,8.574426174E-4,-5.132007226E-2,1.160316467E-1,1.268772165E-1
4.452016320E0,-1.106645167E-2,-3.658005968E-2,8.420085907E-2,9.246811227E-2
4.456765122E0,-2.535016835E-2,-2.911367640E-2,1.357316971E-1,1.411146016E-1
4.461513872E0,5.622163415E-3,6.723925471E-3,9.661674500E-2,9.701348004E-2
4.466262674E0,3.154933453E-3,1.855012402E-2,1.148042679E-1,1.163360676E-1
4.471011476E0,4.332970083E-2,-5.306819454E-3,1.114759445E-1,1.197184677E-1
4.475760226E0,7.132728398E-2,1.870602369E-3,1.319160461E-1,1.499764109E-1
4.480509028E0,8.968003094E-2,1.611066237E-2,1.545591354E-1,1.794173563E-1
4.485257831E0,6.986512244E-2,3.970026225E-2,1.698913574E-1,1.879370093E-1
4.490006581E0,5.974015594E-2,6.552457064E-2,1.471090317E-1,1.717656042E-1
4.494755383E0,4.014611244E-2,6.496166438E-2,1.577548981E-1,1.752664715E-1
4.499504185E0,2.320323884E-2,5.015780404E-2,1.398220062E-1,1.503475608E-1
4.504252987E0,2.061794698E-2,1.888703182E-2,6.505870819E-2,7.081281819E-2
4.509001737E0,-2.236308157E-2,2.008192241E-3,1.167488098E-1,1.188882873E-1
4.513750539E0,-3.884202987E-2,-3.844270855E-2,8.491325378E-2,1.009792345E-1
4.518499341E0,-6.702600420E-2,-1.677189395E-2,1.055717468E-1,1.261712146E-1
4.523248091E0,-7.835609466E-2,-4.980189353E-2,7.351875305E-3,9.313407669E-2
4.527996893E0,-6.113048643E-2,-7.085589319E-2,8.326530457E-2,1.252621448E-1
4.532745695E0,-9.150277078E-2,-6.793693453E-2,-1.951789856E-2,1.156249649E-1
4.537494445E0,-1.310619712E-1,-7.922964543E-2,5.186843872E-2,1.616938834E-1
4.542243247E0,-1.726655662E-1,-8.565193415E-2,-1.503944397E-2,1.933283126E-1
4.546992049E0,-2.068282068E-1,-6.358845532E-2,3.969001770E-2,2.199924914E-1
4.551740799E0,-2.074397802E-1,-4.162328318E-2,-5.560684204E-2,2.187598707E-1
4.556489601E0,-1.701452881E-1,-1.517733745E-2,1.133346558E-2,1.711964313E-1
4.561238403E0,-1.496952176E-1,-1.269396022E-2,-7.755279541E-3,1.504325070E-1
4.565987153E0,-9.617750347E-2,-1.254863292E-2,1.605033875E-2,9.831171718E-2
4.570735956E0,-7.868959010E-2,-2.667779848E-2,-1.019954681E-2,8.371252760E-2
4.575484758E0,-4.478515685E-2,-3.124942631E-2,5.398654938E-2,7.679052306E-2
4.580233560E0,-3.012795746E-2,-9.582478553E-3,1.792430878E-2,3.634279243E-2
4.584982310E0,1.289677620E-2,1.896990091E-2,7.237911224E-2,7.592706939E-2
4.589731112E0,3.654138744E-2,3.306785598E-2,7.652473450E-2,9.102082775E-2
4.594479914E0,7.429065555E-2,5.891906843E-2,1.304922104E-1,1.613033636E-1
4.599228664E0,8.326408267E-2,5.846729130E-2,6.767559052E-2,1.221937689E-1
4.603977466E0,1.062653810E-1,1.078486741E-1,8.373165131E-2,1.730163493E-1
4.608726268E0,1.100818291E-1,5.232762173E-2,1.020288467E-1,1.589530581E-1
4.613475018E0,1.519097388E-1,6.137088314E-2,6.556510925E-2,1.764702173E-1
4.618223820E0,1.577198654E-1,2.997898683E-2,8.401393890E-2,1.811977857E-1
4.622972622E0,1.587902755E-1,2.499201521E-2,9.993267059E-2,1.892762295E-1
4.627721372E0,1.432042122E-1,-4.642917216E-2,7.535839081E-2,1.683508286E-1
4.632470174E0,1.396186948E-1,-1.284914464E-2,1.127157211E-1,1.798980663E-1
4.637218976E0,7.914043963E-2,-1.988141239E-2,9.753322601E-2,1.271660722E-1
4.641967726E0,5.474995077E-2,3.258389980E-2,8.010101318E-2,1.023495967E-1
4.646716528E0,2.044528723E-3,-7.922917604E-3,5.806541443E-2,5.863910874E-2
4.651465331E0,6.729438901E-3,-7.816936821E-3,-1.770973206E-3,1.046547635E-2
4.656214081E0,-5.329124629E-3,-2.916408330E-2,1.723766327E-2,3.429402804E-2
4.660962883E0,2.547590435E-2,2.563939616E-2,5.033397675E-2,6.196700374E-2
4.665711685E0,-1.045172662E-2,-5.455462262E-3,4.754257202E-2,4.898261745E-2
4.670460487E0,-1.507398486E-2,2.786803618E-2,4.002189636E-2,5.104512365E-2
4.675209237E0,-1.968605816E-2,-7.823105901E-3,2.544307709E-2,3.310728083E-2
4.679958039E0,-7.782801986E-3,-1.246662065E-2,1.810932159E-2,2.332243911E-2
4.684706841E0,-1.262624562E-2,1.130460575E-2,1.058053970E-1,1.071540864E-1
4.689455591E0,1.114566624E-2,2.077539265E-2,1.470661163E-2,2.778717765E-2
4.694204393E0,-3.238365054E-3,-2.443851903E-2,6.444072723E-2,6.899518496E-2
4.698953195E0,-1.275442541E-2,-4.075668007E-2,1.642036438E-2,4.575380535E-2
4.703701945E0,-1.984538138E-2,-2.613218501E-2,2.340793610E-2,4.030709277E-2
4.708450747E0,-3.165398538E-2,-1.171487570E-2,8.969306946E-3,3.492365345E-2
4.713199549E0,-1.018298417E-2,2.365782857E-4,5.163192749E-2,5.262703746E-2
4.717948299E0,8.791923523E-3,1.451909170E-2,6.069850922E-2,6.302706533E-2
4.722697101E0,-1.269495487E-2,7.315259427E-3,6.731605530E-2,6.889213453E-2
4.727445903E0,-3.139033914E-3,3.813013434E-2,6.675624847E-2,7.694255903E-2
4.732194706E0,1.560509205E-3,1.170865819E-2,7.569694519E-2,7.661302355E-2
4.736943456E0,-2.693185210E-2,3.782396764E-2,-3.281593323E-3,4.654831941E-2
4.741692258E0,-5.527202785E-2,-4.566021636E-2,6.797122955E-2,9.879241098E-2
4.746441008E0,-4.770711809E-2,-2.384320647E-2,-4.180717468E-2,6.776656599E-2
4.751189810E0,-9.481053799E-2,-4.969134182E-2,-2.483940125E-2,1.098875035E-1
4.755938612E0,-1.178366542E-1,-5.169712752E-2,3.234863281E-2,1.326819660E-1
4.760687414E0,-9.075687826E-2,1.287528500E-2,-2.727508545E-2,9.563741005E-2
4.765436164E0,-1.138167828E-1,8.799694479E-4,1.331329346E-2,1.145961526E-1
4.770184966E0,-1.414896995E-1,4.819607735E-2,1.081705093E-1,1.845076042E-1
4.774933768E0,-1.094361767E-1,-4.396835342E-3,8.352756500E-2,1.377405643E-1
4.779682518E0,-9.893163294E-2,4.093048722E-2,-7.387161255E-3,1.073188843E-1
4.784431320E0,-1.479254365E-1,-2.161834389E-3,6.918907166E-3,1.481029357E-1
4.789180122E0,-1.181638762E-1,-1.646289788E-2,-3.112506866E-2,1.232984126E-1
4.793928872E0,-1.338442862E-1,-4.558293149E-3,-1.187229156E-2,1.344470985E-1
4.798677674E0,-5.923349783E-2,1.439869776E-2,2.621555328E-2,6.635649928E-2
4.803426476E0,-4.688696563E-2,-1.903354749E-2,8.297729492E-2,9.718999408E-2
4.808175226E0,-6.068095565E-3,-2.598655224E-2,7.041549683E-2,7.530248916E-2
4.812924028E0,2.016565204E-2,-6.765641272E-3,3.421497345E-2,4.028761388E-2
4.817672831E0,2.950482816E-2,1.930371299E-2,1.217737198E-1,1.267754197E-1
4.822421581E0,6.719891727E-2,6.180365011E-2,7.090282440E-2,1.155966961E-1
4.827170383E0,6.899514049E-2,1.016606688E-1,7.743453979E-2,1.452285404E-1
4.831919185E0,6.130826473E-2,9.845085442E-2,1.456394196E-1,1.861776426E-1
4.836667987E0,7.508113235E-2,8.336894959E-2,6.845378876E-2,1.314286095E-1
4.841416737E0,6.966075301E-2,4.229674861E-2,7.975387573E-2,1.140276990E-1
4.846165539E0,9.274672717E-2,-1.742601767E-2,4.585266113E-2,1.049194359E-1
4.850914341E0,4.452987760E-2,-6.787106395E-4,4.072284698E-2,6.034667277E-2
4.855663091E0,2.511899173E-2,-6.608143449E-4,2.851295471E-2,3.800511818E-2
4.860411893E0,3.201404214E-2,-4.332114011E-2,5.439090729E-2,7.655057720E-2
4.865160695E0,5.309654027E-2,-4.998526350E-2,3.494548798E-2,8.086381320E-2
4.869909445E0,3.833438456E-2,-7.329902053E-2,1.091384888E-2,8.343490605E-2
4.874658247E0,2.847190201E-2,-1.343475580E-1,1.794528961E-2,1.384989132E-1
4.879407049E0,3.528209031E-2,-8.807881922E-2,1.779651642E-2,9.653714460E-2
4.884155799E0,2.301388979E-2,-7.303109020E-2,1.764869690E-2,7.857897786E-2
4.888904601E0,3.939472139E-2,-3.196502477E-2,3.174686432E-2,5.984622190E-2
4.893653403E0,8.169792593E-2,-1.501184888E-2,-1.837348938E-2,8.507344956E-2
4.898402206E0,5.476970971E-2,1.121157408E-2,6.962394714E-2,8.929117823E-2
4.903150956E0,5.432383716E-2,2.065475285E-2,1.443958282E-2,5.988488667E-2
4.907899758E0,5.851615965E-2,-1.743560284E-2,8.079624176E-2,1.012727696E-1
4.912648560E0,7.689006627E-2,2.551212162E-2,3.739070892E-2,8.922452440E-2
4.917397310E0,7.852016389E-2,4.198668525E-2,5.607318878E-2,1.052259492E-1
4.922146112E0,1.086549312E-1,7.488603890E-2,5.798053741E-2,1.441372804E-1
4.926894914E0,9.577532113E-2,4.338114336E-2,8.361530304E-2,1.343367211E-1
4.931643664E0,1.162412167E-1,8.107414842E-2,1.644229889E-2,1.426723070E-1
4.936392466E0,7.006032765E-2,3.289865330E-2,9.465408325E-2,1.222708730E-1
4.941141268E0,5.281111598E-2,4.444943368E-2,6.775093079E-2,9.672101503E-2
4.945890070E0,3.567728400E-2,4.408981279E-2,6.006526947E-2,8.261123883E-2
4.950638820E0,6.843969226E-3,1.078067049E-1,7.618522644E-2,1.321866645E-1
4.955387622E0,-5.261322111E-2,4.522050917E-2,1.857089996E-2,7.181868706E-2
4.960136424E0,-9.492740035E-2,6.865370274E-2,1.604270935E-2,1.182451300E-1
4.964885174E0,-8.949147910E-2,-2.684427425E-2,-7.905578613E-2,1.223893672E-1
4.969633976E0,-1.292094588E-1,-2.904091030E-2,1.657104492E-2,1.334655695E-1
4.974382778E0,-1.305532008E-1,-7.152238488E-2,-5.953884125E-2,1.603261158E-1
4.979131528E0,-1.627212763E-1,-6.382085383E-2,-4.242324829E-2,1.798639684E-1
4.983880331E0,-2.017153651E-1,-9.176686406E-2,-1.832866669E-2,2.223649834E-1
4.988629133E0,-2.094348669E-1,-4.350800812E-2,-5.141544342E-2,2.199987683E-1
4.993377883E0,-2.100244910E-1,-5.978214741E-2,-1.032180786E-1,2.415329454E-1
4.998126685E0,-2.225371301E-1,-3.318528458E-2,-2.875900269E-2,2.268283881E-1
5.002875487E0,-1.778803766E-1,-2.820623294E-2,-6.413269043E-2,1.911806003E-1
5.007624289E0,-1.668053567E-1,5.582645535E-4,-6.359958649E-2,1.785195958E-1
5.012373039E0,-1.630020440E-1,-1.605424099E-2,-8.918571472E-2,1.864979804E-1
5.017121841E0,-1.188982800E-1,-1.778643578E-3,1.773834229E-3,1.189248125E-1
5.021870643E0,-6.563708186E-2,-1.605449058E-2,-7.737159729E-3,6.801350472E-2
5.026619393E0,-5.555440113E-2,1.014914736E-2,8.946418762E-3,5.717809970E-2
5.031368195E0,-1.231776178E-2,7.758900523E-3,-6.256103516E-4,1.457117637E-2
5.036116997E0,4.955184460E-2,2.197879180E-2,-5.047798157E-2,7.407077167E-2
5.040865747E0,5.630037189E-2,-3.525783867E-2,2.828979492E-2,7.220221298E-2
5.045614549E0,7.958321273E-2,2.434423566E-2,3.042888641E-2,8.861177510E-2
5.050363351E0,1.097945794E-1,3.362066671E-2,4.679393768E-2,1.239954496E-1
5.055112101E0,1.303431392E-1,1.907796040E-2,7.964134216E-2,1.539352003E-1
5.059860903E0,1.126769409E-1,1.418220624E-2,1.145877838E-1,1.613306796E-1
5.064609706E0,1.616339982E-1,4.734244570E-2,2.341461182E-2,1.700444076E-1
5.069358508E0,1.459958255E-1,6.541620940E-3,1.324319839E-1,1.972201923E-1
5.074107258E0,1.495380104E-1,6.498642266E-3,1.147089005E-1,1.885788449E-1
5.078856060E0,1.317404807E-1,2.785149962E-2,8.526229858E-2,1.593766603E-1
5.083604862E0,1.187254488E-1,5.849486589E-2,8.455276489E-2,1.570558868E-1
5.088353612E0,1.058758497E-1,4.611971229E-2,7.910060883E-2,1.399772472E-1
5.093102414E0,8.126251400E-2,1.250922307E-2,5.232524872E-2,9.745772671E-2
5.097851216E0,6.386271119E-2,1.001424342E-2,9.224987030E-2,1.126444385E-1
5.102599966E0,8.219185472E-2,-3.276418895E-2,4.399967194E-2,9.881783336E-2
5.107348768E0,4.107175767E-2,-1.586167514E-2,1.291036606E-1,1.364046817E-1
5.112097570E0,7.629536092E-2,-3.790557384E-3,-1.754760742E-4,7.638966694E-2
5.116846372E0,5.650599301E-2,-1.561852172E-2,1.114120483E-1,1.258948370E-1
5.121595122E0,6.783097982E-2,2.013503760E-2,3.925991058E-2,8.091849073E-2
5.126343924E0,7.428479195E-2,1.760428026E-2,1.125316620E-1,1.359835135E-1
5.131092726E0,9.255552292E-2,-8.618347347E-3,2.385139465E-3,9.298650238E-2
5.135841476E0,2.755032480E-2,1.749474555E-2,7.359218597E-2,8.050401453E-2
5.140590278E0,2.484297752E-2,7.835797966E-3,6.504058838E-3,2.684913487E-2
5.145339081E0,1.738147438E-2,1.484748721E-2,9.904384613E-2,1.016476610E-1
5.150087831E0,5.710124969E-4,7.641781121E-3,1.274967194E-2,1.487538263E-2
5.154836216E0,-2.805565298E-2,-5.885757133E-2,4.588413239E-2,7.972883401E-2
5.159585435E0,-1.848584414E-2,-6.072966754E-2,2.176189423E-2,6.710736915E-2
5.164334185E0,-2.558629215E-2,-6.973712891E-2,3.107833862E-2,8.052197605E-2
5.169082987E0,2.429482341E-2,2.582188323E-2,1.182937622E-2,3.737569049E-2
5.173831789E0,5.024179816E-3,1.849583164E-2,2.597713470E-2,3.228234344E-2
5.178580591E0,-6.628863513E-2,3.025253862E-2,-2.884387970E-2,7.836688483E-2
5.183329341E0,-7.773924619E-2,-8.002113551E-3,1.413249969E-2,7.941757845E-2
5.188078143E0,-1.174701229E-1,-5.060071498E-2,-6.433200836E-2,1.431721671E-1
5.192826945E0,-1.782370359E-1,-4.773629084E-2,-6.379604340E-2,1.952360868E-1
5.197575747E0,-1.909860671E-1,-5.444936454E-2,-2.052974701E-2,1.996544055E-1
5.202324497E0,-1.894124746E-1,2.995483577E-3,-1.129512787E-1,2.205539613E-1
5.207073299E0,-2.235781848E-1,-5.642901361E-2,-2.416419983E-2,2.318519935E-1
5.211822101E0,-1.553138793E-1,-5.603276193E-2,-2.870941162E-2,1.675896829E-1
5.216570851E0,-1.492605507E-1,-8.164210618E-2,-2.372264862E-2,1.717757537E-1
5.221319653E0,-1.479490399E-1,-4.290717468E-2,-5.676460266E-2,1.641711429E-1
5.226068456E0,-1.609218568E-1,-4.731522873E-2,-3.492355347E-2,1.713307603E-1
5.230817206E0,-1.168354452E-1,-1.801280305E-3,-9.161186218E-2,1.484806356E-1
5.235566008E0,-1.111026853E-1,-2.794840559E-2,-4.811382294E-2,1.242572333E-1
5.240314810E0,-9.594970942E-2,-1.646036282E-3,4.518508911E-3,9.607014674E-2
5.245063612E0,-7.134089619E-2,-2.064315230E-2,4.480361938E-3,7.440253254E-2
5.249812362E0,-3.741206229E-2,2.467704937E-2,1.156425476E-2,4.628553941E-2
5.254561164E0,-1.572212577E-2,6.243979186E-2,3.995704651E-2,7.577914233E-2
5.259309966E0,8.189715445E-3,1.140472144E-1,6.336593628E-2,1.307252096E-1
5.264058716E0,4.854975641E-2,1.250069141E-1,3.672122955E-2,1.390404838E-1
5.268807518E0,7.661719620E-2,1.144794524E-1,4.828643799E-2,1.459702705E-1
5.273556320E0,9.732818604E-2,1.157682389E-1,8.349704742E-2,1.727623161E-1
5.278305070E0,1.037641540E-1,1.124694124E-1,5.668354034E-2,1.631851468E-1
5.283053872E0,8.626233786E-2,8.785960078E-2,3.959178925E-2,1.293368090E-1
5.287802674E0,1.068071648E-1,5.384422094E-2,7.250308990E-2,1.398701849E-1
5.292551424E0,8.939405531E-2,4.385377839E-2,1.491832733E-2,1.006827070E-1
5.297300226E0,8.148016036E-2,2.439262718E-2,5.278110504E-2,1.000992599E-1
5.302049028E0,6.882677227E-2,1.699324325E-2,6.658840179E-2,9.726206944E-2
5.306797831E0,5.404727906E-2,1.214376092E-2,4.229068756E-2,6.969276546E-2
5.311546581E0,7.500315458E-2,-3.308286518E-2,3.951072693E-3,8.207045839E-2
5.316295383E0,5.533832312E-2,-8.983185887E-2,2.528667450E-2,1.084965842E-1
5.321044185E0,4.293116927E-2,-6.538656354E-2,-1.038551331E-3,7.822765863E-2
5.325792935E0,6.867095828E-2,-7.435487211E-2,-1.290130615E-2,1.020332849E-1
5.330541737E0,4.199361801E-2,-9.271688014E-2,3.943824768E-2,1.091570392E-1
5.335290539E0,7.955503464E-2,-9.427832067E-2,1.061916351E-2,1.238150715E-1
5.340039289E0,1.072497666E-1,-9.107843041E-2,1.765537262E-2,1.418079867E-1
5.344788091E0,1.276199073E-1,-5.232188851E-2,3.650093079E-2,1.426770433E-1
5.349536893E0,1.193304062E-1,-6.134237722E-2,4.094696045E-2,1.402828808E-1
5.354285695E0,9.918221831E-2,-5.838842690E-2,4.298114777E-2,1.228564198E-1
5.359034445E0,1.314047426E-1,-1.512747444E-2,4.974746704E-2,1.413182838E-1
5.363783247E0,1.397028118E-1,-6.597451866E-4,5.645656586E-2,1.506806382E-1
5.368532049E0,1.099738330E-1,-2.667271346E-2,7.260608673E-2,1.344519297E-1
5.373280799E0,1.088684201E-1,-9.820599109E-3,5.527496338E-3,1.094501269E-1
5.378029601E0,8.646194637E-2,1.155377552E-2,8.620452881E-2,1.226392216E-1
5.382778403E0,3.586643934E-2,-1.456133835E-2,9.512901306E-3,3.986137651E-2
5.387527206E0,1.881650090E-2,-1.196905226E-2,1.181030273E-2,2.523493944E-2
5.392275956E0,-2.839654684E-3,8.070512116E-2,1.883602142E-2,8.292271054E-2
5.397024758E0,-3.615743667E-2,5.392775312E-2,-1.930713654E-2,6.773720030E-2
5.401773560E0,-3.358535469E-2,6.301426888E-2,-2.526283264E-3,7.145037605E-2
5.406522310E0,-5.005662143E-2,7.728934288E-4,-1.199913025E-2,5.148049961E-2
5.411271112E0,-6.633365899E-2,5.526725203E-3,-1.189804077E-2,6.761850620E-2
5.416019914E0,-1.132819206E-1,-3.246519342E-2,-5.928230286E-2,1.319135086E-1
5.420768664E0,-1.669897139E-1,-6.124895066E-3,-3.267192841E-2,1.702660677E-1
5.425517466E0,-2.178758085E-1,2.477272972E-2,-3.714656830E-2,2.224037401E-1
5.430266268E0,-2.327257246E-1,2.692347392E-2,3.523826599E-3,2.343044039E-1
5.435015070E0,-2.473662794E-1,3.154456988E-2,-8.909893036E-2,2.648089036E-1
5.439763820E0,-2.690358162E-1,3.844423592E-2,-6.461524963E-2,2.793445187E-1
5.444512622E0,-2.050554454E-1,1.196273789E-2,-7.832145691E-2,2.198296918E-1
5.449261424E0,-1.653212011E-1,3.086778522E-2,-6.579875946E-2,1.805917950E-1
5.454010174E0,-1.710839421E-1,1.866578683E-2,-6.050205231E-2,1.824242998E-1
5.458758976E0,-1.245674044E-1,2.550162002E-2,1.597690582E-2,1.281508189E-1
5.463507778E0,-9.966322780E-2,3.904800862E-3,-7.772445679E-4,9.974272181E-2
5.468256581E0,-9.633381665E-2,-3.172876313E-2,1.109695435E-2,1.020297066E-1
5.473005331E0,-8.127549291E-2,-4.335241765E-2,2.050113678E-2,9.436860957E-2
5.477754133E0,-2.357947081E-2,1.394255832E-2,-8.158683777E-3,2.858234590E-2
5.482502935E0,1.232557744E-2,1.855700463E-2,4.176521301E-2,4.733513809E-2
5.487251685E0,4.790297896E-2,2.788096666E-2,1.530075073E-2,5.749918841E-2
5.492000487E0,7.846403867E-2,3.246483207E-2,-3.821372986E-3,8.500102104E-2
5.496749289E0,9.452565014E-2,-5.810083821E-3,6.980895996E-2,1.176526519E-1
5.501498039E0,1.009280756E-1,-2.239802480E-2,6.685161591E-2,1.231149321E-1
5.506246841E0,1.309330761E-1,-2.220017463E-2,4.255294800E-2,1.394527575E-1
5.510995643E0,1.203846559E-1,-2.200432122E-2,9.442901611E-2,1.545752070E-1
5.515744445E0,1.337226033E-1,-3.368049487E-2,1.007633209E-1,1.707903897E-1
5.520493195E0,1.137112081E-1,2.364834398E-2,7.380580902E-2,1.376109751E-1
5.525241997E0,1.246449947E-1,6.871972233E-3,1.858615875E-2,1.262103166E-1
5.529990799E0,7.132863253E-2,6.740298122E-3,1.110239029E-1,1.321344484E-1
5.534739549E0,8.742100000E-2,-7.521018386E-3,4.599571228E-2,9.906867571E-2
5.539488351E0,6.768132746E-2,-2.387203276E-4,5.036067963E-2,8.436241537E-2
5.544237153E0,1.121225208E-1,-1.441297680E-2,1.907825470E-2,1.146436800E-1
5.548985956E0,1.087388545E-1,2.338096499E-3,1.305055618E-1,1.698861585E-1
5.553734706E0,1.197426170E-1,3.087667748E-2,-1.540565491E-2,1.246153993E-1
5.558483508E0,9.721682966E-2,9.263236076E-3,1.153020859E-1,1.511009283E-1
5.563232310E0,1.129221171E-1,-5.047271028E-3,5.261325836E-2,1.246797274E-1
5.567981060E0,1.047836691E-1,-4.994010553E-3,8.066654205E-2,1.323315853E-1
5.572729862E0,1.038638204E-1,-1.675407402E-2,8.769989014E-3,1.055713261E-1
5.577478664E0,2.457629144E-2,-1.420017704E-2,1.344680786E-2,3.140789345E-2
5.582227414E0,5.026927590E-2,-2.122125402E-2,1.096248627E-2,5.565534860E-2
5.586976216E0,7.102842629E-2,-4.499437287E-3,4.173755646E-2,8.250639912E-2
5.591725018E0,5.374239385E-2,-6.795950234E-3,2.239799500E-2,5.861825668E-2
5.596473820E0,3.888881207E-2,-4.943345115E-2,3.645896912E-2,7.269980898E-2
5.601222570E0,4.074960947E-2,-3.010238707E-2,2.665996552E-2,5.724891388E-2
5.605971372E0,4.268062115E-2,9.950362146E-4,1.694393158E-2,4.593171384E-2
5.610720174E0,4.922942817E-2,9.833879769E-2,-2.187728882E-3,1.099947357E-1
5.615468924E0,1.544889808E-2,6.189012900E-2,3.819274902E-2,7.434879015E-2
5.620217726E0,-2.746115625E-2,3.764489666E-2,-1.673030853E-2,4.950915643E-2
5.624966528E0,-5.107754469E-2,-1.494518667E-2,2.956390381E-5,5.321912298E-2
5.629715331E0,-8.161949366E-2,-3.377367929E-2,-7.831668854E-2,1.180504420E-1
5.634464081E0,-1.166551858E-1,-5.012822896E-2,-1.014032364E-1,1.624927324E-1
5.639212883E0,-1.704206616E-1,-2.129477635E-2,-8.393573761E-2,1.911592986E-1
5.643961685E0,-1.880970895E-1,9.785961360E-3,-1.307182312E-1,2.292673900E-1
5.648710435E0,-1.961867213E-1,-5.919215083E-2,-1.804161072E-2,2.057144625E-1
5.653459237E0,-1.684824228E-1,-8.488969505E-2,-2.501392365E-2,1.903110178E-1
5.658208039E0,-1.574855298E-1,-5.319298804E-2,-7.703876495E-2,1.832106912E-1
5.662956789E0,-1.798753440E-1,-4.318521172E-2,-8.826732635E-2,2.049663943E-1
5.667705591E0,-2.211287320E-1,-3.574950248E-2,-2.817916870E-2,2.257653839E-1
5.672454393E0,-1.788863838E-1,-1.641830802E-2,-1.276588440E-1,2.203784917E-1
5.677203195E0,-1.702908874E-1,-1.867368817E-2,-5.537128448E-2,1.800379740E-1
5.681951945E0,-1.640556902E-1,-3.755747527E-2,-3.116893768E-2,1.711617250E-1
5.686700747E0,-1.602751315E-1,-4.198193923E-2,-9.263801575E-2,1.898220297E-1
5.691449549E0,-9.731493890E-2,8.178465068E-3,-2.776241302E-2,1.015275145E-1
5.696198299E0,-6.085257977E-2,6.269837916E-2,9.584426880E-4,8.737872640E-2
5.700947101E0,-6.968875229E-2,7.880613208E-2,3.181266785E-2,1.099043879E-1
5.705695903E0,-1.921171695E-2,7.578645647E-2,3.154659271E-2,8.430815241E-2
5.710444706E0,-2.607780695E-2,5.854707584E-2,2.178668976E-2,6.769395804E-2
5.715193456E0,3.356092423E-2,8.650310338E-2,4.297161102E-2,1.022530287E-1
5.719942258E0,4.996769875E-2,9.285984188E-2,1.887130737E-2,1.071253817E-1
5.724691060E0,3.534550220E-2,8.262948692E-2,4.720211029E-2,1.015134269E-1
5.729439810E0,5.645717680E-2,6.293141842E-2,4.206085205E-2,9.442929372E-2
5.734188612E0,7.742132246E-2,5.767125264E-2,1.559352875E-2,9.779157782E-2
5.738937414E0,9.818223119E-2,3.103053570E-2,1.009330750E-1,1.441878299E-1
5.743686164E0,9.974841028E-2,5.449746177E-2,9.296989441E-2,1.468438625E-1
5.748434966E0,8.476826549E-2,1.143506542E-2,7.794761658E-2,1.157248914E-1
5.753183768E0,1.196843982E-1,-4.616379738E-4,1.082324982E-2,1.201736702E-1
5.757932570E0,1.091152430E-1,-1.121164709E-1,6.533908844E-2,1.695447899E-1
5.762681320E0,1.224040911E-1,-9.932769835E-2,5.292415619E-2,1.662820480E-1
5.767430122E0,1.237114370E-1,-9.368230402E-2,2.874183655E-2,1.578194757E-1
5.772178924E0,1.060718298E-1,-7.618466020E-2,3.325080872E-2,1.347625757E-1
5.776927674E0,6.006099284E-2,-9.927934408E-2,4.484367371E-2,1.243972110E-1
5.781676476E0,1.212133318E-1,-6.288568676E-2,4.921913147E-2,1.451544154E-1
5.786425278E0,1.106604040E-1,-5.760288239E-2,6.542873383E-2,1.408713465E-1
5.791174081E0,1.191028953E-1,-5.473824963E-2,4.589271545E-2,1.388809453E-1
5.795922831E0,1.180069149E-1,-3.524953499E-2,5.738162994E-2,1.358705749E-1
5.800671633E0,1.430355906E-1,1.019278169E-2,6.640052795E-2,1.580256407E-1
5.805420435E0,1.535824686E-1,3.623391688E-2,3.261184692E-2,1.611334973E-1
5.810169185E0,1.544875056E-1,-3.059009090E-2,7.745265961E-2,1.755023006E-1
5.814917987E0,1.364205033E-1,1.238174364E-2,7.958412170E-3,1.372122356E-1
5.819666789E0,1.137843132E-1,-2.094869688E-2,5.775165558E-2,1.293095958E-1
5.824415539E0,8.658842742E-2,-1.598646119E-2,1.928520203E-2,9.013901332E-2
5.829164341E0,4.769104719E-2,-1.343853585E-2,3.812026978E-2,6.251547965E-2
5.833913143E0,1.395186782E-2,9.827001393E-2,5.917167664E-2,1.155549115E-1
5.838661945E0,-1.000933349E-2,5.241020769E-2,3.731155396E-2,6.510889867E-2
5.843410695E0,-1.011510193E-2,5.687536299E-2,-5.558872223E-2,8.016999589E-2
5.848159497E0,-2.449354529E-2,1.602353156E-2,-2.900695801E-2,4.120789897E-2
5.852908299E0,-6.707055122E-2,3.480870277E-2,-5.250549316E-2,9.201593037E-2
5.857657049E0,-1.092642695E-1,-3.456143662E-3,-3.307533264E-2,1.142129727E-1
5.862405851E0,-1.465007961E-1,3.691582009E-2,-6.840896606E-2,1.658464581E-1
5.867154653E0,-1.525061727E-1,3.296427429E-3,-2.985095978E-2,1.554351277E-1
5.871903403E0,-2.011105865E-1,4.361328855E-2,-4.147338867E-2,2.099229118E-1
5.876652206E0,-2.255397141E-1,1.242607087E-2,-9.810829163E-2,2.462677542E-1
5.881401008E0,-2.497939467E-1,2.809330821E-3,-8.779335022E-2,2.647878028E-1
5.886149810E0,-2.144638896E-1,2.891388163E-2,-8.943557739E-2,2.341569879E-1
5.890898560E0,-2.007668614E-1,4.530353472E-2,-1.005630493E-1,2.290691376E-1
5.895647362E0,-2.228532732E-1,1.882193983E-2,-1.020984650E-1,2.458494322E-1
5.900396164E0,-2.116031945E-1,-7.581695914E-3,-8.653640747E-3,2.119157368E-1
5.905144914E0,-1.646631658E-1,-1.943549514E-2,-7.505989075E-2,1.820046259E-1
5.909893716E0,-1.750084311E-1,-9.736843407E-3,-3.882312775E-2,1.795271353E-1
5.914642518E0,-1.260277629E-1,-1.676729135E-2,-7.173919678E-2,1.459816818E-1
5.919391268E0,-7.030428946E-2,9.441841394E-3,-2.128505707E-2,7.406007791E-2
5.924140070E0,-4.585211724E-2,-1.793056726E-4,-1.398563385E-2,4.793794697E-2
5.928888872E0,-2.163235843E-2,-1.918798685E-2,-3.048896790E-2,4.202041092E-2
5.933637674E0,2.357125282E-3,-1.189443842E-2,-2.073955536E-2,2.402421406E-2
5.938386424E0,5.706769228E-2,-1.415826008E-2,2.928829193E-2,6.568852164E-2
5.943135226E0,6.381084025E-2,-4.020177200E-2,5.753421783E-2,9.485880047E-2
5.947884028E0,1.060529575E-1,-2.317943797E-2,1.669311523E-2,1.098324917E-1
5.952632778E0,1.075540930E-1,-1.665163785E-3,1.210165024E-1,1.619124749E-1
5.957381581E0,1.257759482E-1,6.766356528E-4,8.914375305E-2,1.541643788E-1
5.962130383E0,1.224786192E-1,2.922872454E-2,7.415390015E-2,1.461305287E-1
5.966879133E0,1.309652030E-1,1.003171131E-2,-6.198883057E-5,1.313488618E-1
5.971627935E0,8.714982867E-2,2.409002185E-2,1.566324234E-1,1.808566777E-1
5.976376737E0,1.102612689E-1,5.241916329E-2,3.899288177E-2,1.281630248E-1
5.981125487E0,1.164182276E-1,5.671399832E-2,8.377742767E-2,1.542346871E-1
5.985874289E0,1.106533408E-1,2.058326453E-2,6.171321869E-2,1.283602508E-1
5.990623091E0,1.358003020E-1,6.149861962E-3,8.731555939E-2,1.615659300E-1
5.995371893E0,1.250110269E-1,-2.955841273E-2,4.148006439E-2,1.349890823E-1
6.000120643E0,1.476640999E-1,-1.988922805E-2,1.361017227E-1,2.018017511E-1
6.004869445E0,1.251055598E-1,6.402976811E-3,5.187225342E-2,1.355844013E-1
6.009618247E0,9.544129670E-2,2.051926777E-2,1.179170609E-1,1.530833587E-1
6.014366997E0,1.087872535E-1,3.797579557E-3,2.977371216E-3,1.088942279E-1
6.019115799E0,7.685594261E-2,-5.797889084E-2,3.144454956E-2,1.012775760E-1
6.023864601E0,8.789701760E-2,-7.418964803E-2,5.017852783E-2,1.254905344E-1
6.028613351E0,7.762137055E-2,-6.171763688E-2,2.364635468E-2,1.019475059E-1
6.033362153E0,7.206548750E-2,-5.166695639E-2,2.083778381E-3,8.869752536E-2
6.038110956E0,6.175045669E-2,-7.499524206E-2,6.617069244E-2,1.175413364E-1
6.042859758E0,9.199608862E-2,-2.215599269E-2,1.576423645E-2,9.593059723E-2
6.047608508E0,7.916937768E-2,-7.686696947E-3,2.750682831E-2,8.416353888E-2
6.052357310E0,7.606042922E-2,2.802935243E-2,2.727890015E-2,8.552760889E-2
6.057106112E0,4.205623269E-2,2.543323860E-2,1.518249512E-2,5.144010587E-2
6.061854862E0,3.919944167E-2,3.707466274E-2,-1.817989349E-2,5.693536135E-2
6.066603664E0,7.847905159E-3,3.674915060E-2,2.470779419E-2,4.497293385E-2
6.071352466E0,-1.611975580E-2,4.125954211E-2,-2.297973633E-2,4.990255128E-2
6.076101216E0,-3.983051330E-2,-1.807738096E-3,-5.127525330E-2,6.495297766E-2
6.080850018E0,-5.619268864E-2,-1.842907444E-2,-4.847335815E-2,7.646512599E-2
6.085598820E0,-1.104334295E-1,1.972206682E-2,-1.169185638E-1,1.620322586E-1
6.090347570E0,-1.381637454E-1,-2.325103804E-2,2.888202667E-2,1.430524477E-1
6.095096372E0,-1.347133666E-1,-2.539125830E-2,-4.732990265E-2,1.450259523E-1
6.099845174E0,-1.715664566E-1,8.155312389E-3,-7.067775726E-2,1.857334205E-1
6.104593976E0,-1.630892158E-1,-1.326916739E-2,-6.296539307E-2,1.753248523E-1
6.109342726E0,-1.926975399E-1,-6.082452834E-3,-5.294227600E-2,1.999305447E-1
6.114091528E0,-2.220304608E-1,-2.973424271E-2,-1.023569107E-1,2.462896423E-1
6.118840331E0,-2.297230661E-1,-5.791641772E-3,-4.689693451E-2,2.345326260E-1
6.123589081E0,-2.276836932E-1,-1.048083976E-2,-8.924388885E-2,2.447737401E-1
6.128337883E0,-2.068108320E-1,-4.839795083E-2,-9.562301636E-2,2.329309836E-1
6.133086685E0,-1.885146201E-1,2.547166869E-2,-8.532714844E-2,2.084881055E-1
6.137835435E0,-1.394214779E-1,3.468155488E-2,-5.375289917E-2,1.533966523E-1
6.142584237E0,-1.429402679E-1,6.998776644E-2,-8.196830750E-3,1.593656038E-1
6.147333039E0,-1.250337511E-1,4.095450789E-2,-2.237510681E-2,1.334591924E-1
6.152081789E0,-1.073050052E-1,1.925710216E-2,-1.506614685E-2,1.100553902E-1
6.156830591E0,-7.316207141E-2,1.664804295E-2,1.592350006E-2,7.670334987E-2
6.161579393E0,-3.209555149E-2,4.026199132E-2,-2.694511414E-2,5.811360896E-2
6.166328195E0,-8.963048458E-4,7.074417174E-2,1.767158508E-3,7.077191566E-2
6.171076945E0,2.532289177E-2,5.826723948E-2,2.074432373E-2,6.683297847E-2
6.175825747E0,7.028821111E-2,-3.962829709E-3,-4.115581512E-2,8.154715052E-2
6.180574549E0,5.303680897E-2,-1.824844815E-2,9.451389313E-2,1.099035257E-1
6.185323299E0,9.536838531E-2,-1.808414422E-2,5.573940277E-2,1.119332221E-1
6.190072101E0,1.041950136E-1,-1.317359135E-2,6.714248657E-2,1.246525486E-1
6.194820903E0,1.294526160E-1,3.205760568E-2,3.571987152E-2,1.380636777E-1
6.199569653E0,1.307013035E-1,-4.185333103E-2,6.866073608E-2,1.534562763E-1
6.204318456E0,1.533640921E-1,-3.914704546E-2,6.571388245E-2,1.713807173E-1
6.209067258E0,1.592759341E-1,-7.673779130E-2,6.516551971E-2,1.884252020E-1
6.213816060E0,1.057279408E-1,-7.834665477E-2,3.613281250E-2,1.364630936E-1
6.218564810E0,1.023689657E-1,-8.480426669E-2,9.993457794E-2,1.663072117E-1
6.223313612E0,1.418013722E-1,-3.425781801E-2,3.974819183E-2,1.511990278E-1
6.228062414E0,1.405731440E-1,-3.039708361E-3,2.517318726E-2,1.428416535E-1
6.232811164E0,1.345498264E-1,-2.199635282E-2,9.381294250E-2,1.654943005E-1
6.237559966E0,1.381020397E-1,-4.073864967E-2,7.404041290E-2,1.619067438E-1
6.242308768E0,1.534666419E-1,-1.186960936E-2,1.042881012E-1,1.859271520E-1
6.247057518E0,1.449902505E-1,-2.234330401E-3,7.493019104E-2,1.632228492E-1
6.251806320E0,1.175914109E-1,-9.270191193E-3,3.157234192E-2,1.221085138E-1
6.256555122E0,1.282931566E-1,1.927829534E-2,1.469326019E-2,1.305629297E-1
6.261303872E0,9.382550418E-2,-2.841243893E-2,6.917953491E-2,1.199845822E-1
6.266052674E0,5.498230457E-2,-3.760430217E-2,-3.348541260E-2,7.455474643E-2
6.270801476E0,2.816197276E-2,-6.444375962E-3,8.075618744E-2,8.576822547E-2
6.275550226E0,3.257195652E-2,6.006809697E-2,3.260231018E-2,7.571010008E-2
6.280299028E0,2.985122800E-2,4.304582998E-2,1.808643341E-2,5.541803285E-2
6.285047831E0,3.184430301E-2,5.225247890E-2,-4.141521454E-2,7.388911409E-2
6.289796581E0,-2.089884132E-2,3.031803668E-2,3.965473175E-2,5.411508724E-2
6.294545383E0,-3.026777506E-2,4.429289699E-2,-2.477645874E-2,5.909206240E-2
6.299294185E0,-7.050836831E-2,-3.918834776E-2,1.104354858E-2,8.141938693E-2
6.304042935E0,-9.619722515E-2,-1.745466143E-2,-5.314731598E-2,1.112798658E-1
6.308791737E0,-9.080816805E-2,-3.081286326E-3,2.089595795E-2,9.323228394E-2
6.313540539E0,-1.517688036E-1,5.159037933E-2,-1.014328003E-2,1.606182527E-1
6.318289289E0,-1.909111440E-1,5.835165828E-2,-1.287660599E-1,2.375556337E-1
6.323038091E0,-1.563002616E-1,3.167603910E-2,-5.171585083E-2,1.676534296E-1
6.327786893E0,-1.811029166E-1,1.477644965E-2,-8.452415466E-2,2.004019526E-1
6.332535695E0,-1.843027771E-1,9.944789112E-3,-9.331703186E-2,2.068199238E-1
6.337284445E0,-1.971726418E-1,-2.101898566E-2,-9.491157532E-2,2.198341546E-1
6.342033247E0,-1.741800904E-1,-2.094688267E-2,-3.239250183E-2,1.784005324E-1
6.346782049E0,-1.726322472E-1,1.716812328E-2,-5.823993683E-2,1.829987089E-1
6.351530799E0,-1.925787628E-1,-9.079728276E-3,-1.501941681E-2,1.933768451E-1
6.356279601E0,-1.576679796E-1,7.711511105E-3,-1.051139832E-1,1.896512817E-1
6.361028403E0,-1.278536320E-1,2.824477851E-3,-4.013538361E-2,1.340349876E-1
6.365777153E0,-8.392862976E-2,9.877476841E-3,-6.354331970E-2,1.057323646E-1
6.370525956E0,-8.081583679E-2,-2.815143391E-2,-9.387779236E-2,1.270304790E-1
6.375274758E0,-5.876437947E-2,-2.086885273E-2,-3.374290466E-2,7.090377228E-2
6.380023508E0,-3.206270933E-2,-1.602110453E-2,-4.295825958E-2,5.594734298E-2
6.384772310E0,-2.935371548E-2,-1.587603800E-2,-9.363174438E-3,3.466061498E-2
6.389521112E0,8.802384138E-3,-8.698586375E-2,3.107643127E-2,9.278883036E-2
6.394269862E0,5.384859443E-2,-1.033449173E-2,8.304786682E-2,9.951593352E-2
6.399018664E0,7.720912248E-2,-5.517423153E-3,8.235454559E-2,1.130219524E-1
6.403767466E0,7.674773037E-2,3.261180595E-2,3.893089294E-2,9.202911729E-2
6.408516216E0,1.045800373E-1,-1.275756210E-2,-1.837253571E-2,1.069452648E-1
6.413265018E0,1.250576675E-1,6.078825518E-2,1.289787292E-1,1.896579678E-1
6.418013820E0,1.193918660E-1,3.892663494E-2,3.531074524E-2,1.304474964E-1
6.422762570E0,1.230987459E-1,6.472907960E-2,1.157379150E-1,1.809376135E-1
6.427511372E0,1.457392722E-1,7.069110870E-5,1.005296707E-1,1.770484543E-1
6.432260174E0,1.611542702E-1,4.278813675E-2,1.234331131E-1,2.074542283E-1
6.437008924E0,1.858517975E-1,1.873023808E-2,5.830287933E-2,1.956807047E-1
6.441757726E0,1.675801873E-1,-1.227780432E-2,1.646547318E-1,2.352552749E-1
6.446506528E0,1.542950422E-1,-5.015064403E-2,5.881977081E-2,1.725740785E-1
6.451255278E0,1.291926056E-1,1.438086480E-2,1.509227753E-1,1.991864019E-1
6.456004081E0,1.375373900E-1,-1.893686876E-2,1.908874512E-2,1.401410676E-1
6.460752883E0,1.053665131E-1,-3.776103258E-2,7.591056824E-2,1.352420498E-1
6.465501633E0,1.186011136E-1,-3.271543235E-2,3.254413605E-2,1.272621092E-1
6.470250435E0,1.103294790E-1,-3.717988729E-2,6.076526642E-2,1.313291877E-1
6.474999237E0,4.995280504E-2,-4.157895222E-2,1.040267944E-2,6.582026845E-2
6.479748039E0,4.940427840E-2,-4.122124985E-2,3.880691528E-2,7.513954243E-2
6.484496789E0,5.589690804E-2,-3.142670915E-2,4.560947418E-2,7.869133696E-2
6.489245591E0,5.527023971E-2,4.458602518E-3,-4.625320435E-3,5.564235907E-2
6.493994341E0,2.853310108E-2,2.058919519E-3,-4.585266113E-3,2.897242952E-2
6.498743143E0,-2.786710858E-3,2.098938450E-2,1.207447052E-2,2.437443040E-2
6.503491945E0,-2.672301233E-2,1.361747831E-2,-1.413726807E-2,3.315746450E-2
6.508240747E0,-4.797133058E-2,3.488254175E-2,2.601623535E-3,5.937009956E-2
6.512989497E0,-8.091321588E-2,2.991153672E-2,-5.914783478E-2,1.045950041E-1
6.517738299E0,-8.045695722E-2,2.970206738E-2,-2.303886414E-2,8.880497752E-2
6.522487049E0,-1.059771851E-1,-1.369584352E-3,-8.932304382E-2,1.386060809E-1
6.527235851E0,-1.408100128E-1,9.704194963E-4,-1.075696945E-1,1.771994374E-1
6.531984653E0,-1.540995538E-1,-1.578800194E-2,1.203823090E-2,1.553732683E-1
6.536733403E0,-1.481421590E-1,-2.039351687E-2,-4.741477966E-2,1.568762446E-1
6.541482206E0,-1.730411798E-1,2.729917690E-2,-4.701995850E-2,1.813818388E-1
6.546231008E0,-1.526811421E-1,-8.528936654E-3,-2.525901794E-2,1.549912639E-1
6.550979810E0,-1.704484671E-1,5.741078407E-3,-5.591201782E-2,1.794764432E-1
6.555728560E0,-1.785710454E-1,-6.138093770E-3,-7.206344604E-2,1.926614510E-1
6.560477362E0,-1.770722866E-1,1.046713442E-3,-4.059886932E-2,1.816699163E-1
6.565226164E0,-1.755860150E-1,-3.693716601E-2,-6.875038147E-2,1.921494675E-1
6.569974914E0,-1.931623518E-1,-3.907837719E-2,-4.443454742E-2,2.020228768E-1
6.574723716E0,-1.511813849E-1,2.055467665E-2,-6.305694580E-2,1.650893222E-1
6.579472466E0,-1.190469414E-1,1.084087044E-2,-4.116344452E-2,1.264283508E-1
6.584221268E0,-1.179870740E-1,1.548147574E-2,-3.369903564E-2,1.236780123E-1
6.588970070E0,-8.847483248E-2,2.251468599E-2,-3.104496002E-2,9.642871258E-2
6.593718820E0,-7.585613430E-2,8.036252111E-3,9.574890137E-3,7.687921032E-2
6.598467622E0,-5.135767907E-2,8.298344910E-4,-2.861022949E-6,5.136438292E-2
6.603216424E0,-1.524978131E-2,3.644670174E-2,-3.324222565E-2,5.163296876E-2
6.607965226E0,-1.751504093E-2,3.137836978E-2,1.689147949E-2,3.970769231E-2
6.612713976E0,1.364813745E-2,9.818591177E-3,-4.260540009E-2,4.580280019E-2
6.617462778E0,4.684027284E-2,-5.675671995E-2,-3.750324249E-2,8.259436795E-2
6.622211528E0,4.402933270E-2,-7.306295633E-2,7.914352417E-2,1.163635473E-1
6.626960331E0,5.797521770E-2,1.183915883E-3,-5.684280396E-2,8.120118155E-2
6.631709133E0,6.697057188E-2,1.786212996E-2,1.050729752E-1,1.258747127E-1
6.636457883E0,1.138773635E-1,2.007077262E-2,4.009532928E-2,1.223867855E-1
6.641206685E0,1.200328320E-1,-1.569713466E-2,6.350231171E-2,1.366997600E-1
6.645955487E0,1.403819770E-1,-1.564082317E-2,6.534767151E-2,1.556343567E-1
6.650704237E0,1.486621350E-1,-2.027577907E-2,4.106235504E-2,1.555559533E-1
6.655453039E0,1.355344802E-1,-4.855607450E-2,1.697826385E-2,1.449674072E-1
6.660201841E0,1.224877983E-1,-2.683004737E-2,1.070556641E-1,1.648757938E-1
6.664950591E0,1.499388218E-1,6.671767682E-3,8.823394775E-3,1.503463171E-1
6.669699393E0,1.248442084E-1,1.793358475E-3,1.037178040E-1,1.623165899E-1
6.674448195E0,1.118580401E-1,-1.482941024E-2,5.062389374E-2,1.236725966E-1
6.679196945E0,1.416576505E-1,1.924041659E-3,8.106708527E-2,1.632251947E-1
6.683945747E0,1.592810750E-1,5.166161433E-2,9.463977814E-2,1.923436270E-1
6.688694549E0,1.507561207E-1,3.705498204E-2,2.974987030E-2,1.580681321E-1
6.693443299E0,1.303457916E-1,8.296214044E-3,1.763439178E-2,1.317946293E-1
6.698192101E0,1.171993315E-1,-1.321440190E-2,8.159160614E-2,1.434137159E-1
6.702940903E0,1.160905063E-1,-4.636013135E-2,1.681232452E-2,1.261305740E-1
6.707689653E0,6.035681069E-2,-4.599117488E-2,3.804016113E-2,8.488337070E-2
6.712438456E0,5.729024112E-2,8.980110288E-3,6.621742249E-2,8.802023148E-2
6.717187258E0,4.480969906E-2,3.265837580E-2,1.343536377E-2,5.705249897E-2
6.721936008E0,3.972098231E-3,5.376477167E-2,2.282333374E-2,5.854342662E-2
6.726684810E0,-3.658230603E-2,2.964323759E-2,-3.909397125E-2,6.119906239E-2
6.731433612E0,-1.987655461E-2,1.035745814E-2,-1.977252960E-2,2.988824667E-2
6.736182362E0,-8.385941386E-2,-2.058156207E-2,-5.521774292E-2,1.024939077E-1
6.740931164E0,-9.750906378E-2,-4.888902232E-2,-2.151775360E-2,1.111807886E-1
6.745679914E0,-1.182247698E-1,-2.953398973E-2,-9.255981445E-2,1.530250698E-1
6.750428716E0,-1.434303522E-1,-2.939060703E-2,-6.317138672E-3,1.465468524E-1
6.755177518E0,-1.731456220E-1,-1.726333424E-2,-4.187679291E-2,1.789723300E-1
6.759926268E0,-1.765832901E-1,-1.942523941E-2,-9.850502014E-2,2.031310839E-1
6.764675070E0,-2.107989490E-1,-4.059129208E-2,-8.581256866E-2,2.311874712E-1
6.769423872E0,-1.852615774E-1,-7.003746927E-3,-1.325817108E-1,2.279228259E-1
6.774172622E0,-1.837355494E-1,1.920965314E-2,-1.172313690E-1,2.187943253E-1
6.778921424E0,-1.821937561E-1,-7.111992687E-3,-1.210031509E-1,2.188307742E-1
6.783670226E0,-2.020320296E-1,-1.419290341E-2,-8.438301086E-2,2.194057247E-1
6.788418976E0,-2.027117014E-1,2.440609038E-3,6.538391113E-3,2.028318047E-1
6.793167778E0,-1.511259228E-1,1.195591316E-2,-5.049610138E-2,1.597868726E-1
6.797916581E0,-1.403306127E-1,4.801828414E-3,-4.295539856E-2,1.468363193E-1
6.802665331E0,-9.879000485E-2,6.166687980E-2,-6.984710693E-3,1.166664275E-1
6.807414133E0,-5.267576873E-2,7.786858082E-2,-1.137657166E-1,1.475835043E-1
6.812162935E0,-4.979496449E-2,-1.779180020E-2,-5.109214783E-2,7.352886653E-2
6.816911685E0,-3.749860078E-2,5.994904786E-3,-5.557060242E-3,3.837922436E-2
6.821660487E0,2.932925522E-2,-2.013090625E-2,-1.500797272E-2,3.860955638E-2
6.826409289E0,1.731038094E-2,1.322935894E-2,8.008098602E-2,8.299174386E-2
6.831158039E0,4.091816396E-2,-3.459798172E-3,3.430557251E-2,5.350830450E-2
6.835906841E0,1.165033504E-1,8.433838189E-2,8.862590790E-2,1.689394710E-1
6.840655591E0,1.013267338E-1,1.479683444E-2,1.258726120E-1,1.622651156E-1
6.845404393E0,1.052984595E-1,2.664119005E-2,8.489608765E-3,1.089476574E-1
6.850153195E0,1.518287063E-1,-2.826000005E-2,5.590248108E-2,1.642427199E-1
6.854901945E0,1.481712759E-1,-1.382518187E-2,1.052932739E-1,1.822979325E-1
6.859650747E0,1.469756812E-1,-8.835799992E-3,-1.904010773E-2,1.484669927E-1
6.864399549E0,1.502811760E-1,4.811466485E-2,1.496858597E-1,2.174978377E-1
6.869148299E0,1.869971007E-1,-1.394501701E-2,4.872417450E-2,1.937431918E-1
6.873897101E0,1.854208857E-1,9.923879057E-3,1.124191284E-1,2.170655400E-1
6.878645903E0,1.742183119E-1,-5.193261057E-2,1.019878387E-1,2.084479203E-1
6.883394653E0,1.940299571E-1,-3.481164575E-2,9.876537323E-2,2.204859947E-1
6.888143456E0,1.496317983E-1,-8.190713823E-2,7.657432556E-2,1.869815009E-1
6.892892258E0,1.197913438E-1,-1.713956520E-2,9.255695343E-2,1.523499930E-1
6.897641008E0,9.729345143E-2,-2.874189988E-2,-1.742267609E-2,1.029352328E-1
6.902389810E0,7.973143458E-2,-1.424668543E-2,6.344604492E-2,1.028857149E-1
6.907138560E0,5.519343913E-2,-3.079377860E-2,1.068687439E-2,6.409978009E-2
6.911887362E0,3.560814261E-2,-5.186510086E-2,2.009677887E-2,6.604399313E-2
6.916636164E0,-4.045069218E-4,-4.186790437E-2,1.518249512E-2,4.453754820E-2
6.921384914E0,1.608560979E-2,-8.241128176E-3,-6.309509277E-3,1.914348305E-2
6.926133716E0,-1.982133090E-2,-2.011857554E-2,5.616188049E-3,2.879555189E-2
6.930882518E0,-2.221950144E-2,1.092299074E-2,-4.665851593E-2,5.282078265E-2
6.935631268E0,-5.303043872E-2,-8.064638823E-3,-3.914546967E-2,6.640507229E-2
6.940380070E0,-1.953990757E-2,4.661917686E-2,-1.270103455E-2,5.211978433E-2
6.945128872E0,-5.280468613E-2,5.096200854E-2,-1.733970642E-2,7.540640961E-2
6.949877622E0,-5.721672624E-2,1.194849908E-1,-3.856182098E-2,1.379761966E-1
6.954626424E0,-8.058509231E-2,1.018814743E-1,-3.348922729E-2,1.341466371E-1
6.959375226E0,-1.061043665E-1,8.442503959E-2,-4.033279419E-2,1.414653957E-1
6.964123976E0,-1.598720700E-1,3.011669964E-3,-5.898952484E-2,1.704344829E-1
6.968872778E0,-1.491469741E-1,-1.124670357E-2,-8.698654175E-2,1.730259133E-1
6.973621528E0,-1.622527242E-1,-2.544343099E-2,-7.912635803E-3,1.644260456E-1
6.978370331E0,-1.633785069E-1,-1.809735596E-2,-5.770397186E-2,1.742119375E-1
6.983119133E0,-1.478472054E-1,3.189319372E-2,-4.297637939E-2,1.572353050E-1
6.987867883E0,-1.395391971E-1,-1.818989962E-2,-3.549480438E-2,1.451273272E-1
6.992616685E0,-1.549561620E-1,-1.565295644E-2,-5.894184113E-2,1.665249765E-1
6.997365435E0,-1.679275483E-1,-4.162730649E-2,-6.557273865E-2,1.850196697E-1
7.002114237E0,-1.594236195E-1,-5.082294717E-2,-3.653621674E-2,1.712710062E-1
7.006863039E0,-1.271634251E-1,-2.670351416E-2,-7.421875000E-2,1.496396913E-1
7.011611789E0,-1.545542628E-1,-4.557725415E-2,-2.611732483E-2,1.632373146E-1
7.016360591E0,-9.390194714E-2,1.411031932E-2,-6.626033783E-2,1.157890718E-1
7.021109393E0,-1.121305227E-1,1.397537440E-2,1.026439667E-2,1.134633115E-1
7.025858143E0,-8.741527796E-2,4.373174161E-3,-1.831150055E-2,8.941960929E-2
7.030606945E0,-3.916451335E-2,1.618976146E-2,3.208160400E-3,4.250011500E-2
7.035355695E0,-4.348995537E-2,-1.479821838E-2,2.217483521E-2,5.101065380E-2
7.040104497E0,-2.756148577E-3,2.563898265E-2,-1.124858856E-2,2.813333487E-2
7.044853299E0,3.042972833E-2,3.247362003E-2,5.465507507E-3,4.483721820E-2
7.049602049E0,3.730907291E-2,-1.295103133E-2,4.340553284E-2,5.868335722E-2
7.054350851E0,9.410248697E-2,-9.032934904E-4,-2.105903625E-2,9.643431444E-2
7.059099653E0,1.122650281E-1,-2.465460449E-2,2.660083771E-2,1.179783481E-1
7.063848403E0,9.700943530E-2,-3.871103749E-2,1.118488312E-1,1.530344275E-1
7.068597206E0,1.412917376E-1,6.760880351E-3,-7.790565491E-3,1.416677716E-1
7.073345956E0,1.447588801E-1,-1.934235543E-2,1.228532791E-1,1.908459805E-1
7.078094758E0,1.459371597E-1,2.834232152E-2,4.110813141E-2,1.542427315E-1
7.082843560E0,1.399546266E-1,3.758611158E-2,1.001205444E-1,1.761366989E-1
7.087592310E0,1.387417614E-1,2.538516372E-2,8.979129791E-2,1.672009572E-1
7.092341112E0,1.778423488E-1,2.515662834E-2,8.192157745E-2,1.974130235E-1
7.097089914E0,1.216510683E-1,-5.335932225E-2,1.951217651E-2,1.342643837E-1
7.101838664E0,8.014421165E-2,-2.212412283E-2,9.294986725E-2,1.247086577E-1
7.106587466E0,1.434172839E-1,2.077830955E-2,-2.890396118E-2,1.477690578E-1
7.111336268E0,7.795898616E-2,8.661046624E-3,1.517753601E-1,1.708460628E-1
7.116085018E0,9.860157967E-2,1.806808636E-2,-3.942108154E-2,1.077160570E-1
7.120833820E0,1.283684969E-1,-4.628723115E-2,1.057338715E-1,1.726285907E-1
7.125582570E0,1.153241247E-1,1.106146723E-2,5.737113953E-2,1.292805378E-1
7.130331372E0,8.582669497E-2,-1.979722455E-2,-3.569698334E-2,9.503907769E-2
7.135080174E0,6.115183234E-2,-1.730366796E-2,-2.590084076E-2,6.862810704E-2
7.139828924E0,4.386229813E-2,-4.575240985E-2,-2.093505859E-2,6.674923881E-2
7.144577726E0,2.199736238E-2,-4.541793838E-2,-6.349372864E-2,8.110565119E-2
7.149326528E0,-1.879283041E-2,-4.505807534E-2,2.013492584E-2,5.280924035E-2
7.154075278E0,-9.328991175E-3,-7.087319344E-2,9.765625000E-4,7.149121134E-2
7.158824081E0,-4.250705987E-2,-7.021501660E-2,-1.090240479E-2,8.280012757E-2
7.163572831E0,-9.915030748E-2,-2.204994857E-2,-6.304264069E-2,1.195464690E-1
7.168321633E0,-8.186581731E-2,-7.581919432E-3,-1.052494049E-1,1.335549878E-1
7.173070435E0,-1.003089696E-1,1.960072666E-3,-5.926322937E-2,1.165240817E-1
7.177819185E0,-1.066419110E-1,1.857357472E-2,-1.228694916E-1,1.637509903E-1
7.182567987E0,-1.343752593E-1,-6.489325315E-4,-2.687740326E-2,1.370384115E-1
7.187316737E0,-1.381074190E-1,3.023160994E-2,-8.600616455E-2,1.654831404E-1
7.192065539E0,-1.678097695E-1,4.663850740E-2,-2.830982208E-2,1.764559864E-1
7.196814341E0,-1.854224503E-1,5.818895996E-2,-6.606101990E-2,2.052595881E-1
7.201563091E0,-1.958519220E-1,6.011915952E-2,-8.925151825E-2,2.234683920E-1
7.206311893E0,-2.061086744E-1,1.454991475E-2,-6.713962555E-2,2.172561046E-1
7.211060695E0,-1.758909225E-1,5.952124670E-2,-4.758739471E-2,1.916897378E-1
7.215809445E0,-1.198092997E-1,3.057600185E-2,-1.350345612E-1,1.830942186E-1
7.220558247E0,-1.615634561E-1,-2.198455855E-2,-3.419399261E-2,1.665992205E-1
7.225306997E0,-1.364649534E-1,1.611051708E-2,-7.189464569E-2,1.550840816E-1
7.230055799E0,-1.186982244E-1,-7.838979363E-3,3.554058075E-2,1.241525310E-1
7.234804601E0,-5.834479630E-2,1.128823683E-2,-1.936054230E-2,6.250096114E-2
7.239553351E0,-8.684620261E-4,-1.493845321E-2,3.303241730E-2,3.626364851E-2
7.244302153E0,1.822814345E-2,2.075304836E-2,5.412387848E-2,6.076469741E-2
7.249050903E0,3.948271275E-2,2.059167624E-2,-2.467536926E-2,5.090948423E-2
7.253799706E0,3.910702467E-2,-5.325227976E-2,1.646041870E-3,6.608989432E-2
7.258548508E0,5.778498948E-2,-1.014834270E-2,4.436588287E-2,7.355559415E-2
7.263297258E0,1.047684103E-1,-6.231202185E-2,2.025508881E-2,1.235697232E-1
7.268046060E0,1.228419691E-1,-3.331996873E-2,8.418941498E-2,1.526048076E-1
7.272794862E0,1.146779358E-1,-6.626915932E-2,7.636547089E-2,1.528866102E-1
7.277543612E0,1.777777970E-1,-6.380584091E-3,8.997440338E-2,1.993515744E-1
7.282292414E0,1.358894855E-1,-3.008700907E-2,1.295862198E-1,1.901677384E-1
7.287041164E0,1.632290632E-1,2.475137264E-2,4.066276550E-2,1.700288740E-1
7.291789966E0,1.569883972E-1,-2.532975003E-2,1.020545959E-1,1.889499766E-1
7.296538768E0,1.342948824E-1,-6.114274263E-3,4.897308350E-2,1.430764226E-1
7.301287518E0,1.497196406E-1,-3.213876113E-2,1.082420349E-3,1.531340667E-1
7.306036320E0,1.482538879E-1,-5.858045071E-3,1.079130173E-1,1.834632150E-1
7.310785070E0,1.540657878E-1,-1.289187185E-2,2.392005920E-2,1.564437169E-1
7.315533872E0,1.479013264E-1,5.850838125E-2,4.983806610E-2,1.666789305E-1
7.320282674E0,1.203064919E-1,2.948547900E-2,6.367206573E-2,1.392737499E-1
7.325031424E0,1.310995519E-1,5.452316254E-3,2.515506744E-2,1.336023865E-1
7.329780226E0,4.443415999E-2,-5.159046501E-2,4.631519318E-2,8.234723901E-2
7.334528976E0,5.916729569E-3,-1.553753018E-2,4.355621338E-2,4.662152139E-2
7.339277778E0,-1.320075989E-2,-1.777140424E-2,7.581710815E-3,2.340011130E-2
7.344026581E0,-4.637524486E-2,2.512214705E-2,-1.384830475E-2,5.453036908E-2
7.348775331E0,-7.463953644E-2,1.545642316E-2,-3.272342682E-2,8.295049174E-2
7.353524133E0,-7.895530760E-2,-1.787064597E-2,-4.906749725E-2,9.466213537E-2
7.358272935E0,-9.748009592E-2,-3.430054337E-2,-5.340385437E-2,1.163222594E-1
7.363021685E0,-9.451155365E-2,-8.230153471E-4,-4.345989227E-2,1.040282335E-1
7.367770487E0,-1.056984663E-1,-3.178682178E-3,-4.546928406E-2,1.151074524E-1
7.372519237E0,-8.115127683E-2,5.858685449E-2,-6.883049011E-2,1.214725715E-1
7.377268039E0,-1.138167530E-1,5.333296582E-2,-4.451370239E-2,1.333421472E-1
7.382016789E0,-8.682782203E-2,9.560622275E-2,-3.701972961E-2,1.343505895E-1
7.386765591E0,-1.265400499E-1,-7.295440882E-3,-4.383277893E-2,1.341153242E-1
7.391514393E0,-1.160357445E-1,2.302933484E-3,-3.634452820E-2,1.216162910E-1
7.396263143E0,-9.369077533E-2,1.176296175E-2,-4.316425323E-2,1.038242814E-1
7.401011945E0,-8.099993318E-2,3.304309025E-2,-3.805732727E-2,9.540018421E-2
7.405760695E0,-1.135237515E-1,3.512451425E-2,-6.623077393E-2,1.360437028E-1
7.410509497E0,-1.126528829E-1,3.953454643E-2,-6.805133820E-2,1.374213849E-1
7.415258299E0,-1.069837213E-1,-5.978249013E-3,-3.424549103E-2,1.124900428E-1
7.420007049E0,-9.426784515E-2,-6.535702944E-2,-5.469322205E-3,1.148385014E-1
7.424755851E0,-6.501030922E-2,-3.636893630E-2,6.446838379E-3,7.477032538E-2
7.429504653E0,-4.783875495E-2,-5.499105901E-2,1.114082336E-2,7.373385241E-2
7.434253403E0,-7.589051872E-2,-5.214782059E-2,6.299018860E-3,9.229541518E-2
7.439002206E0,-7.521874458E-2,-2.801809460E-2,-1.986885071E-2,8.269005012E-2
7.443750956E0,-6.030767411E-2,-2.073705941E-2,-7.104873657E-4,6.377731558E-2
7.448499758E0,-5.736314505E-2,-4.432309419E-2,-1.732444763E-2,7.453323805E-2
7.453248560E0,-3.788116574E-2,-4.402862117E-2,5.167102814E-2,7.773929089E-2
7.457997310E0,-1.913920045E-3,1.804839820E-2,-1.286220551E-2,2.224509155E-2
7.462746112E0,4.582852125E-4,1.782347634E-2,4.422569275E-2,4.768436047E-2
7.467494862E0,1.468153298E-2,3.424767032E-2,3.435897827E-2,5.068520219E-2
7.472243664E0,2.163513005E-2,1.967144012E-2,3.644847870E-2,4.672832126E-2
7.476992466E0,4.280427098E-2,4.969611764E-4,5.039024353E-2,6.611829722E-2
7.481741216E0,8.035886288E-2,-1.376943476E-2,4.522323608E-2,9.323242600E-2
7.486490018E0,9.614741802E-2,-1.372922026E-2,5.434417725E-2,1.112928887E-1
7.491238768E0,1.261349618E-1,-2.550253645E-2,4.677009583E-2,1.369227878E-1
7.495987570E0,1.226916760E-1,1.041955501E-2,2.976131439E-2,1.266789261E-1
7.500736372E0,9.070146084E-2,2.690657228E-2,1.289558411E-2,9.548305986E-2
7.505485122E0,9.696429968E-2,7.643599063E-3,5.552482605E-2,1.119977961E-1
7.510233924E0,9.848371148E-2,-9.027142078E-3,9.954452515E-3,9.939628688E-2
7.514982674E0,7.144352794E-2,-4.932902381E-2,8.109760284E-2,1.188038361E-1
7.519731476E0,1.015797257E-1,-5.840293318E-2,1.157283783E-2,1.177424047E-1
7.524480278E0,7.691664994E-2,-3.653769568E-2,1.622676849E-2,8.668611341E-2
7.529229028E0,6.432957947E-2,1.844177768E-2,-1.002407074E-2,6.766739210E-2
7.533977831E0,6.122972071E-2,3.254500031E-2,4.306793213E-3,6.947520573E-2
7.538726581E0,5.352184176E-2,1.806909963E-2,-3.608894348E-2,6.703351213E-2
7.543475383E0,2.685642242E-2,4.404576123E-2,4.968357086E-2,7.162229905E-2
7.548224133E0,2.175204456E-2,5.796340108E-2,-6.231403351E-2,8.784045810E-2
7.552972935E0,-9.368136525E-3,-1.891104504E-3,4.979133606E-2,5.070025054E-2
7.557721737E0,-4.616871476E-3,5.286898464E-3,-8.119964600E-2,8.150244970E-2
7.562470487E0,-3.800579906E-2,7.542032748E-3,1.444435120E-2,4.135169043E-2
7.567219289E0,-6.387963146E-2,2.645418048E-2,-4.977607727E-2,8.519441794E-2
